subject_id,trial_type,trial_index,time_elapsed,block,rt,stimulus,planet,community,response,correct,key_press,learning_correct_response,parse,init_locations,final_locations,browser_interactions,num_comp,planet_map
14977,commdev-instructions,7,110116,NA,45002.09999996424,"<p>In this game, you will be shown a 3x3 grid of patterns.</p> <p>The last one in the bottom right-hand corner, <strong>will be missing:</strong></p> <div style='width: 700px;'><div style='float: top;'><img style='width: 200px;' src='practice/p1_M1.png'></img><p class='small'>You need to select<strong> which of the four possible patterns </strong>along the bottom<strong> fits into the gap:</strong></p></div><div style='float: top;'><img style='width: 300px;' src='practice/p1_T1.png'></img></div><br>",NA,NA,NA,NA,NA,NA,NA,NA,NA,1,6,"14,7,11,3,9,6,4,8,10,12,1,15,5,2,13"
14977,commdev-instructions,8,132276,NA,1849,"<p>Try to be as fast and as accurate as you can be.</p> <p>If you cannot solve the puzzle then you should guess - you will not be penalised for an incorrect answer.</p> <p>The task contains a shuffled mix of easy, medium and hard puzzles.</p> <p>You will have <strong>30 seconds</strong> to complete each puzzle.</p><br>",NA,NA,NA,NA,NA,NA,NA,NA,NA,1,6,"14,7,11,3,9,6,4,8,10,12,1,15,5,2,13"
14977,commdev-instructions,15,168988,NA,1348.7999999523163,<p><strong>Success!</strong></p> <p>You seem to be getting the hang of this...</p> <p>Let's move on to the real trials.</p><br>,NA,NA,NA,NA,NA,NA,NA,NA,NA,1,6,"14,7,11,3,9,6,4,8,10,12,1,15,5,2,13"
14977,commdev-instructions,77,1426673,NA,765423.3000000119,"<p>In this game, you are a scientist on board a space shuttle. </p><p> On each mission, you will visit planets all across the universe.</p><img src=""img/controlroom.jpg"" width=300vw>",NA,NA,NA,NA,NA,NA,NA,NA,NA,1,6,"14,7,11,3,9,6,4,8,10,12,1,15,5,2,13"
14977,commdev-instructions,78,1431601,NA,2367.2000000476837,"<p>Here are a few planets you might see:</p><img src=""img/practice1.png"" width=200vw><img src=""img/practice2.png"" width=200vw><img src=""img/practice3.png"" width=200vw>",NA,NA,NA,NA,NA,NA,NA,NA,NA,1,6,"14,7,11,3,9,6,4,8,10,12,1,15,5,2,13"
14977,commdev-instructions,79,1439825,NA,821.7000000476837,"<p>Your job as a scientist is to record which direction the winds are moving on each planet.</p><p>There are two types of wind directions:</p><img src=""img/practice1_left.png"" width=200vw><img src=""img/practice1_right.png"" width=200vw>",NA,NA,NA,NA,NA,NA,NA,NA,NA,1,6,"14,7,11,3,9,6,4,8,10,12,1,15,5,2,13"
14977,commdev-instructions,80,1446488,NA,1776.7000000476837,"<p>If the winds are moving this way, press the letter <strong>F</strong> on the keyboard as fast as you can.</p><img src=""img/leftwind.png"" width=250vw>",NA,NA,NA,NA,NA,NA,NA,NA,NA,1,6,"14,7,11,3,9,6,4,8,10,12,1,15,5,2,13"
14977,commdev-instructions,81,1455832,NA,4829.899999976158,"<p>If the winds are moving this way, press the letter <strong>J</strong> on the keyboard as fast as you can.</p><img src=""img/rightwind.png"" width=350vw>",NA,NA,NA,NA,NA,NA,NA,NA,NA,1,6,"14,7,11,3,9,6,4,8,10,12,1,15,5,2,13"
14977,commdev-instructions,82,1462736,NA,2474.699999988079,<p>You will have 1 second to respond. Try to respond before the time runs out!,NA,NA,NA,NA,NA,NA,NA,NA,NA,1,6,"14,7,11,3,9,6,4,8,10,12,1,15,5,2,13"
14977,commdev-instructions,83,1469264,NA,1102.199999988079,<p>The planets you will visit will look different from each other.</p><p>You should respond <strong>only</strong> based on wind direction.,NA,NA,NA,NA,NA,NA,NA,NA,NA,1,6,"14,7,11,3,9,6,4,8,10,12,1,15,5,2,13"
14977,commdev-instructions,84,1476344,NA,1902,"<p> Ready to start the practice round? </p><p> Remember, press <strong>F</strong> or <strong>J</strong> depending on the wind direction.<br><img src=""img/categorize_planet_example.png""",NA,NA,NA,NA,NA,NA,NA,NA,NA,1,6,"14,7,11,3,9,6,4,8,10,12,1,15,5,2,13"
14977,commdev-instructions,96,1528471,NA,1314.9000000357628,"<p>Great, now try a short practice mission. </p><p> This time, you will have 1 second to respond and you won't know whether you pressed the right or wrong key for each planet.</p>",NA,NA,NA,NA,NA,NA,NA,NA,NA,1,6,"14,7,11,3,9,6,4,8,10,12,1,15,5,2,13"
14977,commdev-image-keyboard-response,97,1529834,practice,1231.9000000357628,img/practice3_right.png,NA,Number not found in mappings,NA,TRUE,j,j,NA,NA,NA,1,6,"14,7,11,3,9,6,4,8,10,12,1,15,5,2,13"
14977,commdev-image-keyboard-response,98,1531087,practice,1037.300000011921,img/practice1_right.png,NA,Number not found in mappings,NA,TRUE,j,j,NA,NA,NA,1,6,"14,7,11,3,9,6,4,8,10,12,1,15,5,2,13"
14977,commdev-image-keyboard-response,99,1532348,practice,839.8000000119209,img/practice4_right.png,NA,Number not found in mappings,NA,TRUE,j,j,NA,NA,NA,1,6,"14,7,11,3,9,6,4,8,10,12,1,15,5,2,13"
14977,commdev-image-keyboard-response,100,1533609,practice,779.3999999761581,img/practice3_left.png,NA,Number not found in mappings,NA,TRUE,f,f,NA,NA,NA,1,6,"14,7,11,3,9,6,4,8,10,12,1,15,5,2,13"
14977,commdev-image-keyboard-response,101,1534863,practice,773.8000000119209,img/practice4_right.png,NA,Number not found in mappings,NA,TRUE,j,j,NA,NA,NA,1,6,"14,7,11,3,9,6,4,8,10,12,1,15,5,2,13"
14977,commdev-image-keyboard-response,102,1536126,practice,608,img/practice3_left.png,NA,Number not found in mappings,NA,TRUE,f,f,NA,NA,NA,1,6,"14,7,11,3,9,6,4,8,10,12,1,15,5,2,13"
14977,commdev-image-keyboard-response,103,1537380,practice,840.9000000357628,img/practice4_left.png,NA,Number not found in mappings,NA,TRUE,f,f,NA,NA,NA,1,6,"14,7,11,3,9,6,4,8,10,12,1,15,5,2,13"
14977,commdev-image-keyboard-response,104,1538644,practice,723.4000000357628,img/practice1_right.png,NA,Number not found in mappings,NA,TRUE,j,j,NA,NA,NA,1,6,"14,7,11,3,9,6,4,8,10,12,1,15,5,2,13"
14977,commdev-instructions,105,1549550,NA,1362.699999988079,"<p>Great job with the practice round.</p><p>During real missions, you won't know whether you pressed the right or wrong key for each planet.</p><p>But between missions, we will tell you how you did overall.</p>",NA,NA,NA,NA,NA,NA,NA,NA,NA,1,6,"14,7,11,3,9,6,4,8,10,12,1,15,5,2,13"
14977,commdev-instructions,106,1558622,NA,823.8999999761581,<p>Try your best! You will be paid a bonus based on how many correct responses you make!</p><p>Responses that are too slow will not count toward your bonus.</p>,NA,NA,NA,NA,NA,NA,NA,NA,NA,1,6,"14,7,11,3,9,6,4,8,10,12,1,15,5,2,13"
14977,commdev-instructions,107,1565526,NA,698.1000000238419,"<p>You are almost ready to start the real game.</p><p> First, we are going to ask you some questions about how the game works.</p>",NA,NA,NA,NA,NA,NA,NA,NA,NA,1,6,"14,7,11,3,9,6,4,8,10,12,1,15,5,2,13"
14977,commdev-instructions,116,1656485,NA,5716,"<p> Nice work! It is now time to start the real game.<p></p>You will go on two missions to record wind directions of different planets.<p></p>Each one will take about 5 minutes. You will get to take a break between missions.<p><p> Remember, press <strong>F</strong> or <strong>J</strong> depending on the wind direction. Good luck!<br><img src=""img/categorize_planet_example.png""",NA,NA,NA,NA,NA,NA,NA,NA,NA,1,6,"14,7,11,3,9,6,4,8,10,12,1,15,5,2,13"
14977,commdev-image-keyboard-response,118,1661555,learnblock1,1132.800000011921,img/planet4_left.png,4,Community 2,NA,TRUE,f,f,NA,NA,NA,1,6,"14,7,11,3,9,6,4,8,10,12,1,15,5,2,13"
14977,commdev-image-keyboard-response,119,1662822,learnblock1,833.6000000238419,img/planet12_left.png,12,Community 2,NA,TRUE,f,f,NA,NA,NA,1,6,"14,7,11,3,9,6,4,8,10,12,1,15,5,2,13"
14977,commdev-image-keyboard-response,120,1664078,learnblock1,654.1000000238419,img/planet10_right.png,10,Community 2,NA,TRUE,j,j,NA,NA,NA,1,6,"14,7,11,3,9,6,4,8,10,12,1,15,5,2,13"
14977,commdev-image-keyboard-response,121,1665343,learnblock1,982,img/planet8_left.png,8,Community 2,NA,TRUE,f,f,NA,NA,NA,1,6,"14,7,11,3,9,6,4,8,10,12,1,15,5,2,13"
14977,commdev-image-keyboard-response,122,1666607,learnblock1,820.8999999761581,img/planet15_left.png,15,Community 3,NA,TRUE,f,f,NA,NA,NA,1,6,"14,7,11,3,9,6,4,8,10,12,1,15,5,2,13"
14977,commdev-image-keyboard-response,123,1667871,learnblock1,1061.3999999761581,img/planet2_left.png,2,Community 3,NA,TRUE,f,f,NA,NA,NA,1,6,"14,7,11,3,9,6,4,8,10,12,1,15,5,2,13"
14977,commdev-image-keyboard-response,124,1669137,learnblock1,1013.9000000357628,img/planet15_left.png,15,Community 3,NA,TRUE,f,f,NA,NA,NA,1,6,"14,7,11,3,9,6,4,8,10,12,1,15,5,2,13"
14977,commdev-image-keyboard-response,125,1670380,learnblock1,1083.5999999642372,img/planet13_left.png,13,Community 3,NA,TRUE,f,f,NA,NA,NA,1,6,"14,7,11,3,9,6,4,8,10,12,1,15,5,2,13"
14977,commdev-image-keyboard-response,126,1671642,learnblock1,838.6999999880791,img/planet1_left.png,1,Community 3,NA,TRUE,f,f,NA,NA,NA,1,6,"14,7,11,3,9,6,4,8,10,12,1,15,5,2,13"
14977,commdev-image-keyboard-response,127,1672907,learnblock1,880.7999999523163,img/planet2_right.png,2,Community 3,NA,TRUE,j,j,NA,NA,NA,1,6,"14,7,11,3,9,6,4,8,10,12,1,15,5,2,13"
14977,commdev-image-keyboard-response,128,1674172,learnblock1,936,img/planet13_right.png,13,Community 3,NA,TRUE,j,j,NA,NA,NA,1,6,"14,7,11,3,9,6,4,8,10,12,1,15,5,2,13"
14977,commdev-image-keyboard-response,129,1675438,learnblock1,967,img/planet1_left.png,1,Community 3,NA,TRUE,f,f,NA,NA,NA,1,6,"14,7,11,3,9,6,4,8,10,12,1,15,5,2,13"
14977,commdev-image-keyboard-response,130,1676701,learnblock1,813.1999999880791,img/planet2_left.png,2,Community 3,NA,TRUE,f,f,NA,NA,NA,1,6,"14,7,11,3,9,6,4,8,10,12,1,15,5,2,13"
14977,commdev-image-keyboard-response,131,1677968,learnblock1,701.4000000357628,img/planet5_right.png,5,Community 3,NA,TRUE,j,j,NA,NA,NA,1,6,"14,7,11,3,9,6,4,8,10,12,1,15,5,2,13"
14977,commdev-image-keyboard-response,132,1679221,learnblock1,883.6000000238419,img/planet2_right.png,2,Community 3,NA,TRUE,j,j,NA,NA,NA,1,6,"14,7,11,3,9,6,4,8,10,12,1,15,5,2,13"
14977,commdev-image-keyboard-response,133,1680483,learnblock1,998.5,img/planet15_left.png,15,Community 3,NA,TRUE,f,f,NA,NA,NA,1,6,"14,7,11,3,9,6,4,8,10,12,1,15,5,2,13"
14977,commdev-image-keyboard-response,134,1681749,learnblock1,808.2999999523163,img/planet5_right.png,5,Community 3,NA,TRUE,j,j,NA,NA,NA,1,6,"14,7,11,3,9,6,4,8,10,12,1,15,5,2,13"
14977,commdev-image-keyboard-response,135,1683002,learnblock1,749.6999999880791,img/planet13_left.png,13,Community 3,NA,TRUE,f,f,NA,NA,NA,1,6,"14,7,11,3,9,6,4,8,10,12,1,15,5,2,13"
14977,commdev-image-keyboard-response,136,1684254,learnblock1,665.1999999880791,img/planet2_right.png,2,Community 3,NA,TRUE,j,j,NA,NA,NA,1,6,"14,7,11,3,9,6,4,8,10,12,1,15,5,2,13"
14977,commdev-image-keyboard-response,137,1685506,learnblock1,781.5,img/planet5_right.png,5,Community 3,NA,TRUE,j,j,NA,NA,NA,1,6,"14,7,11,3,9,6,4,8,10,12,1,15,5,2,13"
14977,commdev-image-keyboard-response,138,1686758,learnblock1,665.2999999523163,img/planet2_left.png,2,Community 3,NA,TRUE,f,f,NA,NA,NA,1,6,"14,7,11,3,9,6,4,8,10,12,1,15,5,2,13"
14977,commdev-image-keyboard-response,139,1688010,learnblock1,733.4000000357628,img/planet5_left.png,5,Community 3,NA,FALSE,j,f,NA,NA,NA,1,6,"14,7,11,3,9,6,4,8,10,12,1,15,5,2,13"
14977,commdev-image-keyboard-response,140,1689262,learnblock1,737.5,img/planet2_left.png,2,Community 3,NA,TRUE,f,f,NA,NA,NA,1,6,"14,7,11,3,9,6,4,8,10,12,1,15,5,2,13"
14977,commdev-image-keyboard-response,141,1690514,learnblock1,701.6000000238419,img/planet15_right.png,15,Community 3,NA,TRUE,j,j,NA,NA,NA,1,6,"14,7,11,3,9,6,4,8,10,12,1,15,5,2,13"
14977,commdev-image-keyboard-response,142,1691766,learnblock1,817.1000000238419,img/planet5_right.png,5,Community 3,NA,TRUE,j,j,NA,NA,NA,1,6,"14,7,11,3,9,6,4,8,10,12,1,15,5,2,13"
14977,commdev-image-keyboard-response,143,1693019,learnblock1,685.1999999880791,img/planet2_left.png,2,Community 3,NA,TRUE,f,f,NA,NA,NA,1,6,"14,7,11,3,9,6,4,8,10,12,1,15,5,2,13"
14977,commdev-image-keyboard-response,144,1694272,learnblock1,736.1999999880791,img/planet13_right.png,13,Community 3,NA,TRUE,j,j,NA,NA,NA,1,6,"14,7,11,3,9,6,4,8,10,12,1,15,5,2,13"
14977,commdev-image-keyboard-response,145,1695524,learnblock1,603.1999999880791,img/planet15_left.png,15,Community 3,NA,TRUE,f,f,NA,NA,NA,1,6,"14,7,11,3,9,6,4,8,10,12,1,15,5,2,13"
14977,commdev-image-keyboard-response,146,1696776,learnblock1,655,img/planet2_left.png,2,Community 3,NA,TRUE,f,f,NA,NA,NA,1,6,"14,7,11,3,9,6,4,8,10,12,1,15,5,2,13"
14977,commdev-image-keyboard-response,147,1698029,learnblock1,754.7999999523163,img/planet13_left.png,13,Community 3,NA,TRUE,f,f,NA,NA,NA,1,6,"14,7,11,3,9,6,4,8,10,12,1,15,5,2,13"
14977,commdev-image-keyboard-response,148,1699281,learnblock1,702.4000000357628,img/planet5_left.png,5,Community 3,NA,TRUE,f,f,NA,NA,NA,1,6,"14,7,11,3,9,6,4,8,10,12,1,15,5,2,13"
14977,commdev-image-keyboard-response,149,1700533,learnblock1,657.8000000119209,img/planet13_right.png,13,Community 3,NA,TRUE,j,j,NA,NA,NA,1,6,"14,7,11,3,9,6,4,8,10,12,1,15,5,2,13"
14977,commdev-image-keyboard-response,150,1701785,learnblock1,558.3000000119209,img/planet5_left.png,5,Community 3,NA,TRUE,f,f,NA,NA,NA,1,6,"14,7,11,3,9,6,4,8,10,12,1,15,5,2,13"
14977,commdev-image-keyboard-response,151,1703037,learnblock1,626.1999999880791,img/planet15_right.png,15,Community 3,NA,TRUE,j,j,NA,NA,NA,1,6,"14,7,11,3,9,6,4,8,10,12,1,15,5,2,13"
14977,commdev-image-keyboard-response,152,1704289,learnblock1,494.2999999523163,img/planet13_left.png,13,Community 3,NA,TRUE,f,f,NA,NA,NA,1,6,"14,7,11,3,9,6,4,8,10,12,1,15,5,2,13"
14977,commdev-image-keyboard-response,153,1705541,learnblock1,674.3000000119209,img/planet2_right.png,2,Community 3,NA,TRUE,j,j,NA,NA,NA,1,6,"14,7,11,3,9,6,4,8,10,12,1,15,5,2,13"
14977,commdev-image-keyboard-response,154,1706793,learnblock1,726,img/planet13_right.png,13,Community 3,NA,TRUE,j,j,NA,NA,NA,1,6,"14,7,11,3,9,6,4,8,10,12,1,15,5,2,13"
14977,commdev-image-keyboard-response,155,1708044,learnblock1,650,img/planet2_left.png,2,Community 3,NA,TRUE,f,f,NA,NA,NA,1,6,"14,7,11,3,9,6,4,8,10,12,1,15,5,2,13"
14977,commdev-image-keyboard-response,156,1709296,learnblock1,910.8999999761581,img/planet15_left.png,15,Community 3,NA,TRUE,f,f,NA,NA,NA,1,6,"14,7,11,3,9,6,4,8,10,12,1,15,5,2,13"
14977,commdev-image-keyboard-response,157,1710548,learnblock1,931.0999999642372,img/planet2_left.png,2,Community 3,NA,TRUE,f,f,NA,NA,NA,1,6,"14,7,11,3,9,6,4,8,10,12,1,15,5,2,13"
14977,commdev-image-keyboard-response,158,1711801,learnblock1,847.3000000119209,img/planet13_left.png,13,Community 3,NA,TRUE,f,f,NA,NA,NA,1,6,"14,7,11,3,9,6,4,8,10,12,1,15,5,2,13"
14977,commdev-image-keyboard-response,159,1713052,learnblock1,754.2999999523163,img/planet5_left.png,5,Community 3,NA,TRUE,f,f,NA,NA,NA,1,6,"14,7,11,3,9,6,4,8,10,12,1,15,5,2,13"
14977,commdev-image-keyboard-response,160,1714304,learnblock1,638.4000000357628,img/planet1_right.png,1,Community 3,NA,TRUE,j,j,NA,NA,NA,1,6,"14,7,11,3,9,6,4,8,10,12,1,15,5,2,13"
14977,commdev-image-keyboard-response,161,1715556,learnblock1,690.9000000357628,img/planet5_right.png,5,Community 3,NA,TRUE,j,j,NA,NA,NA,1,6,"14,7,11,3,9,6,4,8,10,12,1,15,5,2,13"
14977,commdev-image-keyboard-response,162,1716808,learnblock1,639.1000000238419,img/planet13_left.png,13,Community 3,NA,TRUE,f,f,NA,NA,NA,1,6,"14,7,11,3,9,6,4,8,10,12,1,15,5,2,13"
14977,commdev-image-keyboard-response,163,1718060,learnblock1,803.3999999761581,img/planet1_left.png,1,Community 3,NA,TRUE,f,f,NA,NA,NA,1,6,"14,7,11,3,9,6,4,8,10,12,1,15,5,2,13"
14977,commdev-image-keyboard-response,164,1719312,learnblock1,670.6999999880791,img/planet5_right.png,5,Community 3,NA,TRUE,j,j,NA,NA,NA,1,6,"14,7,11,3,9,6,4,8,10,12,1,15,5,2,13"
14977,commdev-image-keyboard-response,165,1720564,learnblock1,594.5999999642372,img/planet2_left.png,2,Community 3,NA,TRUE,f,f,NA,NA,NA,1,6,"14,7,11,3,9,6,4,8,10,12,1,15,5,2,13"
14977,commdev-image-keyboard-response,166,1721816,learnblock1,727.2999999523163,img/planet5_left.png,5,Community 3,NA,TRUE,f,f,NA,NA,NA,1,6,"14,7,11,3,9,6,4,8,10,12,1,15,5,2,13"
14977,commdev-image-keyboard-response,167,1723067,learnblock1,747.9000000357628,img/planet13_left.png,13,Community 3,NA,TRUE,f,f,NA,NA,NA,1,6,"14,7,11,3,9,6,4,8,10,12,1,15,5,2,13"
14977,commdev-image-keyboard-response,168,1724320,learnblock1,615.8000000119209,img/planet15_right.png,15,Community 3,NA,TRUE,j,j,NA,NA,NA,1,6,"14,7,11,3,9,6,4,8,10,12,1,15,5,2,13"
14977,commdev-image-keyboard-response,169,1725572,learnblock1,1059.3999999761581,img/planet8_right.png,8,Community 2,NA,TRUE,j,j,NA,NA,NA,1,6,"14,7,11,3,9,6,4,8,10,12,1,15,5,2,13"
14977,commdev-image-keyboard-response,170,1726824,learnblock1,846.8000000119209,img/planet12_left.png,12,Community 2,NA,TRUE,f,f,NA,NA,NA,1,6,"14,7,11,3,9,6,4,8,10,12,1,15,5,2,13"
14977,commdev-image-keyboard-response,171,1728076,learnblock1,875.0999999642372,img/planet4_left.png,4,Community 2,NA,TRUE,f,f,NA,NA,NA,1,6,"14,7,11,3,9,6,4,8,10,12,1,15,5,2,13"
14977,commdev-image-keyboard-response,172,1729328,learnblock1,694.8999999761581,img/planet12_left.png,12,Community 2,NA,TRUE,f,f,NA,NA,NA,1,6,"14,7,11,3,9,6,4,8,10,12,1,15,5,2,13"
14977,commdev-image-keyboard-response,173,1730573,learnblock1,618.8000000119209,img/planet4_right.png,4,Community 2,NA,TRUE,j,j,NA,NA,NA,1,6,"14,7,11,3,9,6,4,8,10,12,1,15,5,2,13"
14977,commdev-image-keyboard-response,174,1731825,learnblock1,861.6999999880791,img/planet12_right.png,12,Community 2,NA,TRUE,j,j,NA,NA,NA,1,6,"14,7,11,3,9,6,4,8,10,12,1,15,5,2,13"
14977,commdev-image-keyboard-response,175,1733076,learnblock1,1098.6000000238419,img/planet4_right.png,4,Community 2,NA,TRUE,j,j,NA,NA,NA,1,6,"14,7,11,3,9,6,4,8,10,12,1,15,5,2,13"
14977,commdev-image-keyboard-response,176,1734328,learnblock1,783,img/planet10_left.png,10,Community 2,NA,TRUE,f,f,NA,NA,NA,1,6,"14,7,11,3,9,6,4,8,10,12,1,15,5,2,13"
14977,commdev-image-keyboard-response,177,1735580,learnblock1,818.6000000238419,img/planet6_right.png,6,Community 2,NA,TRUE,j,j,NA,NA,NA,1,6,"14,7,11,3,9,6,4,8,10,12,1,15,5,2,13"
14977,commdev-image-keyboard-response,178,1736832,learnblock1,982.3000000119209,img/planet3_left.png,3,Community 1,NA,TRUE,f,f,NA,NA,NA,1,6,"14,7,11,3,9,6,4,8,10,12,1,15,5,2,13"
14977,commdev-image-keyboard-response,179,1738085,learnblock1,986.3000000119209,img/planet14_right.png,14,Community 1,NA,TRUE,j,j,NA,NA,NA,1,6,"14,7,11,3,9,6,4,8,10,12,1,15,5,2,13"
14977,commdev-image-keyboard-response,180,1739337,learnblock1,758.1999999880791,img/planet9_left.png,9,Community 1,NA,TRUE,f,f,NA,NA,NA,1,6,"14,7,11,3,9,6,4,8,10,12,1,15,5,2,13"
14977,commdev-image-keyboard-response,181,1740589,learnblock1,1122.2000000476837,img/planet1_right.png,1,Community 3,NA,TRUE,j,j,NA,NA,NA,1,6,"14,7,11,3,9,6,4,8,10,12,1,15,5,2,13"
14977,commdev-image-keyboard-response,182,1741841,learnblock1,677.8999999761581,img/planet9_left.png,9,Community 1,NA,TRUE,f,f,NA,NA,NA,1,6,"14,7,11,3,9,6,4,8,10,12,1,15,5,2,13"
14977,commdev-image-keyboard-response,183,1743094,learnblock1,657.3999999761581,img/planet14_right.png,14,Community 1,NA,TRUE,j,j,NA,NA,NA,1,6,"14,7,11,3,9,6,4,8,10,12,1,15,5,2,13"
14977,commdev-image-keyboard-response,184,1744346,learnblock1,758.4000000357628,img/planet11_left.png,11,Community 1,NA,TRUE,f,f,NA,NA,NA,1,6,"14,7,11,3,9,6,4,8,10,12,1,15,5,2,13"
14977,commdev-image-keyboard-response,185,1745598,learnblock1,728.6000000238419,img/planet9_left.png,9,Community 1,NA,TRUE,f,f,NA,NA,NA,1,6,"14,7,11,3,9,6,4,8,10,12,1,15,5,2,13"
14977,commdev-image-keyboard-response,186,1746849,learnblock1,628.6000000238419,img/planet11_left.png,11,Community 1,NA,TRUE,f,f,NA,NA,NA,1,6,"14,7,11,3,9,6,4,8,10,12,1,15,5,2,13"
14977,commdev-image-keyboard-response,187,1748101,learnblock1,697.3000000119209,img/planet9_left.png,9,Community 1,NA,TRUE,f,f,NA,NA,NA,1,6,"14,7,11,3,9,6,4,8,10,12,1,15,5,2,13"
14977,commdev-image-keyboard-response,188,1749354,learnblock1,813.8000000119209,img/planet11_right.png,11,Community 1,NA,TRUE,j,j,NA,NA,NA,1,6,"14,7,11,3,9,6,4,8,10,12,1,15,5,2,13"
14977,commdev-image-keyboard-response,189,1750605,learnblock1,897.1999999880791,img/planet14_left.png,14,Community 1,NA,TRUE,f,f,NA,NA,NA,1,6,"14,7,11,3,9,6,4,8,10,12,1,15,5,2,13"
14977,commdev-image-keyboard-response,190,1751857,learnblock1,null,img/planet3_right.png,3,Community 1,NA,FALSE,null,j,NA,NA,NA,1,6,"14,7,11,3,9,6,4,8,10,12,1,15,5,2,13"
14977,commdev-image-keyboard-response,191,1753109,learnblock1,818.5,img/planet11_left.png,11,Community 1,NA,TRUE,f,f,NA,NA,NA,1,6,"14,7,11,3,9,6,4,8,10,12,1,15,5,2,13"
14977,commdev-image-keyboard-response,192,1754360,learnblock1,871.3000000119209,img/planet14_left.png,14,Community 1,NA,FALSE,j,f,NA,NA,NA,1,6,"14,7,11,3,9,6,4,8,10,12,1,15,5,2,13"
14977,commdev-image-keyboard-response,193,1755611,learnblock1,739,img/planet11_right.png,11,Community 1,NA,FALSE,f,j,NA,NA,NA,1,6,"14,7,11,3,9,6,4,8,10,12,1,15,5,2,13"
14977,commdev-image-keyboard-response,194,1756863,learnblock1,967.1000000238419,img/planet14_right.png,14,Community 1,NA,TRUE,j,j,NA,NA,NA,1,6,"14,7,11,3,9,6,4,8,10,12,1,15,5,2,13"
14977,commdev-image-keyboard-response,195,1758116,learnblock1,787.1999999880791,img/planet9_left.png,9,Community 1,NA,TRUE,f,f,NA,NA,NA,1,6,"14,7,11,3,9,6,4,8,10,12,1,15,5,2,13"
14977,commdev-image-keyboard-response,196,1759367,learnblock1,775.3000000119209,img/planet11_right.png,11,Community 1,NA,TRUE,j,j,NA,NA,NA,1,6,"14,7,11,3,9,6,4,8,10,12,1,15,5,2,13"
14977,commdev-image-keyboard-response,197,1760619,learnblock1,803.3999999761581,img/planet3_left.png,3,Community 1,NA,TRUE,f,f,NA,NA,NA,1,6,"14,7,11,3,9,6,4,8,10,12,1,15,5,2,13"
14977,commdev-image-keyboard-response,198,1761870,learnblock1,872.1000000238419,img/planet11_left.png,11,Community 1,NA,TRUE,f,f,NA,NA,NA,1,6,"14,7,11,3,9,6,4,8,10,12,1,15,5,2,13"
14977,commdev-image-keyboard-response,199,1763123,learnblock1,740.5,img/planet9_right.png,9,Community 1,NA,TRUE,j,j,NA,NA,NA,1,6,"14,7,11,3,9,6,4,8,10,12,1,15,5,2,13"
14977,commdev-image-keyboard-response,200,1764376,learnblock1,927.8999999761581,img/planet14_left.png,14,Community 1,NA,TRUE,f,f,NA,NA,NA,1,6,"14,7,11,3,9,6,4,8,10,12,1,15,5,2,13"
14977,commdev-image-keyboard-response,201,1765628,learnblock1,762.8000000119209,img/planet11_right.png,11,Community 1,NA,TRUE,j,j,NA,NA,NA,1,6,"14,7,11,3,9,6,4,8,10,12,1,15,5,2,13"
14977,commdev-image-keyboard-response,202,1766880,learnblock1,831,img/planet7_left.png,7,Community 1,NA,TRUE,f,f,NA,NA,NA,1,6,"14,7,11,3,9,6,4,8,10,12,1,15,5,2,13"
14977,commdev-image-keyboard-response,203,1768132,learnblock1,610.6000000238419,img/planet9_right.png,9,Community 1,NA,TRUE,j,j,NA,NA,NA,1,6,"14,7,11,3,9,6,4,8,10,12,1,15,5,2,13"
14977,commdev-image-keyboard-response,204,1769384,learnblock1,782.8999999761581,img/planet11_left.png,11,Community 1,NA,FALSE,j,f,NA,NA,NA,1,6,"14,7,11,3,9,6,4,8,10,12,1,15,5,2,13"
14977,commdev-image-keyboard-response,205,1770636,learnblock1,962.8000000119209,img/planet7_right.png,7,Community 1,NA,TRUE,j,j,NA,NA,NA,1,6,"14,7,11,3,9,6,4,8,10,12,1,15,5,2,13"
14977,commdev-image-keyboard-response,206,1771900,learnblock1,1030.5,img/planet14_left.png,14,Community 1,NA,TRUE,f,f,NA,NA,NA,1,6,"14,7,11,3,9,6,4,8,10,12,1,15,5,2,13"
14977,commdev-image-keyboard-response,207,1773152,learnblock1,935,img/planet3_left.png,3,Community 1,NA,TRUE,f,f,NA,NA,NA,1,6,"14,7,11,3,9,6,4,8,10,12,1,15,5,2,13"
14977,commdev-image-keyboard-response,208,1774404,learnblock1,723,img/planet6_right.png,6,Community 2,NA,TRUE,j,j,NA,NA,NA,1,6,"14,7,11,3,9,6,4,8,10,12,1,15,5,2,13"
14977,commdev-image-keyboard-response,209,1775656,learnblock1,823,img/planet10_right.png,10,Community 2,NA,TRUE,j,j,NA,NA,NA,1,6,"14,7,11,3,9,6,4,8,10,12,1,15,5,2,13"
14977,commdev-image-keyboard-response,210,1776907,learnblock1,770.5999999642372,img/planet6_left.png,6,Community 2,NA,TRUE,f,f,NA,NA,NA,1,6,"14,7,11,3,9,6,4,8,10,12,1,15,5,2,13"
14977,commdev-image-keyboard-response,211,1778160,learnblock1,774.8999999761581,img/planet12_right.png,12,Community 2,NA,TRUE,j,j,NA,NA,NA,1,6,"14,7,11,3,9,6,4,8,10,12,1,15,5,2,13"
14977,commdev-image-keyboard-response,212,1779411,learnblock1,811.6000000238419,img/planet4_right.png,4,Community 2,NA,TRUE,j,j,NA,NA,NA,1,6,"14,7,11,3,9,6,4,8,10,12,1,15,5,2,13"
14977,commdev-image-keyboard-response,213,1780663,learnblock1,839.6000000238419,img/planet8_right.png,8,Community 2,NA,TRUE,j,j,NA,NA,NA,1,6,"14,7,11,3,9,6,4,8,10,12,1,15,5,2,13"
14977,commdev-image-keyboard-response,214,1781915,learnblock1,595.3000000119209,img/planet4_right.png,4,Community 2,NA,TRUE,j,j,NA,NA,NA,1,6,"14,7,11,3,9,6,4,8,10,12,1,15,5,2,13"
14977,commdev-image-keyboard-response,215,1783167,learnblock1,663.3000000119209,img/planet10_left.png,10,Community 2,NA,TRUE,f,f,NA,NA,NA,1,6,"14,7,11,3,9,6,4,8,10,12,1,15,5,2,13"
14977,commdev-image-keyboard-response,216,1784420,learnblock1,859.5,img/planet6_right.png,6,Community 2,NA,TRUE,j,j,NA,NA,NA,1,6,"14,7,11,3,9,6,4,8,10,12,1,15,5,2,13"
14977,commdev-image-keyboard-response,217,1785672,learnblock1,830.6000000238419,img/planet12_left.png,12,Community 2,NA,TRUE,f,f,NA,NA,NA,1,6,"14,7,11,3,9,6,4,8,10,12,1,15,5,2,13"
14977,commdev-image-keyboard-response,218,1786925,learnblock1,897.9000000357628,img/planet4_left.png,4,Community 2,NA,TRUE,f,f,NA,NA,NA,1,6,"14,7,11,3,9,6,4,8,10,12,1,15,5,2,13"
14977,commdev-image-keyboard-response,219,1788176,learnblock1,749.6000000238419,img/planet6_right.png,6,Community 2,NA,TRUE,j,j,NA,NA,NA,1,6,"14,7,11,3,9,6,4,8,10,12,1,15,5,2,13"
14977,commdev-image-keyboard-response,220,1789429,learnblock1,962.1000000238419,img/planet3_right.png,3,Community 1,NA,TRUE,j,j,NA,NA,NA,1,6,"14,7,11,3,9,6,4,8,10,12,1,15,5,2,13"
14977,commdev-image-keyboard-response,221,1790672,learnblock1,1077.800000011921,img/planet6_right.png,6,Community 2,NA,TRUE,j,j,NA,NA,NA,1,6,"14,7,11,3,9,6,4,8,10,12,1,15,5,2,13"
14977,commdev-image-keyboard-response,222,1791928,learnblock1,1050.3999999761581,img/planet12_right.png,12,Community 2,NA,TRUE,j,j,NA,NA,NA,1,6,"14,7,11,3,9,6,4,8,10,12,1,15,5,2,13"
14977,commdev-image-keyboard-response,223,1793180,learnblock1,841.5999999642372,img/planet4_left.png,4,Community 2,NA,TRUE,f,f,NA,NA,NA,1,6,"14,7,11,3,9,6,4,8,10,12,1,15,5,2,13"
14977,commdev-image-keyboard-response,224,1794432,learnblock1,814.1000000238419,img/planet8_left.png,8,Community 2,NA,TRUE,f,f,NA,NA,NA,1,6,"14,7,11,3,9,6,4,8,10,12,1,15,5,2,13"
14977,commdev-image-keyboard-response,225,1795684,learnblock1,898.6999999880791,img/planet10_left.png,10,Community 2,NA,TRUE,f,f,NA,NA,NA,1,6,"14,7,11,3,9,6,4,8,10,12,1,15,5,2,13"
14977,commdev-image-keyboard-response,226,1796936,learnblock1,733.7999999523163,img/planet4_right.png,4,Community 2,NA,TRUE,j,j,NA,NA,NA,1,6,"14,7,11,3,9,6,4,8,10,12,1,15,5,2,13"
14977,commdev-image-keyboard-response,227,1798189,learnblock1,617.5999999642372,img/planet6_right.png,6,Community 2,NA,TRUE,j,j,NA,NA,NA,1,6,"14,7,11,3,9,6,4,8,10,12,1,15,5,2,13"
14977,commdev-image-keyboard-response,228,1799441,learnblock1,749.1999999880791,img/planet12_right.png,12,Community 2,NA,TRUE,j,j,NA,NA,NA,1,6,"14,7,11,3,9,6,4,8,10,12,1,15,5,2,13"
14977,commdev-image-keyboard-response,229,1800692,learnblock1,737.3000000119209,img/planet8_left.png,8,Community 2,NA,TRUE,f,f,NA,NA,NA,1,6,"14,7,11,3,9,6,4,8,10,12,1,15,5,2,13"
14977,commdev-image-keyboard-response,230,1801945,learnblock1,717.3999999761581,img/planet10_left.png,10,Community 2,NA,TRUE,f,f,NA,NA,NA,1,6,"14,7,11,3,9,6,4,8,10,12,1,15,5,2,13"
14977,commdev-image-keyboard-response,231,1803197,learnblock1,601,img/planet12_right.png,12,Community 2,NA,TRUE,j,j,NA,NA,NA,1,6,"14,7,11,3,9,6,4,8,10,12,1,15,5,2,13"
14977,commdev-image-keyboard-response,232,1804449,learnblock1,700.3000000119209,img/planet6_left.png,6,Community 2,NA,TRUE,f,f,NA,NA,NA,1,6,"14,7,11,3,9,6,4,8,10,12,1,15,5,2,13"
14977,commdev-image-keyboard-response,233,1805701,learnblock1,800.4000000357628,img/planet3_left.png,3,Community 1,NA,TRUE,f,f,NA,NA,NA,1,6,"14,7,11,3,9,6,4,8,10,12,1,15,5,2,13"
14977,commdev-image-keyboard-response,234,1806953,learnblock1,725.3999999761581,img/planet6_left.png,6,Community 2,NA,TRUE,f,f,NA,NA,NA,1,6,"14,7,11,3,9,6,4,8,10,12,1,15,5,2,13"
14977,commdev-image-keyboard-response,235,1808206,learnblock1,688.5999999642372,img/planet12_right.png,12,Community 2,NA,TRUE,j,j,NA,NA,NA,1,6,"14,7,11,3,9,6,4,8,10,12,1,15,5,2,13"
14977,commdev-image-keyboard-response,236,1809458,learnblock1,772,img/planet10_right.png,10,Community 2,NA,FALSE,f,j,NA,NA,NA,1,6,"14,7,11,3,9,6,4,8,10,12,1,15,5,2,13"
14977,commdev-image-keyboard-response,237,1810709,learnblock1,919.8000000119209,img/planet4_right.png,4,Community 2,NA,TRUE,j,j,NA,NA,NA,1,6,"14,7,11,3,9,6,4,8,10,12,1,15,5,2,13"
14977,commdev-image-keyboard-response,238,1811972,learnblock1,756.3000000119209,img/planet12_right.png,12,Community 2,NA,TRUE,j,j,NA,NA,NA,1,6,"14,7,11,3,9,6,4,8,10,12,1,15,5,2,13"
14977,commdev-image-keyboard-response,239,1813224,learnblock1,878,img/planet10_right.png,10,Community 2,NA,TRUE,j,j,NA,NA,NA,1,6,"14,7,11,3,9,6,4,8,10,12,1,15,5,2,13"
14977,commdev-image-keyboard-response,240,1814475,learnblock1,761.9000000357628,img/planet4_left.png,4,Community 2,NA,TRUE,f,f,NA,NA,NA,1,6,"14,7,11,3,9,6,4,8,10,12,1,15,5,2,13"
14977,commdev-image-keyboard-response,241,1815727,learnblock1,798.3000000119209,img/planet12_right.png,12,Community 2,NA,TRUE,j,j,NA,NA,NA,1,6,"14,7,11,3,9,6,4,8,10,12,1,15,5,2,13"
14977,commdev-image-keyboard-response,242,1816979,learnblock1,803,img/planet6_right.png,6,Community 2,NA,TRUE,j,j,NA,NA,NA,1,6,"14,7,11,3,9,6,4,8,10,12,1,15,5,2,13"
14977,commdev-image-keyboard-response,243,1818231,learnblock1,782.5,img/planet12_left.png,12,Community 2,NA,TRUE,f,f,NA,NA,NA,1,6,"14,7,11,3,9,6,4,8,10,12,1,15,5,2,13"
14977,commdev-image-keyboard-response,244,1819484,learnblock1,722.2000000476837,img/planet8_right.png,8,Community 2,NA,TRUE,j,j,NA,NA,NA,1,6,"14,7,11,3,9,6,4,8,10,12,1,15,5,2,13"
14977,commdev-image-keyboard-response,245,1820736,learnblock1,653.5,img/planet4_left.png,4,Community 2,NA,TRUE,f,f,NA,NA,NA,1,6,"14,7,11,3,9,6,4,8,10,12,1,15,5,2,13"
14977,commdev-image-keyboard-response,246,1821987,learnblock1,722.1999999880791,img/planet10_right.png,10,Community 2,NA,TRUE,j,j,NA,NA,NA,1,6,"14,7,11,3,9,6,4,8,10,12,1,15,5,2,13"
14977,commdev-image-keyboard-response,247,1823239,learnblock1,886.7000000476837,img/planet4_right.png,4,Community 2,NA,TRUE,j,j,NA,NA,NA,1,6,"14,7,11,3,9,6,4,8,10,12,1,15,5,2,13"
14977,commdev-image-keyboard-response,248,1824491,learnblock1,834.5999999642372,img/planet6_left.png,6,Community 2,NA,TRUE,f,f,NA,NA,NA,1,6,"14,7,11,3,9,6,4,8,10,12,1,15,5,2,13"
14977,commdev-image-keyboard-response,249,1825749,learnblock1,742.5999999642372,img/planet12_right.png,12,Community 2,NA,TRUE,j,j,NA,NA,NA,1,6,"14,7,11,3,9,6,4,8,10,12,1,15,5,2,13"
14977,commdev-image-keyboard-response,250,1827002,learnblock1,780.5,img/planet4_right.png,4,Community 2,NA,TRUE,j,j,NA,NA,NA,1,6,"14,7,11,3,9,6,4,8,10,12,1,15,5,2,13"
14977,commdev-image-keyboard-response,251,1828254,learnblock1,688.3000000119209,img/planet6_left.png,6,Community 2,NA,TRUE,f,f,NA,NA,NA,1,6,"14,7,11,3,9,6,4,8,10,12,1,15,5,2,13"
14977,commdev-image-keyboard-response,252,1829506,learnblock1,851.6000000238419,img/planet3_left.png,3,Community 1,NA,TRUE,f,f,NA,NA,NA,1,6,"14,7,11,3,9,6,4,8,10,12,1,15,5,2,13"
14977,commdev-image-keyboard-response,253,1830761,learnblock1,831.6999999880791,img/planet7_right.png,7,Community 1,NA,TRUE,j,j,NA,NA,NA,1,6,"14,7,11,3,9,6,4,8,10,12,1,15,5,2,13"
14977,commdev-image-keyboard-response,254,1832026,learnblock1,784.5,img/planet9_left.png,9,Community 1,NA,FALSE,j,f,NA,NA,NA,1,6,"14,7,11,3,9,6,4,8,10,12,1,15,5,2,13"
14977,commdev-image-keyboard-response,255,1833278,learnblock1,904.1999999880791,img/planet1_left.png,1,Community 3,NA,TRUE,f,f,NA,NA,NA,1,6,"14,7,11,3,9,6,4,8,10,12,1,15,5,2,13"
14977,commdev-image-keyboard-response,256,1834530,learnblock1,739.8000000119209,img/planet9_right.png,9,Community 1,NA,TRUE,j,j,NA,NA,NA,1,6,"14,7,11,3,9,6,4,8,10,12,1,15,5,2,13"
14977,commdev-image-keyboard-response,257,1835782,learnblock1,728,img/planet1_left.png,1,Community 3,NA,TRUE,f,f,NA,NA,NA,1,6,"14,7,11,3,9,6,4,8,10,12,1,15,5,2,13"
14977,commdev-image-keyboard-response,258,1837034,learnblock1,812.1000000238419,img/planet13_left.png,13,Community 3,NA,TRUE,f,f,NA,NA,NA,1,6,"14,7,11,3,9,6,4,8,10,12,1,15,5,2,13"
14977,commdev-image-keyboard-response,259,1838286,learnblock1,1040,img/planet1_right.png,1,Community 3,NA,TRUE,j,j,NA,NA,NA,1,6,"14,7,11,3,9,6,4,8,10,12,1,15,5,2,13"
14977,commdev-image-keyboard-response,260,1839538,learnblock1,924.8000000119209,img/planet9_right.png,9,Community 1,NA,TRUE,j,j,NA,NA,NA,1,6,"14,7,11,3,9,6,4,8,10,12,1,15,5,2,13"
14977,commdev-image-keyboard-response,261,1840790,learnblock1,879.6999999880791,img/planet1_right.png,1,Community 3,NA,TRUE,j,j,NA,NA,NA,1,6,"14,7,11,3,9,6,4,8,10,12,1,15,5,2,13"
14977,commdev-image-keyboard-response,262,1842042,learnblock1,779.2999999523163,img/planet2_left.png,2,Community 3,NA,TRUE,f,f,NA,NA,NA,1,6,"14,7,11,3,9,6,4,8,10,12,1,15,5,2,13"
14977,commdev-image-keyboard-response,263,1843294,learnblock1,831.8000000119209,img/planet15_right.png,15,Community 3,NA,TRUE,j,j,NA,NA,NA,1,6,"14,7,11,3,9,6,4,8,10,12,1,15,5,2,13"
14977,commdev-image-keyboard-response,264,1844545,learnblock1,748.3000000119209,img/planet8_left.png,8,Community 2,NA,TRUE,f,f,NA,NA,NA,1,6,"14,7,11,3,9,6,4,8,10,12,1,15,5,2,13"
14977,commdev-image-keyboard-response,265,1845797,learnblock1,897.1000000238419,img/planet15_left.png,15,Community 3,NA,TRUE,f,f,NA,NA,NA,1,6,"14,7,11,3,9,6,4,8,10,12,1,15,5,2,13"
14977,commdev-image-keyboard-response,266,1847049,learnblock1,716.2000000476837,img/planet2_right.png,2,Community 3,NA,TRUE,j,j,NA,NA,NA,1,6,"14,7,11,3,9,6,4,8,10,12,1,15,5,2,13"
14977,commdev-image-keyboard-response,267,1848302,learnblock1,848.2000000476837,img/planet15_right.png,15,Community 3,NA,TRUE,j,j,NA,NA,NA,1,6,"14,7,11,3,9,6,4,8,10,12,1,15,5,2,13"
14977,commdev-image-keyboard-response,268,1849554,learnblock1,820.2999999523163,img/planet2_right.png,2,Community 3,NA,TRUE,j,j,NA,NA,NA,1,6,"14,7,11,3,9,6,4,8,10,12,1,15,5,2,13"
14977,commdev-image-keyboard-response,269,1850797,learnblock1,816.1000000238419,img/planet5_right.png,5,Community 3,NA,TRUE,j,j,NA,NA,NA,1,6,"14,7,11,3,9,6,4,8,10,12,1,15,5,2,13"
14977,commdev-image-keyboard-response,270,1852049,learnblock1,916.1000000238419,img/planet13_right.png,13,Community 3,NA,TRUE,j,j,NA,NA,NA,1,6,"14,7,11,3,9,6,4,8,10,12,1,15,5,2,13"
14977,commdev-image-keyboard-response,271,1853302,learnblock1,1200.300000011921,img/planet15_right.png,15,Community 3,NA,TRUE,j,j,NA,NA,NA,1,6,"14,7,11,3,9,6,4,8,10,12,1,15,5,2,13"
14977,commdev-image-keyboard-response,272,1854553,learnblock1,883.6000000238419,img/planet8_right.png,8,Community 2,NA,TRUE,j,j,NA,NA,NA,1,6,"14,7,11,3,9,6,4,8,10,12,1,15,5,2,13"
14977,commdev-image-keyboard-response,273,1855805,learnblock1,904,img/planet12_right.png,12,Community 2,NA,TRUE,j,j,NA,NA,NA,1,6,"14,7,11,3,9,6,4,8,10,12,1,15,5,2,13"
14977,commdev-image-keyboard-response,274,1857057,learnblock1,1139.5,img/planet4_right.png,4,Community 2,NA,TRUE,j,j,NA,NA,NA,1,6,"14,7,11,3,9,6,4,8,10,12,1,15,5,2,13"
14977,commdev-image-keyboard-response,275,1858309,learnblock1,903.5,img/planet6_left.png,6,Community 2,NA,TRUE,f,f,NA,NA,NA,1,6,"14,7,11,3,9,6,4,8,10,12,1,15,5,2,13"
14977,commdev-image-keyboard-response,276,1859561,learnblock1,1093.1000000238419,img/planet12_right.png,12,Community 2,NA,FALSE,f,j,NA,NA,NA,1,6,"14,7,11,3,9,6,4,8,10,12,1,15,5,2,13"
14977,commdev-image-keyboard-response,277,1860814,learnblock1,1007.8999999761581,img/planet6_right.png,6,Community 2,NA,TRUE,j,j,NA,NA,NA,1,6,"14,7,11,3,9,6,4,8,10,12,1,15,5,2,13"
14977,commdev-image-keyboard-response,278,1862069,learnblock1,1138.5,img/planet3_left.png,3,Community 1,NA,TRUE,f,f,NA,NA,NA,1,6,"14,7,11,3,9,6,4,8,10,12,1,15,5,2,13"
14977,commdev-image-keyboard-response,279,1863321,learnblock1,859.5,img/planet6_right.png,6,Community 2,NA,TRUE,j,j,NA,NA,NA,1,6,"14,7,11,3,9,6,4,8,10,12,1,15,5,2,13"
14977,commdev-image-keyboard-response,280,1864572,learnblock1,712.1000000238419,img/planet10_left.png,10,Community 2,NA,TRUE,f,f,NA,NA,NA,1,6,"14,7,11,3,9,6,4,8,10,12,1,15,5,2,13"
14977,commdev-image-keyboard-response,281,1865824,learnblock1,740.7999999523163,img/planet12_left.png,12,Community 2,NA,TRUE,f,f,NA,NA,NA,1,6,"14,7,11,3,9,6,4,8,10,12,1,15,5,2,13"
14977,commdev-image-keyboard-response,282,1867076,learnblock1,664.6999999880791,img/planet10_right.png,10,Community 2,NA,TRUE,j,j,NA,NA,NA,1,6,"14,7,11,3,9,6,4,8,10,12,1,15,5,2,13"
14977,commdev-image-keyboard-response,283,1868329,learnblock1,676.3000000119209,img/planet8_left.png,8,Community 2,NA,TRUE,f,f,NA,NA,NA,1,6,"14,7,11,3,9,6,4,8,10,12,1,15,5,2,13"
14977,commdev-image-keyboard-response,284,1869580,learnblock1,816.3999999761581,img/planet15_right.png,15,Community 3,NA,TRUE,j,j,NA,NA,NA,1,6,"14,7,11,3,9,6,4,8,10,12,1,15,5,2,13"
14977,commdev-image-keyboard-response,285,1870832,learnblock1,749.3999999761581,img/planet5_right.png,5,Community 3,NA,FALSE,f,j,NA,NA,NA,1,6,"14,7,11,3,9,6,4,8,10,12,1,15,5,2,13"
14977,commdev-image-keyboard-response,286,1872088,learnblock1,1241,img/planet1_right.png,1,Community 3,NA,TRUE,j,j,NA,NA,NA,1,6,"14,7,11,3,9,6,4,8,10,12,1,15,5,2,13"
14977,commdev-image-keyboard-response,287,1873353,learnblock1,665,img/planet2_left.png,2,Community 3,NA,TRUE,f,f,NA,NA,NA,1,6,"14,7,11,3,9,6,4,8,10,12,1,15,5,2,13"
14977,commdev-image-keyboard-response,288,1874605,learnblock1,800.1999999880791,img/planet13_right.png,13,Community 3,NA,TRUE,j,j,NA,NA,NA,1,6,"14,7,11,3,9,6,4,8,10,12,1,15,5,2,13"
14977,commdev-image-keyboard-response,289,1875858,learnblock1,867,img/planet1_right.png,1,Community 3,NA,TRUE,j,j,NA,NA,NA,1,6,"14,7,11,3,9,6,4,8,10,12,1,15,5,2,13"
14977,commdev-image-keyboard-response,290,1877110,learnblock1,934.3000000119209,img/planet5_left.png,5,Community 3,NA,TRUE,f,f,NA,NA,NA,1,6,"14,7,11,3,9,6,4,8,10,12,1,15,5,2,13"
14977,commdev-image-keyboard-response,291,1878361,learnblock1,850.7999999523163,img/planet15_left.png,15,Community 3,NA,FALSE,j,f,NA,NA,NA,1,6,"14,7,11,3,9,6,4,8,10,12,1,15,5,2,13"
14977,commdev-image-keyboard-response,292,1879616,learnblock1,951.3999999761581,img/planet8_right.png,8,Community 2,NA,FALSE,f,j,NA,NA,NA,1,6,"14,7,11,3,9,6,4,8,10,12,1,15,5,2,13"
14977,commdev-image-keyboard-response,293,1880867,learnblock1,920.8000000119209,img/planet10_right.png,10,Community 2,NA,TRUE,j,j,NA,NA,NA,1,6,"14,7,11,3,9,6,4,8,10,12,1,15,5,2,13"
14977,commdev-image-keyboard-response,294,1882121,learnblock1,821.6999999880791,img/planet12_left.png,12,Community 2,NA,TRUE,f,f,NA,NA,NA,1,6,"14,7,11,3,9,6,4,8,10,12,1,15,5,2,13"
14977,commdev-image-keyboard-response,295,1883373,learnblock1,952.0999999642372,img/planet6_left.png,6,Community 2,NA,TRUE,f,f,NA,NA,NA,1,6,"14,7,11,3,9,6,4,8,10,12,1,15,5,2,13"
14977,commdev-image-keyboard-response,296,1884626,learnblock1,788.3000000119209,img/planet12_right.png,12,Community 2,NA,TRUE,j,j,NA,NA,NA,1,6,"14,7,11,3,9,6,4,8,10,12,1,15,5,2,13"
14977,commdev-image-keyboard-response,297,1885878,learnblock1,855,img/planet6_right.png,6,Community 2,NA,TRUE,j,j,NA,NA,NA,1,6,"14,7,11,3,9,6,4,8,10,12,1,15,5,2,13"
14977,commdev-image-keyboard-response,298,1887130,learnblock1,658.8000000119209,img/planet10_left.png,10,Community 2,NA,TRUE,f,f,NA,NA,NA,1,6,"14,7,11,3,9,6,4,8,10,12,1,15,5,2,13"
14977,commdev-image-keyboard-response,299,1888382,learnblock1,918.5,img/planet12_left.png,12,Community 2,NA,TRUE,f,f,NA,NA,NA,1,6,"14,7,11,3,9,6,4,8,10,12,1,15,5,2,13"
14977,commdev-image-keyboard-response,300,1889633,learnblock1,691.1000000238419,img/planet10_left.png,10,Community 2,NA,TRUE,f,f,NA,NA,NA,1,6,"14,7,11,3,9,6,4,8,10,12,1,15,5,2,13"
14977,commdev-image-keyboard-response,301,1890885,learnblock1,823.5,img/planet8_left.png,8,Community 2,NA,TRUE,f,f,NA,NA,NA,1,6,"14,7,11,3,9,6,4,8,10,12,1,15,5,2,13"
14977,commdev-image-keyboard-response,302,1892137,learnblock1,676,img/planet10_left.png,10,Community 2,NA,TRUE,f,f,NA,NA,NA,1,6,"14,7,11,3,9,6,4,8,10,12,1,15,5,2,13"
14977,commdev-image-keyboard-response,303,1893389,learnblock1,696,img/planet4_right.png,4,Community 2,NA,TRUE,j,j,NA,NA,NA,1,6,"14,7,11,3,9,6,4,8,10,12,1,15,5,2,13"
14977,commdev-image-keyboard-response,304,1894641,learnblock1,563.5,img/planet12_left.png,12,Community 2,NA,TRUE,f,f,NA,NA,NA,1,6,"14,7,11,3,9,6,4,8,10,12,1,15,5,2,13"
14977,commdev-image-keyboard-response,305,1895903,learnblock1,647.5,img/planet10_left.png,10,Community 2,NA,TRUE,f,f,NA,NA,NA,1,6,"14,7,11,3,9,6,4,8,10,12,1,15,5,2,13"
14977,commdev-image-keyboard-response,306,1897156,learnblock1,609.5,img/planet6_left.png,6,Community 2,NA,TRUE,f,f,NA,NA,NA,1,6,"14,7,11,3,9,6,4,8,10,12,1,15,5,2,13"
14977,commdev-image-keyboard-response,307,1898408,learnblock1,852.8999999761581,img/planet3_right.png,3,Community 1,NA,TRUE,j,j,NA,NA,NA,1,6,"14,7,11,3,9,6,4,8,10,12,1,15,5,2,13"
14977,commdev-image-keyboard-response,308,1899661,learnblock1,904.5,img/planet14_left.png,14,Community 1,NA,TRUE,f,f,NA,NA,NA,1,6,"14,7,11,3,9,6,4,8,10,12,1,15,5,2,13"
14977,commdev-image-keyboard-response,309,1900912,learnblock1,1100.1000000238419,img/planet3_right.png,3,Community 1,NA,TRUE,j,j,NA,NA,NA,1,6,"14,7,11,3,9,6,4,8,10,12,1,15,5,2,13"
14977,commdev-image-keyboard-response,310,1902164,learnblock1,840.6000000238419,img/planet7_right.png,7,Community 1,NA,FALSE,f,j,NA,NA,NA,1,6,"14,7,11,3,9,6,4,8,10,12,1,15,5,2,13"
14977,commdev-image-keyboard-response,311,1903416,learnblock1,1108.5,img/planet3_right.png,3,Community 1,NA,TRUE,j,j,NA,NA,NA,1,6,"14,7,11,3,9,6,4,8,10,12,1,15,5,2,13"
14977,commdev-image-keyboard-response,312,1904668,learnblock1,760.4000000357628,img/planet6_left.png,6,Community 2,NA,TRUE,f,f,NA,NA,NA,1,6,"14,7,11,3,9,6,4,8,10,12,1,15,5,2,13"
14977,commdev-image-keyboard-response,313,1905920,learnblock1,692.5999999642372,img/planet10_right.png,10,Community 2,NA,TRUE,j,j,NA,NA,NA,1,6,"14,7,11,3,9,6,4,8,10,12,1,15,5,2,13"
14977,commdev-image-keyboard-response,314,1907172,learnblock1,632.8999999761581,img/planet6_right.png,6,Community 2,NA,FALSE,f,j,NA,NA,NA,1,6,"14,7,11,3,9,6,4,8,10,12,1,15,5,2,13"
14977,commdev-image-keyboard-response,315,1908437,learnblock1,1012.9000000357628,img/planet10_right.png,10,Community 2,NA,TRUE,j,j,NA,NA,NA,1,6,"14,7,11,3,9,6,4,8,10,12,1,15,5,2,13"
14977,commdev-image-keyboard-response,316,1909689,learnblock1,635.6000000238419,img/planet6_right.png,6,Community 2,NA,TRUE,j,j,NA,NA,NA,1,6,"14,7,11,3,9,6,4,8,10,12,1,15,5,2,13"
14977,commdev-image-keyboard-response,317,1910933,learnblock1,null,img/planet12_right.png,12,Community 2,NA,FALSE,null,j,NA,NA,NA,1,6,"14,7,11,3,9,6,4,8,10,12,1,15,5,2,13"
14977,commdev-image-keyboard-response,318,1912186,learnblock1,107.30000001192093,img/planet4_right.png,4,Community 2,NA,TRUE,j,j,NA,NA,NA,1,6,"14,7,11,3,9,6,4,8,10,12,1,15,5,2,13"
14977,commdev-image-keyboard-response,319,1913438,learnblock1,127.09999996423721,img/planet10_left.png,10,Community 2,NA,TRUE,f,f,NA,NA,NA,1,6,"14,7,11,3,9,6,4,8,10,12,1,15,5,2,13"
14977,commdev-image-keyboard-response,320,1914690,learnblock1,26.30000001192093,img/planet8_left.png,8,Community 2,NA,TRUE,f,f,NA,NA,NA,1,6,"14,7,11,3,9,6,4,8,10,12,1,15,5,2,13"
14977,commdev-image-keyboard-response,321,1915942,learnblock1,574.5,img/planet15_right.png,15,Community 3,NA,FALSE,f,j,NA,NA,NA,1,6,"14,7,11,3,9,6,4,8,10,12,1,15,5,2,13"
14977,commdev-image-keyboard-response,322,1917194,learnblock1,970.1999999880791,img/planet8_right.png,8,Community 2,NA,TRUE,j,j,NA,NA,NA,1,6,"14,7,11,3,9,6,4,8,10,12,1,15,5,2,13"
14977,commdev-image-keyboard-response,323,1918446,learnblock1,854.6999999880791,img/planet4_left.png,4,Community 2,NA,TRUE,f,f,NA,NA,NA,1,6,"14,7,11,3,9,6,4,8,10,12,1,15,5,2,13"
14977,commdev-image-keyboard-response,324,1919698,learnblock1,754.6999999880791,img/planet12_left.png,12,Community 2,NA,TRUE,f,f,NA,NA,NA,1,6,"14,7,11,3,9,6,4,8,10,12,1,15,5,2,13"
14977,commdev-image-keyboard-response,325,1920950,learnblock1,838.5,img/planet4_left.png,4,Community 2,NA,TRUE,f,f,NA,NA,NA,1,6,"14,7,11,3,9,6,4,8,10,12,1,15,5,2,13"
14977,commdev-image-keyboard-response,326,1922201,learnblock1,746.5999999642372,img/planet12_right.png,12,Community 2,NA,TRUE,j,j,NA,NA,NA,1,6,"14,7,11,3,9,6,4,8,10,12,1,15,5,2,13"
14977,commdev-image-keyboard-response,327,1923453,learnblock1,895.5,img/planet4_right.png,4,Community 2,NA,TRUE,j,j,NA,NA,NA,1,6,"14,7,11,3,9,6,4,8,10,12,1,15,5,2,13"
14977,commdev-image-keyboard-response,328,1924717,learnblock1,979.1999999880791,img/planet6_right.png,6,Community 2,NA,TRUE,j,j,NA,NA,NA,1,6,"14,7,11,3,9,6,4,8,10,12,1,15,5,2,13"
14977,commdev-image-keyboard-response,329,1925982,learnblock1,771.8000000119209,img/planet12_left.png,12,Community 2,NA,TRUE,f,f,NA,NA,NA,1,6,"14,7,11,3,9,6,4,8,10,12,1,15,5,2,13"
14977,commdev-image-keyboard-response,330,1927234,learnblock1,null,img/planet4_right.png,4,Community 2,NA,FALSE,null,j,NA,NA,NA,1,6,"14,7,11,3,9,6,4,8,10,12,1,15,5,2,13"
14977,commdev-image-keyboard-response,331,1928486,learnblock1,638.1999999880791,img/planet6_right.png,6,Community 2,NA,TRUE,j,j,NA,NA,NA,1,6,"14,7,11,3,9,6,4,8,10,12,1,15,5,2,13"
14977,commdev-image-keyboard-response,332,1929738,learnblock1,771.1999999880791,img/planet12_right.png,12,Community 2,NA,TRUE,j,j,NA,NA,NA,1,6,"14,7,11,3,9,6,4,8,10,12,1,15,5,2,13"
14977,commdev-image-keyboard-response,333,1930990,learnblock1,774.1999999880791,img/planet6_right.png,6,Community 2,NA,TRUE,j,j,NA,NA,NA,1,6,"14,7,11,3,9,6,4,8,10,12,1,15,5,2,13"
14977,commdev-image-keyboard-response,334,1932241,learnblock1,658.5,img/planet10_left.png,10,Community 2,NA,TRUE,f,f,NA,NA,NA,1,6,"14,7,11,3,9,6,4,8,10,12,1,15,5,2,13"
14977,commdev-image-keyboard-response,335,1933493,learnblock1,742.8000000119209,img/planet12_left.png,12,Community 2,NA,TRUE,f,f,NA,NA,NA,1,6,"14,7,11,3,9,6,4,8,10,12,1,15,5,2,13"
14977,commdev-image-keyboard-response,336,1934745,learnblock1,827,img/planet4_left.png,4,Community 2,NA,TRUE,f,f,NA,NA,NA,1,6,"14,7,11,3,9,6,4,8,10,12,1,15,5,2,13"
14977,commdev-image-keyboard-response,337,1935997,learnblock1,862.9000000357628,img/planet12_left.png,12,Community 2,NA,TRUE,f,f,NA,NA,NA,1,6,"14,7,11,3,9,6,4,8,10,12,1,15,5,2,13"
14977,commdev-image-keyboard-response,338,1937249,learnblock1,715,img/planet6_right.png,6,Community 2,NA,FALSE,f,j,NA,NA,NA,1,6,"14,7,11,3,9,6,4,8,10,12,1,15,5,2,13"
14977,commdev-image-keyboard-response,339,1938501,learnblock1,1031,img/planet12_right.png,12,Community 2,NA,TRUE,j,j,NA,NA,NA,1,6,"14,7,11,3,9,6,4,8,10,12,1,15,5,2,13"
14977,commdev-image-keyboard-response,340,1939754,learnblock1,914.7000000476837,img/planet4_left.png,4,Community 2,NA,FALSE,j,f,NA,NA,NA,1,6,"14,7,11,3,9,6,4,8,10,12,1,15,5,2,13"
14977,commdev-image-keyboard-response,341,1941005,learnblock1,1110.8999999761581,img/planet8_left.png,8,Community 2,NA,TRUE,f,f,NA,NA,NA,1,6,"14,7,11,3,9,6,4,8,10,12,1,15,5,2,13"
14977,commdev-image-keyboard-response,342,1942257,learnblock1,770.5,img/planet12_left.png,12,Community 2,NA,FALSE,j,f,NA,NA,NA,1,6,"14,7,11,3,9,6,4,8,10,12,1,15,5,2,13"
14977,commdev-image-keyboard-response,343,1943509,learnblock1,871.2000000476837,img/planet10_left.png,10,Community 2,NA,FALSE,j,f,NA,NA,NA,1,6,"14,7,11,3,9,6,4,8,10,12,1,15,5,2,13"
14977,commdev-image-keyboard-response,344,1944761,learnblock1,851.8000000119209,img/planet6_left.png,6,Community 2,NA,FALSE,j,f,NA,NA,NA,1,6,"14,7,11,3,9,6,4,8,10,12,1,15,5,2,13"
14977,commdev-image-keyboard-response,345,1946013,learnblock1,871.5999999642372,img/planet3_left.png,3,Community 1,NA,TRUE,f,f,NA,NA,NA,1,6,"14,7,11,3,9,6,4,8,10,12,1,15,5,2,13"
14977,commdev-image-keyboard-response,346,1947265,learnblock1,1003.3000000119209,img/planet7_left.png,7,Community 1,NA,TRUE,f,f,NA,NA,NA,1,6,"14,7,11,3,9,6,4,8,10,12,1,15,5,2,13"
14977,commdev-image-keyboard-response,347,1948517,learnblock1,null,img/planet14_right.png,14,Community 1,NA,FALSE,null,j,NA,NA,NA,1,6,"14,7,11,3,9,6,4,8,10,12,1,15,5,2,13"
14977,commdev-image-keyboard-response,348,1949769,learnblock1,19.5,img/planet9_left.png,9,Community 1,NA,FALSE,j,f,NA,NA,NA,1,6,"14,7,11,3,9,6,4,8,10,12,1,15,5,2,13"
14977,commdev-image-keyboard-response,349,1951020,learnblock1,1007.4000000357628,img/planet14_left.png,14,Community 1,NA,FALSE,j,f,NA,NA,NA,1,6,"14,7,11,3,9,6,4,8,10,12,1,15,5,2,13"
14977,commdev-image-keyboard-response,350,1952272,learnblock1,1123.800000011921,img/planet9_left.png,9,Community 1,NA,TRUE,f,f,NA,NA,NA,1,6,"14,7,11,3,9,6,4,8,10,12,1,15,5,2,13"
14977,commdev-image-keyboard-response,351,1953524,learnblock1,1040.2000000476837,img/planet7_right.png,7,Community 1,NA,FALSE,f,j,NA,NA,NA,1,6,"14,7,11,3,9,6,4,8,10,12,1,15,5,2,13"
14977,commdev-image-keyboard-response,352,1954776,learnblock1,924.8999999761581,img/planet14_left.png,14,Community 1,NA,FALSE,j,f,NA,NA,NA,1,6,"14,7,11,3,9,6,4,8,10,12,1,15,5,2,13"
14977,commdev-image-keyboard-response,353,1956028,learnblock1,912.0999999642372,img/planet7_left.png,7,Community 1,NA,FALSE,j,f,NA,NA,NA,1,6,"14,7,11,3,9,6,4,8,10,12,1,15,5,2,13"
14977,commdev-image-keyboard-response,354,1957280,learnblock1,779.9000000357628,img/planet11_right.png,11,Community 1,NA,FALSE,f,j,NA,NA,NA,1,6,"14,7,11,3,9,6,4,8,10,12,1,15,5,2,13"
14977,commdev-image-keyboard-response,355,1958533,learnblock1,1127.699999988079,img/planet14_left.png,14,Community 1,NA,TRUE,f,f,NA,NA,NA,1,6,"14,7,11,3,9,6,4,8,10,12,1,15,5,2,13"
14977,commdev-image-keyboard-response,356,1959784,learnblock1,867.3000000119209,img/planet7_left.png,7,Community 1,NA,TRUE,f,f,NA,NA,NA,1,6,"14,7,11,3,9,6,4,8,10,12,1,15,5,2,13"
14977,commdev-image-keyboard-response,357,1961047,learnblock1,863.6999999880791,img/planet14_right.png,14,Community 1,NA,FALSE,f,j,NA,NA,NA,1,6,"14,7,11,3,9,6,4,8,10,12,1,15,5,2,13"
14977,commdev-image-keyboard-response,358,1962300,learnblock1,984.5999999642372,img/planet9_right.png,9,Community 1,NA,TRUE,j,j,NA,NA,NA,1,6,"14,7,11,3,9,6,4,8,10,12,1,15,5,2,13"
14977,commdev-image-keyboard-response,359,1963552,learnblock1,1003.6000000238419,img/planet7_left.png,7,Community 1,NA,FALSE,j,f,NA,NA,NA,1,6,"14,7,11,3,9,6,4,8,10,12,1,15,5,2,13"
14977,commdev-image-keyboard-response,360,1964804,learnblock1,1136.699999988079,img/planet14_right.png,14,Community 1,NA,TRUE,j,j,NA,NA,NA,1,6,"14,7,11,3,9,6,4,8,10,12,1,15,5,2,13"
14977,commdev-image-keyboard-response,361,1966056,learnblock1,955.7999999523163,img/planet11_left.png,11,Community 1,NA,FALSE,j,f,NA,NA,NA,1,6,"14,7,11,3,9,6,4,8,10,12,1,15,5,2,13"
14977,commdev-image-keyboard-response,362,1967315,learnblock1,856.5,img/planet3_left.png,3,Community 1,NA,TRUE,f,f,NA,NA,NA,1,6,"14,7,11,3,9,6,4,8,10,12,1,15,5,2,13"
14977,commdev-image-keyboard-response,363,1968566,learnblock1,773.1999999880791,img/planet11_right.png,11,Community 1,NA,FALSE,f,j,NA,NA,NA,1,6,"14,7,11,3,9,6,4,8,10,12,1,15,5,2,13"
14977,commdev-image-keyboard-response,364,1969819,learnblock1,841.8999999761581,img/planet3_right.png,3,Community 1,NA,FALSE,f,j,NA,NA,NA,1,6,"14,7,11,3,9,6,4,8,10,12,1,15,5,2,13"
14977,commdev-image-keyboard-response,365,1971062,learnblock1,null,img/planet7_right.png,7,Community 1,NA,FALSE,null,j,NA,NA,NA,1,6,"14,7,11,3,9,6,4,8,10,12,1,15,5,2,13"
14977,commdev-image-keyboard-response,366,1972314,learnblock1,1.600000023841858,img/planet14_left.png,14,Community 1,NA,TRUE,f,f,NA,NA,NA,1,6,"14,7,11,3,9,6,4,8,10,12,1,15,5,2,13"
14977,commdev-image-keyboard-response,367,1973565,learnblock1,709.1999999880791,img/planet7_left.png,7,Community 1,NA,FALSE,j,f,NA,NA,NA,1,6,"14,7,11,3,9,6,4,8,10,12,1,15,5,2,13"
14977,commdev-image-keyboard-response,368,1974817,learnblock1,841.6999999880791,img/planet14_left.png,14,Community 1,NA,FALSE,j,f,NA,NA,NA,1,6,"14,7,11,3,9,6,4,8,10,12,1,15,5,2,13"
14977,commdev-image-keyboard-response,369,1976069,learnblock1,710.3000000119209,img/planet7_right.png,7,Community 1,NA,TRUE,j,j,NA,NA,NA,1,6,"14,7,11,3,9,6,4,8,10,12,1,15,5,2,13"
14977,commdev-image-keyboard-response,370,1977322,learnblock1,649.6999999880791,img/planet11_right.png,11,Community 1,NA,TRUE,j,j,NA,NA,NA,1,6,"14,7,11,3,9,6,4,8,10,12,1,15,5,2,13"
14977,commdev-image-keyboard-response,371,1978574,learnblock1,629.6999999880791,img/planet9_left.png,9,Community 1,NA,TRUE,f,f,NA,NA,NA,1,6,"14,7,11,3,9,6,4,8,10,12,1,15,5,2,13"
14977,commdev-image-keyboard-response,372,1979826,learnblock1,777.2999999523163,img/planet1_left.png,1,Community 3,NA,TRUE,f,f,NA,NA,NA,1,6,"14,7,11,3,9,6,4,8,10,12,1,15,5,2,13"
14977,commdev-image-keyboard-response,373,1981078,learnblock1,717.1000000238419,img/planet13_left.png,13,Community 3,NA,TRUE,f,f,NA,NA,NA,1,6,"14,7,11,3,9,6,4,8,10,12,1,15,5,2,13"
14977,commdev-image-keyboard-response,374,1982330,learnblock1,536.6999999880791,img/planet2_right.png,2,Community 3,NA,FALSE,f,j,NA,NA,NA,1,6,"14,7,11,3,9,6,4,8,10,12,1,15,5,2,13"
14977,commdev-image-keyboard-response,375,1983581,learnblock1,837.3999999761581,img/planet1_right.png,1,Community 3,NA,TRUE,j,j,NA,NA,NA,1,6,"14,7,11,3,9,6,4,8,10,12,1,15,5,2,13"
14977,commdev-image-keyboard-response,376,1984842,learnblock1,553.8999999761581,img/planet9_left.png,9,Community 1,NA,TRUE,f,f,NA,NA,NA,1,6,"14,7,11,3,9,6,4,8,10,12,1,15,5,2,13"
14977,commdev-image-keyboard-response,377,1986094,learnblock1,765.6999999880791,img/planet11_left.png,11,Community 1,NA,TRUE,f,f,NA,NA,NA,1,6,"14,7,11,3,9,6,4,8,10,12,1,15,5,2,13"
14977,commdev-image-keyboard-response,378,1987347,learnblock1,881.1999999880791,img/planet3_right.png,3,Community 1,NA,TRUE,j,j,NA,NA,NA,1,6,"14,7,11,3,9,6,4,8,10,12,1,15,5,2,13"
14977,commdev-image-keyboard-response,379,1988599,learnblock1,660.6999999880791,img/planet11_left.png,11,Community 1,NA,TRUE,f,f,NA,NA,NA,1,6,"14,7,11,3,9,6,4,8,10,12,1,15,5,2,13"
14977,commdev-image-keyboard-response,380,1989851,learnblock1,696.5,img/planet9_left.png,9,Community 1,NA,TRUE,f,f,NA,NA,NA,1,6,"14,7,11,3,9,6,4,8,10,12,1,15,5,2,13"
14977,commdev-image-keyboard-response,381,1991102,learnblock1,732.5999999642372,img/planet11_right.png,11,Community 1,NA,TRUE,j,j,NA,NA,NA,1,6,"14,7,11,3,9,6,4,8,10,12,1,15,5,2,13"
14977,commdev-image-keyboard-response,382,1992354,learnblock1,568.6999999880791,img/planet9_left.png,9,Community 1,NA,TRUE,f,f,NA,NA,NA,1,6,"14,7,11,3,9,6,4,8,10,12,1,15,5,2,13"
14977,commdev-image-keyboard-response,383,1993606,learnblock1,764.6999999880791,img/planet1_left.png,1,Community 3,NA,TRUE,f,f,NA,NA,NA,1,6,"14,7,11,3,9,6,4,8,10,12,1,15,5,2,13"
14977,commdev-image-keyboard-response,384,1994858,learnblock1,704.8999999761581,img/planet5_right.png,5,Community 3,NA,TRUE,j,j,NA,NA,NA,1,6,"14,7,11,3,9,6,4,8,10,12,1,15,5,2,13"
14977,commdev-image-keyboard-response,385,1996120,learnblock1,837.5,img/planet1_right.png,1,Community 3,NA,TRUE,j,j,NA,NA,NA,1,6,"14,7,11,3,9,6,4,8,10,12,1,15,5,2,13"
14977,commdev-image-keyboard-response,386,1997372,learnblock1,710.6999999880791,img/planet9_right.png,9,Community 1,NA,TRUE,j,j,NA,NA,NA,1,6,"14,7,11,3,9,6,4,8,10,12,1,15,5,2,13"
14977,commdev-image-keyboard-response,387,1998625,learnblock1,763.1000000238419,img/planet1_left.png,1,Community 3,NA,TRUE,f,f,NA,NA,NA,1,6,"14,7,11,3,9,6,4,8,10,12,1,15,5,2,13"
14977,commdev-image-keyboard-response,388,1999876,learnblock1,926.3000000119209,img/planet13_left.png,13,Community 3,NA,TRUE,f,f,NA,NA,NA,1,6,"14,7,11,3,9,6,4,8,10,12,1,15,5,2,13"
14977,commdev-image-keyboard-response,389,2001129,learnblock1,778.5999999642372,img/planet5_right.png,5,Community 3,NA,TRUE,j,j,NA,NA,NA,1,6,"14,7,11,3,9,6,4,8,10,12,1,15,5,2,13"
14977,commdev-image-keyboard-response,390,2002382,learnblock1,845.5,img/planet1_left.png,1,Community 3,NA,TRUE,f,f,NA,NA,NA,1,6,"14,7,11,3,9,6,4,8,10,12,1,15,5,2,13"
14977,commdev-image-keyboard-response,391,2003634,learnblock1,929.1999999880791,img/planet5_right.png,5,Community 3,NA,TRUE,j,j,NA,NA,NA,1,6,"14,7,11,3,9,6,4,8,10,12,1,15,5,2,13"
14977,commdev-image-keyboard-response,392,2004886,learnblock1,981.0999999642372,img/planet13_right.png,13,Community 3,NA,FALSE,f,j,NA,NA,NA,1,6,"14,7,11,3,9,6,4,8,10,12,1,15,5,2,13"
14977,commdev-image-keyboard-response,393,2006138,learnblock1,1081.300000011921,img/planet5_left.png,5,Community 3,NA,TRUE,f,f,NA,NA,NA,1,6,"14,7,11,3,9,6,4,8,10,12,1,15,5,2,13"
14977,commdev-image-keyboard-response,394,2007391,learnblock1,764.6999999880791,img/planet13_right.png,13,Community 3,NA,TRUE,j,j,NA,NA,NA,1,6,"14,7,11,3,9,6,4,8,10,12,1,15,5,2,13"
14977,commdev-image-keyboard-response,395,2008642,learnblock1,1080.800000011921,img/planet1_right.png,1,Community 3,NA,TRUE,j,j,NA,NA,NA,1,6,"14,7,11,3,9,6,4,8,10,12,1,15,5,2,13"
14977,commdev-image-keyboard-response,396,2009894,learnblock1,1149,img/planet2_left.png,2,Community 3,NA,TRUE,f,f,NA,NA,NA,1,6,"14,7,11,3,9,6,4,8,10,12,1,15,5,2,13"
14977,commdev-image-keyboard-response,397,2011146,learnblock1,816.5999999642372,img/planet1_right.png,1,Community 3,NA,TRUE,j,j,NA,NA,NA,1,6,"14,7,11,3,9,6,4,8,10,12,1,15,5,2,13"
14977,commdev-image-keyboard-response,398,2012398,learnblock1,653.3000000119209,img/planet9_left.png,9,Community 1,NA,TRUE,f,f,NA,NA,NA,1,6,"14,7,11,3,9,6,4,8,10,12,1,15,5,2,13"
14977,commdev-image-keyboard-response,399,2013650,learnblock1,840.8000000119209,img/planet1_right.png,1,Community 3,NA,TRUE,j,j,NA,NA,NA,1,6,"14,7,11,3,9,6,4,8,10,12,1,15,5,2,13"
14977,commdev-image-keyboard-response,400,2014902,learnblock1,1133.2999999523163,img/planet5_left.png,5,Community 3,NA,TRUE,f,f,NA,NA,NA,1,6,"14,7,11,3,9,6,4,8,10,12,1,15,5,2,13"
14977,commdev-image-keyboard-response,401,2016154,learnblock1,705.5,img/planet1_left.png,1,Community 3,NA,FALSE,j,f,NA,NA,NA,1,6,"14,7,11,3,9,6,4,8,10,12,1,15,5,2,13"
14977,commdev-image-keyboard-response,402,2017406,learnblock1,1125.699999988079,img/planet2_right.png,2,Community 3,NA,FALSE,f,j,NA,NA,NA,1,6,"14,7,11,3,9,6,4,8,10,12,1,15,5,2,13"
14977,commdev-image-keyboard-response,403,2018658,learnblock1,1225.699999988079,img/planet1_left.png,1,Community 3,NA,FALSE,j,f,NA,NA,NA,1,6,"14,7,11,3,9,6,4,8,10,12,1,15,5,2,13"
14977,commdev-image-keyboard-response,404,2019911,learnblock1,957.4000000357628,img/planet13_right.png,13,Community 3,NA,FALSE,f,j,NA,NA,NA,1,6,"14,7,11,3,9,6,4,8,10,12,1,15,5,2,13"
14977,commdev-image-keyboard-response,405,2021163,learnblock1,840.1999999880791,img/planet2_left.png,2,Community 3,NA,FALSE,j,f,NA,NA,NA,1,6,"14,7,11,3,9,6,4,8,10,12,1,15,5,2,13"
14977,commdev-image-keyboard-response,406,2022415,learnblock1,940.2000000476837,img/planet13_right.png,13,Community 3,NA,FALSE,f,j,NA,NA,NA,1,6,"14,7,11,3,9,6,4,8,10,12,1,15,5,2,13"
14977,commdev-image-keyboard-response,407,2023666,learnblock1,927.3999999761581,img/planet5_left.png,5,Community 3,NA,TRUE,f,f,NA,NA,NA,1,6,"14,7,11,3,9,6,4,8,10,12,1,15,5,2,13"
14977,commdev-image-keyboard-response,408,2024918,learnblock1,860.5,img/planet13_left.png,13,Community 3,NA,TRUE,f,f,NA,NA,NA,1,6,"14,7,11,3,9,6,4,8,10,12,1,15,5,2,13"
14977,commdev-image-keyboard-response,409,2026171,learnblock1,1032.4000000357628,img/planet2_right.png,2,Community 3,NA,FALSE,f,j,NA,NA,NA,1,6,"14,7,11,3,9,6,4,8,10,12,1,15,5,2,13"
14977,commdev-image-keyboard-response,410,2027423,learnblock1,1212.3999999761581,img/planet13_left.png,13,Community 3,NA,FALSE,j,f,NA,NA,NA,1,6,"14,7,11,3,9,6,4,8,10,12,1,15,5,2,13"
14977,commdev-image-keyboard-response,411,2028675,learnblock1,983.3000000119209,img/planet2_right.png,2,Community 3,NA,FALSE,f,j,NA,NA,NA,1,6,"14,7,11,3,9,6,4,8,10,12,1,15,5,2,13"
14977,commdev-image-keyboard-response,412,2029927,learnblock1,1115.5999999642372,img/planet5_right.png,5,Community 3,NA,FALSE,f,j,NA,NA,NA,1,6,"14,7,11,3,9,6,4,8,10,12,1,15,5,2,13"
14977,commdev-image-keyboard-response,413,2031172,learnblock1,1063.5,img/planet1_left.png,1,Community 3,NA,FALSE,j,f,NA,NA,NA,1,6,"14,7,11,3,9,6,4,8,10,12,1,15,5,2,13"
14977,commdev-image-keyboard-response,414,2032424,learnblock1,1195.3999999761581,img/planet5_right.png,5,Community 3,NA,TRUE,j,j,NA,NA,NA,1,6,"14,7,11,3,9,6,4,8,10,12,1,15,5,2,13"
14977,commdev-image-keyboard-response,415,2033675,learnblock1,967.3000000119209,img/planet13_right.png,13,Community 3,NA,TRUE,j,j,NA,NA,NA,1,6,"14,7,11,3,9,6,4,8,10,12,1,15,5,2,13"
14977,commdev-image-keyboard-response,416,2034927,learnblock1,1019.3999999761581,img/planet2_left.png,2,Community 3,NA,FALSE,j,f,NA,NA,NA,1,6,"14,7,11,3,9,6,4,8,10,12,1,15,5,2,13"
14977,commdev-image-keyboard-response,417,2036179,learnblock1,1184.0999999642372,img/planet5_right.png,5,Community 3,NA,TRUE,j,j,NA,NA,NA,1,6,"14,7,11,3,9,6,4,8,10,12,1,15,5,2,13"
14977,commdev-image-keyboard-response,421,2176530,learnblock2,892.6000000238419,img/planet14_left.png,14,Community 1,NA,TRUE,f,f,NA,NA,NA,1,6,"14,7,11,3,9,6,4,8,10,12,1,15,5,2,13"
14977,commdev-image-keyboard-response,422,2177782,learnblock2,680.2999999523163,img/planet7_right.png,7,Community 1,NA,TRUE,j,j,NA,NA,NA,1,6,"14,7,11,3,9,6,4,8,10,12,1,15,5,2,13"
14977,commdev-image-keyboard-response,423,2179034,learnblock2,676.5,img/planet3_left.png,3,Community 1,NA,FALSE,j,f,NA,NA,NA,1,6,"14,7,11,3,9,6,4,8,10,12,1,15,5,2,13"
14977,commdev-image-keyboard-response,424,2180289,learnblock2,761,img/planet11_left.png,11,Community 1,NA,TRUE,f,f,NA,NA,NA,1,6,"14,7,11,3,9,6,4,8,10,12,1,15,5,2,13"
14977,commdev-image-keyboard-response,425,2181541,learnblock2,609.6999999880791,img/planet9_left.png,9,Community 1,NA,TRUE,f,f,NA,NA,NA,1,6,"14,7,11,3,9,6,4,8,10,12,1,15,5,2,13"
14977,commdev-image-keyboard-response,426,2182793,learnblock2,645.7999999523163,img/planet1_left.png,1,Community 3,NA,TRUE,f,f,NA,NA,NA,1,6,"14,7,11,3,9,6,4,8,10,12,1,15,5,2,13"
14977,commdev-image-keyboard-response,427,2184045,learnblock2,529.5999999642372,img/planet5_left.png,5,Community 3,NA,TRUE,f,f,NA,NA,NA,1,6,"14,7,11,3,9,6,4,8,10,12,1,15,5,2,13"
14977,commdev-image-keyboard-response,428,2185297,learnblock2,533.1000000238419,img/planet13_right.png,13,Community 3,NA,TRUE,j,j,NA,NA,NA,1,6,"14,7,11,3,9,6,4,8,10,12,1,15,5,2,13"
14977,commdev-image-keyboard-response,429,2186550,learnblock2,586,img/planet2_right.png,2,Community 3,NA,TRUE,j,j,NA,NA,NA,1,6,"14,7,11,3,9,6,4,8,10,12,1,15,5,2,13"
14977,commdev-image-keyboard-response,430,2187802,learnblock2,564.1000000238419,img/planet5_right.png,5,Community 3,NA,TRUE,j,j,NA,NA,NA,1,6,"14,7,11,3,9,6,4,8,10,12,1,15,5,2,13"
14977,commdev-image-keyboard-response,431,2189054,learnblock2,632.5,img/planet2_right.png,2,Community 3,NA,TRUE,j,j,NA,NA,NA,1,6,"14,7,11,3,9,6,4,8,10,12,1,15,5,2,13"
14977,commdev-image-keyboard-response,432,2190306,learnblock2,652.5,img/planet13_left.png,13,Community 3,NA,TRUE,f,f,NA,NA,NA,1,6,"14,7,11,3,9,6,4,8,10,12,1,15,5,2,13"
14977,commdev-image-keyboard-response,433,2191558,learnblock2,504.7999999523163,img/planet1_left.png,1,Community 3,NA,TRUE,f,f,NA,NA,NA,1,6,"14,7,11,3,9,6,4,8,10,12,1,15,5,2,13"
14977,commdev-image-keyboard-response,434,2192810,learnblock2,636.1999999880791,img/planet5_left.png,5,Community 3,NA,TRUE,f,f,NA,NA,NA,1,6,"14,7,11,3,9,6,4,8,10,12,1,15,5,2,13"
14977,commdev-image-keyboard-response,435,2194062,learnblock2,584.5,img/planet1_left.png,1,Community 3,NA,TRUE,f,f,NA,NA,NA,1,6,"14,7,11,3,9,6,4,8,10,12,1,15,5,2,13"
14977,commdev-image-keyboard-response,436,2195314,learnblock2,652.8999999761581,img/planet9_right.png,9,Community 1,NA,TRUE,j,j,NA,NA,NA,1,6,"14,7,11,3,9,6,4,8,10,12,1,15,5,2,13"
14977,commdev-image-keyboard-response,437,2196567,learnblock2,657.1000000238419,img/planet14_left.png,14,Community 1,NA,FALSE,j,f,NA,NA,NA,1,6,"14,7,11,3,9,6,4,8,10,12,1,15,5,2,13"
14977,commdev-image-keyboard-response,438,2197819,learnblock2,587.6999999880791,img/planet9_right.png,9,Community 1,NA,TRUE,j,j,NA,NA,NA,1,6,"14,7,11,3,9,6,4,8,10,12,1,15,5,2,13"
14977,commdev-image-keyboard-response,439,2199071,learnblock2,623.6999999880791,img/planet14_left.png,14,Community 1,NA,TRUE,f,f,NA,NA,NA,1,6,"14,7,11,3,9,6,4,8,10,12,1,15,5,2,13"
14977,commdev-image-keyboard-response,440,2200322,learnblock2,539.5,img/planet11_left.png,11,Community 1,NA,TRUE,f,f,NA,NA,NA,1,6,"14,7,11,3,9,6,4,8,10,12,1,15,5,2,13"
14977,commdev-image-keyboard-response,441,2201575,learnblock2,592.0999999642372,img/planet7_left.png,7,Community 1,NA,FALSE,j,f,NA,NA,NA,1,6,"14,7,11,3,9,6,4,8,10,12,1,15,5,2,13"
14977,commdev-image-keyboard-response,442,2202820,learnblock2,843.6000000238419,img/planet14_left.png,14,Community 1,NA,TRUE,f,f,NA,NA,NA,1,6,"14,7,11,3,9,6,4,8,10,12,1,15,5,2,13"
14977,commdev-image-keyboard-response,443,2204073,learnblock2,615.8999999761581,img/planet9_left.png,9,Community 1,NA,TRUE,f,f,NA,NA,NA,1,6,"14,7,11,3,9,6,4,8,10,12,1,15,5,2,13"
14977,commdev-image-keyboard-response,444,2205324,learnblock2,579.5,img/planet7_left.png,7,Community 1,NA,TRUE,f,f,NA,NA,NA,1,6,"14,7,11,3,9,6,4,8,10,12,1,15,5,2,13"
14977,commdev-image-keyboard-response,445,2206576,learnblock2,631.8000000119209,img/planet11_left.png,11,Community 1,NA,TRUE,f,f,NA,NA,NA,1,6,"14,7,11,3,9,6,4,8,10,12,1,15,5,2,13"
14977,commdev-image-keyboard-response,446,2207828,learnblock2,580.5,img/planet7_left.png,7,Community 1,NA,TRUE,f,f,NA,NA,NA,1,6,"14,7,11,3,9,6,4,8,10,12,1,15,5,2,13"
14977,commdev-image-keyboard-response,447,2209079,learnblock2,696.5,img/planet11_right.png,11,Community 1,NA,TRUE,j,j,NA,NA,NA,1,6,"14,7,11,3,9,6,4,8,10,12,1,15,5,2,13"
14977,commdev-image-keyboard-response,448,2210331,learnblock2,900.9000000357628,img/planet7_right.png,7,Community 1,NA,TRUE,j,j,NA,NA,NA,1,6,"14,7,11,3,9,6,4,8,10,12,1,15,5,2,13"
14977,commdev-image-keyboard-response,449,2211584,learnblock2,897,img/planet3_left.png,3,Community 1,NA,TRUE,f,f,NA,NA,NA,1,6,"14,7,11,3,9,6,4,8,10,12,1,15,5,2,13"
14977,commdev-image-keyboard-response,450,2212836,learnblock2,716.4000000357628,img/planet7_right.png,7,Community 1,NA,TRUE,j,j,NA,NA,NA,1,6,"14,7,11,3,9,6,4,8,10,12,1,15,5,2,13"
14977,commdev-image-keyboard-response,451,2214089,learnblock2,600.1999999880791,img/planet11_left.png,11,Community 1,NA,TRUE,f,f,NA,NA,NA,1,6,"14,7,11,3,9,6,4,8,10,12,1,15,5,2,13"
14977,commdev-image-keyboard-response,452,2215340,learnblock2,619.7999999523163,img/planet14_left.png,14,Community 1,NA,TRUE,f,f,NA,NA,NA,1,6,"14,7,11,3,9,6,4,8,10,12,1,15,5,2,13"
14977,commdev-image-keyboard-response,453,2216592,learnblock2,655.6999999880791,img/planet7_right.png,7,Community 1,NA,TRUE,j,j,NA,NA,NA,1,6,"14,7,11,3,9,6,4,8,10,12,1,15,5,2,13"
14977,commdev-image-keyboard-response,454,2217844,learnblock2,804.1000000238419,img/planet3_right.png,3,Community 1,NA,FALSE,f,j,NA,NA,NA,1,6,"14,7,11,3,9,6,4,8,10,12,1,15,5,2,13"
14977,commdev-image-keyboard-response,455,2219096,learnblock2,936.0999999642372,img/planet14_right.png,14,Community 1,NA,FALSE,f,j,NA,NA,NA,1,6,"14,7,11,3,9,6,4,8,10,12,1,15,5,2,13"
14977,commdev-image-keyboard-response,456,2220348,learnblock2,988,img/planet3_left.png,3,Community 1,NA,TRUE,f,f,NA,NA,NA,1,6,"14,7,11,3,9,6,4,8,10,12,1,15,5,2,13"
14977,commdev-image-keyboard-response,457,2221600,learnblock2,976.3999999761581,img/planet14_left.png,14,Community 1,NA,FALSE,j,f,NA,NA,NA,1,6,"14,7,11,3,9,6,4,8,10,12,1,15,5,2,13"
14977,commdev-image-keyboard-response,458,2222864,learnblock2,844.6999999880791,img/planet7_right.png,7,Community 1,NA,TRUE,j,j,NA,NA,NA,1,6,"14,7,11,3,9,6,4,8,10,12,1,15,5,2,13"
14977,commdev-image-keyboard-response,459,2224116,learnblock2,812.3000000119209,img/planet3_left.png,3,Community 1,NA,TRUE,f,f,NA,NA,NA,1,6,"14,7,11,3,9,6,4,8,10,12,1,15,5,2,13"
14977,commdev-image-keyboard-response,460,2225368,learnblock2,984.5,img/planet14_left.png,14,Community 1,NA,FALSE,j,f,NA,NA,NA,1,6,"14,7,11,3,9,6,4,8,10,12,1,15,5,2,13"
14977,commdev-image-keyboard-response,461,2226619,learnblock2,964.6000000238419,img/planet3_left.png,3,Community 1,NA,TRUE,f,f,NA,NA,NA,1,6,"14,7,11,3,9,6,4,8,10,12,1,15,5,2,13"
14977,commdev-image-keyboard-response,462,2227872,learnblock2,937.5,img/planet7_right.png,7,Community 1,NA,TRUE,j,j,NA,NA,NA,1,6,"14,7,11,3,9,6,4,8,10,12,1,15,5,2,13"
14977,commdev-image-keyboard-response,463,2229124,learnblock2,1132,img/planet14_right.png,14,Community 1,NA,TRUE,j,j,NA,NA,NA,1,6,"14,7,11,3,9,6,4,8,10,12,1,15,5,2,13"
14977,commdev-image-keyboard-response,464,2230376,learnblock2,736.5,img/planet11_left.png,11,Community 1,NA,TRUE,f,f,NA,NA,NA,1,6,"14,7,11,3,9,6,4,8,10,12,1,15,5,2,13"
14977,commdev-image-keyboard-response,465,2231628,learnblock2,971.8000000119209,img/planet7_left.png,7,Community 1,NA,TRUE,f,f,NA,NA,NA,1,6,"14,7,11,3,9,6,4,8,10,12,1,15,5,2,13"
14977,commdev-image-keyboard-response,466,2232881,learnblock2,1024,img/planet14_right.png,14,Community 1,NA,TRUE,j,j,NA,NA,NA,1,6,"14,7,11,3,9,6,4,8,10,12,1,15,5,2,13"
14977,commdev-image-keyboard-response,467,2234133,learnblock2,803.5,img/planet9_right.png,9,Community 1,NA,FALSE,f,j,NA,NA,NA,1,6,"14,7,11,3,9,6,4,8,10,12,1,15,5,2,13"
14977,commdev-image-keyboard-response,468,2235385,learnblock2,710.1999999880791,img/planet11_left.png,11,Community 1,NA,TRUE,f,f,NA,NA,NA,1,6,"14,7,11,3,9,6,4,8,10,12,1,15,5,2,13"
14977,commdev-image-keyboard-response,469,2236641,learnblock2,842.8999999761581,img/planet3_left.png,3,Community 1,NA,TRUE,f,f,NA,NA,NA,1,6,"14,7,11,3,9,6,4,8,10,12,1,15,5,2,13"
14977,commdev-image-keyboard-response,470,2237894,learnblock2,754.8000000119209,img/planet11_right.png,11,Community 1,NA,TRUE,j,j,NA,NA,NA,1,6,"14,7,11,3,9,6,4,8,10,12,1,15,5,2,13"
14977,commdev-image-keyboard-response,471,2239146,learnblock2,622.6000000238419,img/planet9_left.png,9,Community 1,NA,TRUE,f,f,NA,NA,NA,1,6,"14,7,11,3,9,6,4,8,10,12,1,15,5,2,13"
14977,commdev-image-keyboard-response,472,2240397,learnblock2,794.6000000238419,img/planet7_left.png,7,Community 1,NA,TRUE,f,f,NA,NA,NA,1,6,"14,7,11,3,9,6,4,8,10,12,1,15,5,2,13"
14977,commdev-image-keyboard-response,473,2241650,learnblock2,846.6000000238419,img/planet3_left.png,3,Community 1,NA,TRUE,f,f,NA,NA,NA,1,6,"14,7,11,3,9,6,4,8,10,12,1,15,5,2,13"
14977,commdev-image-keyboard-response,474,2242902,learnblock2,714.4000000357628,img/planet11_right.png,11,Community 1,NA,TRUE,j,j,NA,NA,NA,1,6,"14,7,11,3,9,6,4,8,10,12,1,15,5,2,13"
14977,commdev-image-keyboard-response,475,2244155,learnblock2,813.6000000238419,img/planet14_right.png,14,Community 1,NA,TRUE,j,j,NA,NA,NA,1,6,"14,7,11,3,9,6,4,8,10,12,1,15,5,2,13"
14977,commdev-image-keyboard-response,476,2245407,learnblock2,729.3999999761581,img/planet9_right.png,9,Community 1,NA,TRUE,j,j,NA,NA,NA,1,6,"14,7,11,3,9,6,4,8,10,12,1,15,5,2,13"
14977,commdev-image-keyboard-response,477,2246659,learnblock2,861.1000000238419,img/planet14_left.png,14,Community 1,NA,TRUE,f,f,NA,NA,NA,1,6,"14,7,11,3,9,6,4,8,10,12,1,15,5,2,13"
14977,commdev-image-keyboard-response,478,2247911,learnblock2,760.6999999880791,img/planet9_left.png,9,Community 1,NA,TRUE,f,f,NA,NA,NA,1,6,"14,7,11,3,9,6,4,8,10,12,1,15,5,2,13"
14977,commdev-image-keyboard-response,479,2249164,learnblock2,765.6000000238419,img/planet11_right.png,11,Community 1,NA,TRUE,j,j,NA,NA,NA,1,6,"14,7,11,3,9,6,4,8,10,12,1,15,5,2,13"
14977,commdev-image-keyboard-response,480,2250416,learnblock2,599.0999999642372,img/planet9_right.png,9,Community 1,NA,TRUE,j,j,NA,NA,NA,1,6,"14,7,11,3,9,6,4,8,10,12,1,15,5,2,13"
14977,commdev-image-keyboard-response,481,2251669,learnblock2,884,img/planet14_right.png,14,Community 1,NA,TRUE,j,j,NA,NA,NA,1,6,"14,7,11,3,9,6,4,8,10,12,1,15,5,2,13"
14977,commdev-image-keyboard-response,482,2252921,learnblock2,622.6999999880791,img/planet9_left.png,9,Community 1,NA,TRUE,f,f,NA,NA,NA,1,6,"14,7,11,3,9,6,4,8,10,12,1,15,5,2,13"
14977,commdev-image-keyboard-response,483,2254172,learnblock2,755,img/planet11_right.png,11,Community 1,NA,TRUE,j,j,NA,NA,NA,1,6,"14,7,11,3,9,6,4,8,10,12,1,15,5,2,13"
14977,commdev-image-keyboard-response,484,2255424,learnblock2,856,img/planet3_right.png,3,Community 1,NA,TRUE,j,j,NA,NA,NA,1,6,"14,7,11,3,9,6,4,8,10,12,1,15,5,2,13"
14977,commdev-image-keyboard-response,485,2256676,learnblock2,924.3999999761581,img/planet14_right.png,14,Community 1,NA,TRUE,j,j,NA,NA,NA,1,6,"14,7,11,3,9,6,4,8,10,12,1,15,5,2,13"
14977,commdev-image-keyboard-response,486,2257929,learnblock2,936.1999999880791,img/planet7_left.png,7,Community 1,NA,TRUE,f,f,NA,NA,NA,1,6,"14,7,11,3,9,6,4,8,10,12,1,15,5,2,13"
14977,commdev-image-keyboard-response,487,2259180,learnblock2,859.8999999761581,img/planet11_right.png,11,Community 1,NA,TRUE,j,j,NA,NA,NA,1,6,"14,7,11,3,9,6,4,8,10,12,1,15,5,2,13"
14977,commdev-image-keyboard-response,488,2260433,learnblock2,679.7000000476837,img/planet14_left.png,14,Community 1,NA,TRUE,f,f,NA,NA,NA,1,6,"14,7,11,3,9,6,4,8,10,12,1,15,5,2,13"
14977,commdev-image-keyboard-response,489,2261685,learnblock2,858.0999999642372,img/planet3_right.png,3,Community 1,NA,TRUE,j,j,NA,NA,NA,1,6,"14,7,11,3,9,6,4,8,10,12,1,15,5,2,13"
14977,commdev-image-keyboard-response,490,2262932,learnblock2,927.4000000357628,img/planet6_left.png,6,Community 2,NA,TRUE,f,f,NA,NA,NA,1,6,"14,7,11,3,9,6,4,8,10,12,1,15,5,2,13"
14977,commdev-image-keyboard-response,491,2264183,learnblock2,714.2999999523163,img/planet4_right.png,4,Community 2,NA,TRUE,j,j,NA,NA,NA,1,6,"14,7,11,3,9,6,4,8,10,12,1,15,5,2,13"
14977,commdev-image-keyboard-response,492,2265435,learnblock2,767,img/planet12_right.png,12,Community 2,NA,TRUE,j,j,NA,NA,NA,1,6,"14,7,11,3,9,6,4,8,10,12,1,15,5,2,13"
14977,commdev-image-keyboard-response,493,2266688,learnblock2,763,img/planet4_left.png,4,Community 2,NA,TRUE,f,f,NA,NA,NA,1,6,"14,7,11,3,9,6,4,8,10,12,1,15,5,2,13"
14977,commdev-image-keyboard-response,494,2267940,learnblock2,782,img/planet10_left.png,10,Community 2,NA,TRUE,f,f,NA,NA,NA,1,6,"14,7,11,3,9,6,4,8,10,12,1,15,5,2,13"
14977,commdev-image-keyboard-response,495,2269192,learnblock2,682.2999999523163,img/planet6_right.png,6,Community 2,NA,TRUE,j,j,NA,NA,NA,1,6,"14,7,11,3,9,6,4,8,10,12,1,15,5,2,13"
14977,commdev-image-keyboard-response,496,2270444,learnblock2,766.4000000357628,img/planet10_right.png,10,Community 2,NA,TRUE,j,j,NA,NA,NA,1,6,"14,7,11,3,9,6,4,8,10,12,1,15,5,2,13"
14977,commdev-image-keyboard-response,497,2271696,learnblock2,690.3999999761581,img/planet6_left.png,6,Community 2,NA,TRUE,f,f,NA,NA,NA,1,6,"14,7,11,3,9,6,4,8,10,12,1,15,5,2,13"
14977,commdev-image-keyboard-response,498,2272948,learnblock2,526,img/planet10_right.png,10,Community 2,NA,TRUE,j,j,NA,NA,NA,1,6,"14,7,11,3,9,6,4,8,10,12,1,15,5,2,13"
14977,commdev-image-keyboard-response,499,2274200,learnblock2,954.5999999642372,img/planet8_right.png,8,Community 2,NA,TRUE,j,j,NA,NA,NA,1,6,"14,7,11,3,9,6,4,8,10,12,1,15,5,2,13"
14977,commdev-image-keyboard-response,500,2275452,learnblock2,822.3000000119209,img/planet10_right.png,10,Community 2,NA,TRUE,j,j,NA,NA,NA,1,6,"14,7,11,3,9,6,4,8,10,12,1,15,5,2,13"
14977,commdev-image-keyboard-response,501,2276705,learnblock2,674,img/planet6_left.png,6,Community 2,NA,TRUE,f,f,NA,NA,NA,1,6,"14,7,11,3,9,6,4,8,10,12,1,15,5,2,13"
14977,commdev-image-keyboard-response,502,2277956,learnblock2,725.6999999880791,img/planet3_left.png,3,Community 1,NA,TRUE,f,f,NA,NA,NA,1,6,"14,7,11,3,9,6,4,8,10,12,1,15,5,2,13"
14977,commdev-image-keyboard-response,503,2279209,learnblock2,642.2000000476837,img/planet7_right.png,7,Community 1,NA,TRUE,j,j,NA,NA,NA,1,6,"14,7,11,3,9,6,4,8,10,12,1,15,5,2,13"
14977,commdev-image-keyboard-response,504,2280460,learnblock2,798.6999999880791,img/planet11_right.png,11,Community 1,NA,TRUE,j,j,NA,NA,NA,1,6,"14,7,11,3,9,6,4,8,10,12,1,15,5,2,13"
14977,commdev-image-keyboard-response,505,2281712,learnblock2,730.4000000357628,img/planet7_right.png,7,Community 1,NA,TRUE,j,j,NA,NA,NA,1,6,"14,7,11,3,9,6,4,8,10,12,1,15,5,2,13"
14977,commdev-image-keyboard-response,506,2282964,learnblock2,662,img/planet14_left.png,14,Community 1,NA,TRUE,f,f,NA,NA,NA,1,6,"14,7,11,3,9,6,4,8,10,12,1,15,5,2,13"
14977,commdev-image-keyboard-response,507,2284216,learnblock2,930.0999999642372,img/planet7_left.png,7,Community 1,NA,TRUE,f,f,NA,NA,NA,1,6,"14,7,11,3,9,6,4,8,10,12,1,15,5,2,13"
14977,commdev-image-keyboard-response,508,2285469,learnblock2,781.9000000357628,img/planet11_right.png,11,Community 1,NA,TRUE,j,j,NA,NA,NA,1,6,"14,7,11,3,9,6,4,8,10,12,1,15,5,2,13"
14977,commdev-image-keyboard-response,509,2286721,learnblock2,913.2999999523163,img/planet14_right.png,14,Community 1,NA,TRUE,j,j,NA,NA,NA,1,6,"14,7,11,3,9,6,4,8,10,12,1,15,5,2,13"
14977,commdev-image-keyboard-response,510,2287973,learnblock2,788.8999999761581,img/planet3_left.png,3,Community 1,NA,TRUE,f,f,NA,NA,NA,1,6,"14,7,11,3,9,6,4,8,10,12,1,15,5,2,13"
14977,commdev-image-keyboard-response,511,2289226,learnblock2,904.6000000238419,img/planet6_right.png,6,Community 2,NA,TRUE,j,j,NA,NA,NA,1,6,"14,7,11,3,9,6,4,8,10,12,1,15,5,2,13"
14977,commdev-image-keyboard-response,512,2290477,learnblock2,756.5,img/planet10_left.png,10,Community 2,NA,TRUE,f,f,NA,NA,NA,1,6,"14,7,11,3,9,6,4,8,10,12,1,15,5,2,13"
14977,commdev-image-keyboard-response,513,2291730,learnblock2,705.1000000238419,img/planet12_left.png,12,Community 2,NA,TRUE,f,f,NA,NA,NA,1,6,"14,7,11,3,9,6,4,8,10,12,1,15,5,2,13"
14977,commdev-image-keyboard-response,514,2292983,learnblock2,571.9000000357628,img/planet6_left.png,6,Community 2,NA,FALSE,j,f,NA,NA,NA,1,6,"14,7,11,3,9,6,4,8,10,12,1,15,5,2,13"
14977,commdev-image-keyboard-response,515,2294236,learnblock2,790.8000000119209,img/planet4_left.png,4,Community 2,NA,TRUE,f,f,NA,NA,NA,1,6,"14,7,11,3,9,6,4,8,10,12,1,15,5,2,13"
14977,commdev-image-keyboard-response,516,2295488,learnblock2,658.5999999642372,img/planet10_right.png,10,Community 2,NA,TRUE,j,j,NA,NA,NA,1,6,"14,7,11,3,9,6,4,8,10,12,1,15,5,2,13"
14977,commdev-image-keyboard-response,517,2296740,learnblock2,710,img/planet4_right.png,4,Community 2,NA,FALSE,f,j,NA,NA,NA,1,6,"14,7,11,3,9,6,4,8,10,12,1,15,5,2,13"
14977,commdev-image-keyboard-response,518,2297999,learnblock2,811,img/planet10_left.png,10,Community 2,NA,TRUE,f,f,NA,NA,NA,1,6,"14,7,11,3,9,6,4,8,10,12,1,15,5,2,13"
14977,commdev-image-keyboard-response,519,2299250,learnblock2,655.1000000238419,img/planet12_right.png,12,Community 2,NA,TRUE,j,j,NA,NA,NA,1,6,"14,7,11,3,9,6,4,8,10,12,1,15,5,2,13"
14977,commdev-image-keyboard-response,520,2300502,learnblock2,676.1999999880791,img/planet4_left.png,4,Community 2,NA,TRUE,f,f,NA,NA,NA,1,6,"14,7,11,3,9,6,4,8,10,12,1,15,5,2,13"
14977,commdev-image-keyboard-response,521,2301754,learnblock2,777.3999999761581,img/planet8_left.png,8,Community 2,NA,TRUE,f,f,NA,NA,NA,1,6,"14,7,11,3,9,6,4,8,10,12,1,15,5,2,13"
14977,commdev-image-keyboard-response,522,2303007,learnblock2,660.2000000476837,img/planet12_right.png,12,Community 2,NA,TRUE,j,j,NA,NA,NA,1,6,"14,7,11,3,9,6,4,8,10,12,1,15,5,2,13"
14977,commdev-image-keyboard-response,523,2304259,learnblock2,855.5,img/planet4_right.png,4,Community 2,NA,TRUE,j,j,NA,NA,NA,1,6,"14,7,11,3,9,6,4,8,10,12,1,15,5,2,13"
14977,commdev-image-keyboard-response,524,2305511,learnblock2,779,img/planet10_left.png,10,Community 2,NA,TRUE,f,f,NA,NA,NA,1,6,"14,7,11,3,9,6,4,8,10,12,1,15,5,2,13"
14977,commdev-image-keyboard-response,525,2306763,learnblock2,710.6999999880791,img/planet8_right.png,8,Community 2,NA,TRUE,j,j,NA,NA,NA,1,6,"14,7,11,3,9,6,4,8,10,12,1,15,5,2,13"
14977,commdev-image-keyboard-response,526,2308015,learnblock2,698.8000000119209,img/planet10_right.png,10,Community 2,NA,TRUE,j,j,NA,NA,NA,1,6,"14,7,11,3,9,6,4,8,10,12,1,15,5,2,13"
14977,commdev-image-keyboard-response,527,2309267,learnblock2,702.8000000119209,img/planet6_right.png,6,Community 2,NA,TRUE,j,j,NA,NA,NA,1,6,"14,7,11,3,9,6,4,8,10,12,1,15,5,2,13"
14977,commdev-image-keyboard-response,528,2310519,learnblock2,835.1000000238419,img/planet3_right.png,3,Community 1,NA,TRUE,j,j,NA,NA,NA,1,6,"14,7,11,3,9,6,4,8,10,12,1,15,5,2,13"
14977,commdev-image-keyboard-response,529,2311770,learnblock2,887.9000000357628,img/planet14_right.png,14,Community 1,NA,TRUE,j,j,NA,NA,NA,1,6,"14,7,11,3,9,6,4,8,10,12,1,15,5,2,13"
14977,commdev-image-keyboard-response,530,2313022,learnblock2,651.8000000119209,img/planet9_left.png,9,Community 1,NA,TRUE,f,f,NA,NA,NA,1,6,"14,7,11,3,9,6,4,8,10,12,1,15,5,2,13"
14977,commdev-image-keyboard-response,531,2314274,learnblock2,735.9000000357628,img/planet1_left.png,1,Community 3,NA,TRUE,f,f,NA,NA,NA,1,6,"14,7,11,3,9,6,4,8,10,12,1,15,5,2,13"
14977,commdev-image-keyboard-response,532,2315525,learnblock2,692,img/planet9_right.png,9,Community 1,NA,FALSE,f,j,NA,NA,NA,1,6,"14,7,11,3,9,6,4,8,10,12,1,15,5,2,13"
14977,commdev-image-keyboard-response,533,2316778,learnblock2,576.5,img/planet7_left.png,7,Community 1,NA,TRUE,f,f,NA,NA,NA,1,6,"14,7,11,3,9,6,4,8,10,12,1,15,5,2,13"
14977,commdev-image-keyboard-response,534,2318031,learnblock2,659.6000000238419,img/planet9_left.png,9,Community 1,NA,TRUE,f,f,NA,NA,NA,1,6,"14,7,11,3,9,6,4,8,10,12,1,15,5,2,13"
14977,commdev-image-keyboard-response,535,2319283,learnblock2,630.6999999880791,img/planet14_right.png,14,Community 1,NA,TRUE,j,j,NA,NA,NA,1,6,"14,7,11,3,9,6,4,8,10,12,1,15,5,2,13"
14977,commdev-image-keyboard-response,536,2320536,learnblock2,642.8000000119209,img/planet3_left.png,3,Community 1,NA,TRUE,f,f,NA,NA,NA,1,6,"14,7,11,3,9,6,4,8,10,12,1,15,5,2,13"
14977,commdev-image-keyboard-response,537,2321788,learnblock2,646,img/planet14_right.png,14,Community 1,NA,TRUE,j,j,NA,NA,NA,1,6,"14,7,11,3,9,6,4,8,10,12,1,15,5,2,13"
14977,commdev-image-keyboard-response,538,2323034,learnblock2,529.8999999761581,img/planet11_right.png,11,Community 1,NA,FALSE,f,j,NA,NA,NA,1,6,"14,7,11,3,9,6,4,8,10,12,1,15,5,2,13"
14977,commdev-image-keyboard-response,539,2324285,learnblock2,662.0999999642372,img/planet14_left.png,14,Community 1,NA,TRUE,f,f,NA,NA,NA,1,6,"14,7,11,3,9,6,4,8,10,12,1,15,5,2,13"
14977,commdev-image-keyboard-response,540,2325538,learnblock2,698.1999999880791,img/planet9_right.png,9,Community 1,NA,TRUE,j,j,NA,NA,NA,1,6,"14,7,11,3,9,6,4,8,10,12,1,15,5,2,13"
14977,commdev-image-keyboard-response,541,2326790,learnblock2,718.0999999642372,img/planet14_left.png,14,Community 1,NA,TRUE,f,f,NA,NA,NA,1,6,"14,7,11,3,9,6,4,8,10,12,1,15,5,2,13"
14977,commdev-image-keyboard-response,542,2328042,learnblock2,737.1999999880791,img/planet11_left.png,11,Community 1,NA,TRUE,f,f,NA,NA,NA,1,6,"14,7,11,3,9,6,4,8,10,12,1,15,5,2,13"
14977,commdev-image-keyboard-response,543,2329294,learnblock2,702,img/planet7_right.png,7,Community 1,NA,TRUE,j,j,NA,NA,NA,1,6,"14,7,11,3,9,6,4,8,10,12,1,15,5,2,13"
14977,commdev-image-keyboard-response,544,2330547,learnblock2,785.8000000119209,img/planet14_left.png,14,Community 1,NA,TRUE,f,f,NA,NA,NA,1,6,"14,7,11,3,9,6,4,8,10,12,1,15,5,2,13"
14977,commdev-image-keyboard-response,545,2331800,learnblock2,820.8000000119209,img/planet7_right.png,7,Community 1,NA,TRUE,j,j,NA,NA,NA,1,6,"14,7,11,3,9,6,4,8,10,12,1,15,5,2,13"
14977,commdev-image-keyboard-response,546,2333054,learnblock2,687.8000000119209,img/planet11_left.png,11,Community 1,NA,TRUE,f,f,NA,NA,NA,1,6,"14,7,11,3,9,6,4,8,10,12,1,15,5,2,13"
14977,commdev-image-keyboard-response,547,2334306,learnblock2,849.3000000119209,img/planet14_left.png,14,Community 1,NA,TRUE,f,f,NA,NA,NA,1,6,"14,7,11,3,9,6,4,8,10,12,1,15,5,2,13"
14977,commdev-image-keyboard-response,548,2335559,learnblock2,966,img/planet3_right.png,3,Community 1,NA,TRUE,j,j,NA,NA,NA,1,6,"14,7,11,3,9,6,4,8,10,12,1,15,5,2,13"
14977,commdev-image-keyboard-response,549,2336811,learnblock2,841.1000000238419,img/planet7_right.png,7,Community 1,NA,TRUE,j,j,NA,NA,NA,1,6,"14,7,11,3,9,6,4,8,10,12,1,15,5,2,13"
14977,commdev-image-keyboard-response,550,2338063,learnblock2,740.5999999642372,img/planet9_right.png,9,Community 1,NA,TRUE,j,j,NA,NA,NA,1,6,"14,7,11,3,9,6,4,8,10,12,1,15,5,2,13"
14977,commdev-image-keyboard-response,551,2339315,learnblock2,856.3000000119209,img/planet14_right.png,14,Community 1,NA,TRUE,j,j,NA,NA,NA,1,6,"14,7,11,3,9,6,4,8,10,12,1,15,5,2,13"
14977,commdev-image-keyboard-response,552,2340567,learnblock2,892.8000000119209,img/planet7_right.png,7,Community 1,NA,TRUE,j,j,NA,NA,NA,1,6,"14,7,11,3,9,6,4,8,10,12,1,15,5,2,13"
14977,commdev-image-keyboard-response,553,2341819,learnblock2,664.7000000476837,img/planet9_left.png,9,Community 1,NA,TRUE,f,f,NA,NA,NA,1,6,"14,7,11,3,9,6,4,8,10,12,1,15,5,2,13"
14977,commdev-image-keyboard-response,554,2343071,learnblock2,732.7000000476837,img/planet7_right.png,7,Community 1,NA,TRUE,j,j,NA,NA,NA,1,6,"14,7,11,3,9,6,4,8,10,12,1,15,5,2,13"
14977,commdev-image-keyboard-response,555,2344324,learnblock2,552.5,img/planet11_left.png,11,Community 1,NA,TRUE,f,f,NA,NA,NA,1,6,"14,7,11,3,9,6,4,8,10,12,1,15,5,2,13"
14977,commdev-image-keyboard-response,556,2345576,learnblock2,515.5,img/planet7_right.png,7,Community 1,NA,TRUE,j,j,NA,NA,NA,1,6,"14,7,11,3,9,6,4,8,10,12,1,15,5,2,13"
14977,commdev-image-keyboard-response,557,2346829,learnblock2,703.3000000119209,img/planet11_left.png,11,Community 1,NA,TRUE,f,f,NA,NA,NA,1,6,"14,7,11,3,9,6,4,8,10,12,1,15,5,2,13"
14977,commdev-image-keyboard-response,558,2348086,learnblock2,619.1000000238419,img/planet14_left.png,14,Community 1,NA,FALSE,j,f,NA,NA,NA,1,6,"14,7,11,3,9,6,4,8,10,12,1,15,5,2,13"
14977,commdev-image-keyboard-response,559,2349353,learnblock2,793.4000000357628,img/planet3_right.png,3,Community 1,NA,TRUE,j,j,NA,NA,NA,1,6,"14,7,11,3,9,6,4,8,10,12,1,15,5,2,13"
14977,commdev-image-keyboard-response,560,2350605,learnblock2,718.6000000238419,img/planet6_left.png,6,Community 2,NA,TRUE,f,f,NA,NA,NA,1,6,"14,7,11,3,9,6,4,8,10,12,1,15,5,2,13"
14977,commdev-image-keyboard-response,561,2351857,learnblock2,651.1000000238419,img/planet10_right.png,10,Community 2,NA,TRUE,j,j,NA,NA,NA,1,6,"14,7,11,3,9,6,4,8,10,12,1,15,5,2,13"
14977,commdev-image-keyboard-response,562,2353110,learnblock2,782.5,img/planet4_left.png,4,Community 2,NA,TRUE,f,f,NA,NA,NA,1,6,"14,7,11,3,9,6,4,8,10,12,1,15,5,2,13"
14977,commdev-image-keyboard-response,563,2354361,learnblock2,618.8000000119209,img/planet6_left.png,6,Community 2,NA,TRUE,f,f,NA,NA,NA,1,6,"14,7,11,3,9,6,4,8,10,12,1,15,5,2,13"
14977,commdev-image-keyboard-response,564,2355612,learnblock2,751.1000000238419,img/planet12_left.png,12,Community 2,NA,TRUE,f,f,NA,NA,NA,1,6,"14,7,11,3,9,6,4,8,10,12,1,15,5,2,13"
14977,commdev-image-keyboard-response,565,2356864,learnblock2,907.4000000357628,img/planet6_right.png,6,Community 2,NA,TRUE,j,j,NA,NA,NA,1,6,"14,7,11,3,9,6,4,8,10,12,1,15,5,2,13"
14977,commdev-image-keyboard-response,566,2358127,learnblock2,623.5,img/planet4_left.png,4,Community 2,NA,TRUE,f,f,NA,NA,NA,1,6,"14,7,11,3,9,6,4,8,10,12,1,15,5,2,13"
14977,commdev-image-keyboard-response,567,2359379,learnblock2,616.8999999761581,img/planet6_right.png,6,Community 2,NA,TRUE,j,j,NA,NA,NA,1,6,"14,7,11,3,9,6,4,8,10,12,1,15,5,2,13"
14977,commdev-image-keyboard-response,568,2360632,learnblock2,668.5999999642372,img/planet10_right.png,10,Community 2,NA,FALSE,f,j,NA,NA,NA,1,6,"14,7,11,3,9,6,4,8,10,12,1,15,5,2,13"
14977,commdev-image-keyboard-response,569,2361884,learnblock2,831.8000000119209,img/planet4_right.png,4,Community 2,NA,TRUE,j,j,NA,NA,NA,1,6,"14,7,11,3,9,6,4,8,10,12,1,15,5,2,13"
14977,commdev-image-keyboard-response,570,2363136,learnblock2,700.1000000238419,img/planet8_left.png,8,Community 2,NA,TRUE,f,f,NA,NA,NA,1,6,"14,7,11,3,9,6,4,8,10,12,1,15,5,2,13"
14977,commdev-image-keyboard-response,571,2364387,learnblock2,704.6000000238419,img/planet4_left.png,4,Community 2,NA,TRUE,f,f,NA,NA,NA,1,6,"14,7,11,3,9,6,4,8,10,12,1,15,5,2,13"
14977,commdev-image-keyboard-response,572,2365640,learnblock2,572.3000000119209,img/planet10_right.png,10,Community 2,NA,TRUE,j,j,NA,NA,NA,1,6,"14,7,11,3,9,6,4,8,10,12,1,15,5,2,13"
14977,commdev-image-keyboard-response,573,2366893,learnblock2,807.3999999761581,img/planet8_right.png,8,Community 2,NA,TRUE,j,j,NA,NA,NA,1,6,"14,7,11,3,9,6,4,8,10,12,1,15,5,2,13"
14977,commdev-image-keyboard-response,574,2368145,learnblock2,818.5,img/planet4_right.png,4,Community 2,NA,FALSE,f,j,NA,NA,NA,1,6,"14,7,11,3,9,6,4,8,10,12,1,15,5,2,13"
14977,commdev-image-keyboard-response,575,2369399,learnblock2,838.3999999761581,img/planet12_right.png,12,Community 2,NA,TRUE,j,j,NA,NA,NA,1,6,"14,7,11,3,9,6,4,8,10,12,1,15,5,2,13"
14977,commdev-image-keyboard-response,576,2370650,learnblock2,873,img/planet4_right.png,4,Community 2,NA,TRUE,j,j,NA,NA,NA,1,6,"14,7,11,3,9,6,4,8,10,12,1,15,5,2,13"
14977,commdev-image-keyboard-response,577,2371902,learnblock2,957.2999999523163,img/planet8_right.png,8,Community 2,NA,TRUE,j,j,NA,NA,NA,1,6,"14,7,11,3,9,6,4,8,10,12,1,15,5,2,13"
14977,commdev-image-keyboard-response,578,2373154,learnblock2,946,img/planet15_right.png,15,Community 3,NA,TRUE,j,j,NA,NA,NA,1,6,"14,7,11,3,9,6,4,8,10,12,1,15,5,2,13"
14977,commdev-image-keyboard-response,579,2374406,learnblock2,1030.3999999761581,img/planet2_right.png,2,Community 3,NA,TRUE,j,j,NA,NA,NA,1,6,"14,7,11,3,9,6,4,8,10,12,1,15,5,2,13"
14977,commdev-image-keyboard-response,580,2375659,learnblock2,993.0999999642372,img/planet1_left.png,1,Community 3,NA,TRUE,f,f,NA,NA,NA,1,6,"14,7,11,3,9,6,4,8,10,12,1,15,5,2,13"
14977,commdev-image-keyboard-response,581,2376911,learnblock2,796.5999999642372,img/planet13_left.png,13,Community 3,NA,TRUE,f,f,NA,NA,NA,1,6,"14,7,11,3,9,6,4,8,10,12,1,15,5,2,13"
14977,commdev-image-keyboard-response,582,2378163,learnblock2,728.5,img/planet5_left.png,5,Community 3,NA,TRUE,f,f,NA,NA,NA,1,6,"14,7,11,3,9,6,4,8,10,12,1,15,5,2,13"
14977,commdev-image-keyboard-response,583,2379414,learnblock2,733,img/planet15_right.png,15,Community 3,NA,FALSE,f,j,NA,NA,NA,1,6,"14,7,11,3,9,6,4,8,10,12,1,15,5,2,13"
14977,commdev-image-keyboard-response,584,2380666,learnblock2,785.5,img/planet13_left.png,13,Community 3,NA,TRUE,f,f,NA,NA,NA,1,6,"14,7,11,3,9,6,4,8,10,12,1,15,5,2,13"
14977,commdev-image-keyboard-response,585,2381918,learnblock2,868.1999999880791,img/planet5_left.png,5,Community 3,NA,TRUE,f,f,NA,NA,NA,1,6,"14,7,11,3,9,6,4,8,10,12,1,15,5,2,13"
14977,commdev-image-keyboard-response,586,2383164,learnblock2,857.1999999880791,img/planet13_right.png,13,Community 3,NA,TRUE,j,j,NA,NA,NA,1,6,"14,7,11,3,9,6,4,8,10,12,1,15,5,2,13"
14977,commdev-image-keyboard-response,587,2384416,learnblock2,709,img/planet2_left.png,2,Community 3,NA,TRUE,f,f,NA,NA,NA,1,6,"14,7,11,3,9,6,4,8,10,12,1,15,5,2,13"
14977,commdev-image-keyboard-response,588,2385668,learnblock2,721.5,img/planet13_left.png,13,Community 3,NA,TRUE,f,f,NA,NA,NA,1,6,"14,7,11,3,9,6,4,8,10,12,1,15,5,2,13"
14977,commdev-image-keyboard-response,589,2386920,learnblock2,789.1999999880791,img/planet15_left.png,15,Community 3,NA,FALSE,j,f,NA,NA,NA,1,6,"14,7,11,3,9,6,4,8,10,12,1,15,5,2,13"
14977,commdev-image-keyboard-response,590,2388172,learnblock2,841.2999999523163,img/planet8_right.png,8,Community 2,NA,TRUE,j,j,NA,NA,NA,1,6,"14,7,11,3,9,6,4,8,10,12,1,15,5,2,13"
14977,commdev-image-keyboard-response,591,2389425,learnblock2,877.1000000238419,img/planet10_right.png,10,Community 2,NA,TRUE,j,j,NA,NA,NA,1,6,"14,7,11,3,9,6,4,8,10,12,1,15,5,2,13"
14977,commdev-image-keyboard-response,592,2390677,learnblock2,848.1000000238419,img/planet12_right.png,12,Community 2,NA,TRUE,j,j,NA,NA,NA,1,6,"14,7,11,3,9,6,4,8,10,12,1,15,5,2,13"
14977,commdev-image-keyboard-response,593,2391930,learnblock2,764,img/planet4_right.png,4,Community 2,NA,TRUE,j,j,NA,NA,NA,1,6,"14,7,11,3,9,6,4,8,10,12,1,15,5,2,13"
14977,commdev-image-keyboard-response,594,2393182,learnblock2,615.3999999761581,img/planet8_right.png,8,Community 2,NA,TRUE,j,j,NA,NA,NA,1,6,"14,7,11,3,9,6,4,8,10,12,1,15,5,2,13"
14977,commdev-image-keyboard-response,595,2394434,learnblock2,667,img/planet12_right.png,12,Community 2,NA,TRUE,j,j,NA,NA,NA,1,6,"14,7,11,3,9,6,4,8,10,12,1,15,5,2,13"
14977,commdev-image-keyboard-response,596,2395686,learnblock2,751.3000000119209,img/planet6_right.png,6,Community 2,NA,TRUE,j,j,NA,NA,NA,1,6,"14,7,11,3,9,6,4,8,10,12,1,15,5,2,13"
14977,commdev-image-keyboard-response,597,2396938,learnblock2,651.3999999761581,img/planet4_left.png,4,Community 2,NA,TRUE,f,f,NA,NA,NA,1,6,"14,7,11,3,9,6,4,8,10,12,1,15,5,2,13"
14977,commdev-image-keyboard-response,598,2398191,learnblock2,655.8000000119209,img/planet12_left.png,12,Community 2,NA,TRUE,f,f,NA,NA,NA,1,6,"14,7,11,3,9,6,4,8,10,12,1,15,5,2,13"
14977,commdev-image-keyboard-response,599,2399443,learnblock2,770.8000000119209,img/planet6_right.png,6,Community 2,NA,TRUE,j,j,NA,NA,NA,1,6,"14,7,11,3,9,6,4,8,10,12,1,15,5,2,13"
14977,commdev-image-keyboard-response,600,2400695,learnblock2,885.7999999523163,img/planet10_left.png,10,Community 2,NA,TRUE,f,f,NA,NA,NA,1,6,"14,7,11,3,9,6,4,8,10,12,1,15,5,2,13"
14977,commdev-image-keyboard-response,601,2401948,learnblock2,721.9000000357628,img/planet8_right.png,8,Community 2,NA,TRUE,j,j,NA,NA,NA,1,6,"14,7,11,3,9,6,4,8,10,12,1,15,5,2,13"
14977,commdev-image-keyboard-response,602,2403200,learnblock2,629.8000000119209,img/planet10_right.png,10,Community 2,NA,FALSE,f,j,NA,NA,NA,1,6,"14,7,11,3,9,6,4,8,10,12,1,15,5,2,13"
14977,commdev-image-keyboard-response,603,2404452,learnblock2,809.1000000238419,img/planet8_right.png,8,Community 2,NA,TRUE,j,j,NA,NA,NA,1,6,"14,7,11,3,9,6,4,8,10,12,1,15,5,2,13"
14977,commdev-image-keyboard-response,604,2405705,learnblock2,628.9000000357628,img/planet12_left.png,12,Community 2,NA,TRUE,f,f,NA,NA,NA,1,6,"14,7,11,3,9,6,4,8,10,12,1,15,5,2,13"
14977,commdev-image-keyboard-response,605,2406957,learnblock2,608.5,img/planet4_right.png,4,Community 2,NA,TRUE,j,j,NA,NA,NA,1,6,"14,7,11,3,9,6,4,8,10,12,1,15,5,2,13"
14977,commdev-image-keyboard-response,606,2408209,learnblock2,692.6999999880791,img/planet12_right.png,12,Community 2,NA,TRUE,j,j,NA,NA,NA,1,6,"14,7,11,3,9,6,4,8,10,12,1,15,5,2,13"
14977,commdev-image-keyboard-response,607,2409462,learnblock2,710.8000000119209,img/planet6_right.png,6,Community 2,NA,FALSE,f,j,NA,NA,NA,1,6,"14,7,11,3,9,6,4,8,10,12,1,15,5,2,13"
14977,commdev-image-keyboard-response,608,2410714,learnblock2,747.5999999642372,img/planet12_left.png,12,Community 2,NA,TRUE,f,f,NA,NA,NA,1,6,"14,7,11,3,9,6,4,8,10,12,1,15,5,2,13"
14977,commdev-image-keyboard-response,609,2411966,learnblock2,942.8000000119209,img/planet4_left.png,4,Community 2,NA,FALSE,j,f,NA,NA,NA,1,6,"14,7,11,3,9,6,4,8,10,12,1,15,5,2,13"
14977,commdev-image-keyboard-response,610,2413218,learnblock2,946.8000000119209,img/planet6_left.png,6,Community 2,NA,TRUE,f,f,NA,NA,NA,1,6,"14,7,11,3,9,6,4,8,10,12,1,15,5,2,13"
14977,commdev-image-keyboard-response,611,2414471,learnblock2,686.6999999880791,img/planet12_right.png,12,Community 2,NA,TRUE,j,j,NA,NA,NA,1,6,"14,7,11,3,9,6,4,8,10,12,1,15,5,2,13"
14977,commdev-image-keyboard-response,612,2415723,learnblock2,618.3000000119209,img/planet8_left.png,8,Community 2,NA,TRUE,f,f,NA,NA,NA,1,6,"14,7,11,3,9,6,4,8,10,12,1,15,5,2,13"
14977,commdev-image-keyboard-response,613,2416975,learnblock2,654.8000000119209,img/planet12_left.png,12,Community 2,NA,TRUE,f,f,NA,NA,NA,1,6,"14,7,11,3,9,6,4,8,10,12,1,15,5,2,13"
14977,commdev-image-keyboard-response,614,2418226,learnblock2,690.4000000357628,img/planet6_left.png,6,Community 2,NA,TRUE,f,f,NA,NA,NA,1,6,"14,7,11,3,9,6,4,8,10,12,1,15,5,2,13"
14977,commdev-image-keyboard-response,615,2419478,learnblock2,807.1000000238419,img/planet3_right.png,3,Community 1,NA,TRUE,j,j,NA,NA,NA,1,6,"14,7,11,3,9,6,4,8,10,12,1,15,5,2,13"
14977,commdev-image-keyboard-response,616,2420731,learnblock2,842.8000000119209,img/planet14_right.png,14,Community 1,NA,TRUE,j,j,NA,NA,NA,1,6,"14,7,11,3,9,6,4,8,10,12,1,15,5,2,13"
14977,commdev-image-keyboard-response,617,2421982,learnblock2,822.5,img/planet7_left.png,7,Community 1,NA,TRUE,f,f,NA,NA,NA,1,6,"14,7,11,3,9,6,4,8,10,12,1,15,5,2,13"
14977,commdev-image-keyboard-response,618,2423235,learnblock2,691,img/planet9_left.png,9,Community 1,NA,TRUE,f,f,NA,NA,NA,1,6,"14,7,11,3,9,6,4,8,10,12,1,15,5,2,13"
14977,commdev-image-keyboard-response,619,2424487,learnblock2,774.2999999523163,img/planet14_right.png,14,Community 1,NA,TRUE,j,j,NA,NA,NA,1,6,"14,7,11,3,9,6,4,8,10,12,1,15,5,2,13"
14977,commdev-image-keyboard-response,620,2425738,learnblock2,978.5999999642372,img/planet3_right.png,3,Community 1,NA,TRUE,j,j,NA,NA,NA,1,6,"14,7,11,3,9,6,4,8,10,12,1,15,5,2,13"
14977,commdev-image-keyboard-response,621,2426990,learnblock2,895.1999999880791,img/planet11_left.png,11,Community 1,NA,TRUE,f,f,NA,NA,NA,1,6,"14,7,11,3,9,6,4,8,10,12,1,15,5,2,13"
14977,commdev-image-keyboard-response,622,2428243,learnblock2,665.5,img/planet9_left.png,9,Community 1,NA,TRUE,f,f,NA,NA,NA,1,6,"14,7,11,3,9,6,4,8,10,12,1,15,5,2,13"
14977,commdev-image-keyboard-response,623,2429494,learnblock2,782.5,img/planet7_right.png,7,Community 1,NA,TRUE,j,j,NA,NA,NA,1,6,"14,7,11,3,9,6,4,8,10,12,1,15,5,2,13"
14977,commdev-image-keyboard-response,624,2430747,learnblock2,1010.6000000238419,img/planet14_left.png,14,Community 1,NA,TRUE,f,f,NA,NA,NA,1,6,"14,7,11,3,9,6,4,8,10,12,1,15,5,2,13"
14977,commdev-image-keyboard-response,625,2432012,learnblock2,750.4000000357628,img/planet3_right.png,3,Community 1,NA,TRUE,j,j,NA,NA,NA,1,6,"14,7,11,3,9,6,4,8,10,12,1,15,5,2,13"
14977,commdev-image-keyboard-response,626,2433264,learnblock2,605.4000000357628,img/planet6_left.png,6,Community 2,NA,TRUE,f,f,NA,NA,NA,1,6,"14,7,11,3,9,6,4,8,10,12,1,15,5,2,13"
14977,commdev-image-keyboard-response,627,2434518,learnblock2,592.5,img/planet12_right.png,12,Community 2,NA,TRUE,j,j,NA,NA,NA,1,6,"14,7,11,3,9,6,4,8,10,12,1,15,5,2,13"
14977,commdev-image-keyboard-response,628,2435770,learnblock2,523.4000000357628,img/planet8_right.png,8,Community 2,NA,FALSE,f,j,NA,NA,NA,1,6,"14,7,11,3,9,6,4,8,10,12,1,15,5,2,13"
14977,commdev-image-keyboard-response,629,2437022,learnblock2,575.4000000357628,img/planet15_left.png,15,Community 3,NA,TRUE,f,f,NA,NA,NA,1,6,"14,7,11,3,9,6,4,8,10,12,1,15,5,2,13"
14977,commdev-image-keyboard-response,630,2438282,learnblock2,675.1000000238419,img/planet13_right.png,13,Community 3,NA,TRUE,j,j,NA,NA,NA,1,6,"14,7,11,3,9,6,4,8,10,12,1,15,5,2,13"
14977,commdev-image-keyboard-response,631,2439533,learnblock2,871.5,img/planet2_right.png,2,Community 3,NA,FALSE,f,j,NA,NA,NA,1,6,"14,7,11,3,9,6,4,8,10,12,1,15,5,2,13"
14977,commdev-image-keyboard-response,632,2440786,learnblock2,755.8999999761581,img/planet5_left.png,5,Community 3,NA,TRUE,f,f,NA,NA,NA,1,6,"14,7,11,3,9,6,4,8,10,12,1,15,5,2,13"
14977,commdev-image-keyboard-response,633,2442038,learnblock2,807.1000000238419,img/planet1_right.png,1,Community 3,NA,TRUE,j,j,NA,NA,NA,1,6,"14,7,11,3,9,6,4,8,10,12,1,15,5,2,13"
14977,commdev-image-keyboard-response,634,2443284,learnblock2,786.9000000357628,img/planet2_left.png,2,Community 3,NA,TRUE,f,f,NA,NA,NA,1,6,"14,7,11,3,9,6,4,8,10,12,1,15,5,2,13"
14977,commdev-image-keyboard-response,635,2444548,learnblock2,671.1999999880791,img/planet1_left.png,1,Community 3,NA,TRUE,f,f,NA,NA,NA,1,6,"14,7,11,3,9,6,4,8,10,12,1,15,5,2,13"
14977,commdev-image-keyboard-response,636,2445801,learnblock2,798.5,img/planet5_right.png,5,Community 3,NA,TRUE,j,j,NA,NA,NA,1,6,"14,7,11,3,9,6,4,8,10,12,1,15,5,2,13"
14977,commdev-image-keyboard-response,637,2447053,learnblock2,881.9000000357628,img/planet1_left.png,1,Community 3,NA,TRUE,f,f,NA,NA,NA,1,6,"14,7,11,3,9,6,4,8,10,12,1,15,5,2,13"
14977,commdev-image-keyboard-response,638,2448314,learnblock2,966.6000000238419,img/planet5_left.png,5,Community 3,NA,FALSE,j,f,NA,NA,NA,1,6,"14,7,11,3,9,6,4,8,10,12,1,15,5,2,13"
14977,commdev-image-keyboard-response,639,2449567,learnblock2,672.3999999761581,img/planet13_right.png,13,Community 3,NA,FALSE,f,j,NA,NA,NA,1,6,"14,7,11,3,9,6,4,8,10,12,1,15,5,2,13"
14977,commdev-image-keyboard-response,640,2450819,learnblock2,756.0999999642372,img/planet5_left.png,5,Community 3,NA,TRUE,f,f,NA,NA,NA,1,6,"14,7,11,3,9,6,4,8,10,12,1,15,5,2,13"
14977,commdev-image-keyboard-response,641,2452071,learnblock2,855.1999999880791,img/planet2_left.png,2,Community 3,NA,TRUE,f,f,NA,NA,NA,1,6,"14,7,11,3,9,6,4,8,10,12,1,15,5,2,13"
14977,commdev-image-keyboard-response,642,2453325,learnblock2,843.5,img/planet5_right.png,5,Community 3,NA,TRUE,j,j,NA,NA,NA,1,6,"14,7,11,3,9,6,4,8,10,12,1,15,5,2,13"
14977,commdev-image-keyboard-response,643,2454576,learnblock2,774.1999999880791,img/planet1_left.png,1,Community 3,NA,TRUE,f,f,NA,NA,NA,1,6,"14,7,11,3,9,6,4,8,10,12,1,15,5,2,13"
14977,commdev-image-keyboard-response,644,2455828,learnblock2,643,img/planet9_left.png,9,Community 1,NA,TRUE,f,f,NA,NA,NA,1,6,"14,7,11,3,9,6,4,8,10,12,1,15,5,2,13"
14977,commdev-image-keyboard-response,645,2457093,learnblock2,846.8000000119209,img/planet7_left.png,7,Community 1,NA,TRUE,f,f,NA,NA,NA,1,6,"14,7,11,3,9,6,4,8,10,12,1,15,5,2,13"
14977,commdev-image-keyboard-response,646,2458345,learnblock2,null,img/planet11_left.png,11,Community 1,NA,FALSE,null,f,NA,NA,NA,1,6,"14,7,11,3,9,6,4,8,10,12,1,15,5,2,13"
