subject_id,trial_type,trial_index,time_elapsed,block,rt,stimulus,planet,community,response,correct,key_press,learning_correct_response,parse,init_locations,final_locations,browser_interactions,num_comp,planet_map
14156,commdev-instructions,7,46266,NA,3099.7999999998137,"<p>In this game, you are a scientist on board a space shuttle. </p><p> On each mission, you will visit planets all across the universe.</p><img src=""img/controlroom.jpg"" width=300vw>",NA,NA,NA,NA,NA,NA,NA,NA,NA,NA,6,"9,12,13,1,14,11,8,3,2,15,6,4,7,5,10"
14156,commdev-instructions,8,50816,NA,2466.2999999998137,"<p>Here are a few planets you might see:</p><img src=""img/practice1.png"" width=200vw><img src=""img/practice2.png"" width=200vw><img src=""img/practice3.png"" width=200vw>",NA,NA,NA,NA,NA,NA,NA,NA,NA,NA,6,"9,12,13,1,14,11,8,3,2,15,6,4,7,5,10"
14156,commdev-instructions,9,59768,NA,1540.7999999998137,"<p>Your job as a scientist is to record which direction the winds are moving on each planet.</p><p>There are two types of wind directions:</p><img src=""img/practice1_left.png"" width=200vw><img src=""img/practice1_right.png"" width=200vw>",NA,NA,NA,NA,NA,NA,NA,NA,NA,NA,6,"9,12,13,1,14,11,8,3,2,15,6,4,7,5,10"
14156,commdev-instructions,10,65817,NA,1161.6000000000931,"<p>If the winds are moving this way, press the letter <strong>F</strong> on the keyboard as fast as you can.</p><img src=""img/leftwind.png"" width=250vw>",NA,NA,NA,NA,NA,NA,NA,NA,NA,NA,6,"9,12,13,1,14,11,8,3,2,15,6,4,7,5,10"
14156,commdev-instructions,11,71697,NA,1372,"<p>If the winds are moving this way, press the letter <strong>J</strong> on the keyboard as fast as you can.</p><img src=""img/rightwind.png"" width=350vw>",NA,NA,NA,NA,NA,NA,NA,NA,NA,NA,6,"9,12,13,1,14,11,8,3,2,15,6,4,7,5,10"
14156,commdev-instructions,12,77827,NA,1700.3999999999069,<p>You will have 1 second to respond. Try to respond before the time runs out!,NA,NA,NA,NA,NA,NA,NA,NA,NA,NA,6,"9,12,13,1,14,11,8,3,2,15,6,4,7,5,10"
14156,commdev-instructions,13,84343,NA,1072.3999999999069,<p>The planets you will visit will look different from each other.</p><p>You should respond <strong>only</strong> based on wind direction.,NA,NA,NA,NA,NA,NA,NA,NA,NA,NA,6,"9,12,13,1,14,11,8,3,2,15,6,4,7,5,10"
14156,commdev-instructions,14,91263,NA,1739.8000000002794,"<p> Ready to start the practice round? </p><p> Remember, press <strong>F</strong> or <strong>J</strong> depending on the wind direction.<br><img src=""img/categorize_planet_example.png""",NA,NA,NA,NA,NA,NA,NA,NA,NA,NA,6,"9,12,13,1,14,11,8,3,2,15,6,4,7,5,10"
14156,commdev-instructions,26,144729,NA,1862.1999999997206,"<p>Great, now try a short practice mission. </p><p> This time, you will have 1 second to respond and you won't know whether you pressed the right or wrong key for each planet.</p>",NA,NA,NA,NA,NA,NA,NA,NA,NA,NA,6,"9,12,13,1,14,11,8,3,2,15,6,4,7,5,10"
14156,commdev-image-keyboard-response,27,146087,practice,null,img/practice2_right.png,NA,Number not found in mappings,NA,FALSE,null,j,NA,NA,NA,NA,6,"9,12,13,1,14,11,8,3,2,15,6,4,7,5,10"
14156,commdev-image-keyboard-response,28,147343,practice,74.5,img/practice4_right.png,NA,Number not found in mappings,NA,TRUE,j,j,NA,NA,NA,NA,6,"9,12,13,1,14,11,8,3,2,15,6,4,7,5,10"
14156,commdev-image-keyboard-response,29,148601,practice,949.5,img/practice3_right.png,NA,Number not found in mappings,NA,TRUE,j,j,NA,NA,NA,NA,6,"9,12,13,1,14,11,8,3,2,15,6,4,7,5,10"
14156,commdev-image-keyboard-response,30,149859,practice,802.8999999999069,img/practice4_right.png,NA,Number not found in mappings,NA,TRUE,j,j,NA,NA,NA,NA,6,"9,12,13,1,14,11,8,3,2,15,6,4,7,5,10"
14156,commdev-image-keyboard-response,31,151112,practice,813.8999999999069,img/practice3_left.png,NA,Number not found in mappings,NA,TRUE,f,f,NA,NA,NA,NA,6,"9,12,13,1,14,11,8,3,2,15,6,4,7,5,10"
14156,commdev-image-keyboard-response,32,152368,practice,617.2999999998137,img/practice4_left.png,NA,Number not found in mappings,NA,TRUE,f,f,NA,NA,NA,NA,6,"9,12,13,1,14,11,8,3,2,15,6,4,7,5,10"
14156,commdev-image-keyboard-response,33,153622,practice,874.9000000003725,img/practice2_right.png,NA,Number not found in mappings,NA,TRUE,j,j,NA,NA,NA,NA,6,"9,12,13,1,14,11,8,3,2,15,6,4,7,5,10"
14156,commdev-image-keyboard-response,34,154877,practice,629.3999999999069,img/practice1_left.png,NA,Number not found in mappings,NA,TRUE,f,f,NA,NA,NA,NA,6,"9,12,13,1,14,11,8,3,2,15,6,4,7,5,10"
14156,commdev-instructions,35,166322,NA,1886.3999999999069,"<p>Great job with the practice round.</p><p>During real missions, you won't know whether you pressed the right or wrong key for each planet.</p><p>But between missions, we will tell you how you did overall.</p>",NA,NA,NA,NA,NA,NA,NA,NA,NA,NA,6,"9,12,13,1,14,11,8,3,2,15,6,4,7,5,10"
14156,commdev-instructions,36,177835,NA,3269.100000000093,<p>Try your best! You will be paid a bonus based on how many correct responses you make!</p><p>Responses that are too slow will not count toward your bonus.</p>,NA,NA,NA,NA,NA,NA,NA,NA,NA,NA,6,"9,12,13,1,14,11,8,3,2,15,6,4,7,5,10"
14156,commdev-instructions,37,185454,NA,1406.1000000000931,"<p>You are almost ready to start the real game.</p><p> First, we are going to ask you some questions about how the game works.</p>",NA,NA,NA,NA,NA,NA,NA,NA,NA,NA,6,"9,12,13,1,14,11,8,3,2,15,6,4,7,5,10"
14156,commdev-instructions,46,297191,NA,31475.799999999814,"<p> Nice work! It is now time to start the real game.<p></p>You will go on two missions to record wind directions of different planets.<p></p>Each one will take about 5 minutes. You will get to take a break between missions.<p><p> Remember, press <strong>F</strong> or <strong>J</strong> depending on the wind direction. Good luck!<br><img src=""img/categorize_planet_example.png""",NA,NA,NA,NA,NA,NA,NA,NA,NA,NA,6,"9,12,13,1,14,11,8,3,2,15,6,4,7,5,10"
14156,commdev-image-keyboard-response,48,300847,learnblock1,null,img/planet10_right.png,10,Community 3,NA,FALSE,null,j,NA,NA,NA,NA,6,"9,12,13,1,14,11,8,3,2,15,6,4,7,5,10"
14156,commdev-image-keyboard-response,49,302107,learnblock1,147.39999999990687,img/planet7_right.png,7,Community 3,NA,TRUE,j,j,NA,NA,NA,NA,6,"9,12,13,1,14,11,8,3,2,15,6,4,7,5,10"
14156,commdev-image-keyboard-response,50,303364,learnblock1,30.600000000093132,img/planet10_left.png,10,Community 3,NA,FALSE,j,f,NA,NA,NA,NA,6,"9,12,13,1,14,11,8,3,2,15,6,4,7,5,10"
14156,commdev-image-keyboard-response,51,304617,learnblock1,168.39999999990687,img/planet4_left.png,4,Community 3,NA,TRUE,f,f,NA,NA,NA,NA,6,"9,12,13,1,14,11,8,3,2,15,6,4,7,5,10"
14156,commdev-image-keyboard-response,52,305873,learnblock1,751.1999999997206,img/planet7_left.png,7,Community 3,NA,TRUE,f,f,NA,NA,NA,NA,6,"9,12,13,1,14,11,8,3,2,15,6,4,7,5,10"
14156,commdev-image-keyboard-response,53,307129,learnblock1,756.2000000001863,img/planet10_right.png,10,Community 3,NA,TRUE,j,j,NA,NA,NA,NA,6,"9,12,13,1,14,11,8,3,2,15,6,4,7,5,10"
14156,commdev-image-keyboard-response,54,308384,learnblock1,1065.5,img/planet6_right.png,6,Community 3,NA,TRUE,j,j,NA,NA,NA,NA,6,"9,12,13,1,14,11,8,3,2,15,6,4,7,5,10"
14156,commdev-image-keyboard-response,55,309640,learnblock1,866.5,img/planet5_right.png,5,Community 3,NA,TRUE,j,j,NA,NA,NA,NA,6,"9,12,13,1,14,11,8,3,2,15,6,4,7,5,10"
14156,commdev-image-keyboard-response,56,310895,learnblock1,605.2000000001863,img/planet10_left.png,10,Community 3,NA,TRUE,f,f,NA,NA,NA,NA,6,"9,12,13,1,14,11,8,3,2,15,6,4,7,5,10"
14156,commdev-image-keyboard-response,57,312154,learnblock1,955.8000000002794,img/planet6_left.png,6,Community 3,NA,TRUE,f,f,NA,NA,NA,NA,6,"9,12,13,1,14,11,8,3,2,15,6,4,7,5,10"
14156,commdev-image-keyboard-response,58,313415,learnblock1,730.1000000000931,img/planet10_right.png,10,Community 3,NA,TRUE,j,j,NA,NA,NA,NA,6,"9,12,13,1,14,11,8,3,2,15,6,4,7,5,10"
14156,commdev-image-keyboard-response,59,314671,learnblock1,887.1999999997206,img/planet4_left.png,4,Community 3,NA,TRUE,f,f,NA,NA,NA,NA,6,"9,12,13,1,14,11,8,3,2,15,6,4,7,5,10"
14156,commdev-image-keyboard-response,60,315927,learnblock1,770.6000000000931,img/planet7_left.png,7,Community 3,NA,TRUE,f,f,NA,NA,NA,NA,6,"9,12,13,1,14,11,8,3,2,15,6,4,7,5,10"
14156,commdev-image-keyboard-response,61,317183,learnblock1,747.3999999999069,img/planet5_left.png,5,Community 3,NA,TRUE,f,f,NA,NA,NA,NA,6,"9,12,13,1,14,11,8,3,2,15,6,4,7,5,10"
14156,commdev-image-keyboard-response,62,318438,learnblock1,914.5999999996275,img/planet10_right.png,10,Community 3,NA,TRUE,j,j,NA,NA,NA,NA,6,"9,12,13,1,14,11,8,3,2,15,6,4,7,5,10"
14156,commdev-image-keyboard-response,63,319694,learnblock1,752.6999999997206,img/planet5_left.png,5,Community 3,NA,TRUE,f,f,NA,NA,NA,NA,6,"9,12,13,1,14,11,8,3,2,15,6,4,7,5,10"
14156,commdev-image-keyboard-response,64,320948,learnblock1,668.2999999998137,img/planet6_right.png,6,Community 3,NA,TRUE,j,j,NA,NA,NA,NA,6,"9,12,13,1,14,11,8,3,2,15,6,4,7,5,10"
14156,commdev-image-keyboard-response,65,322203,learnblock1,1022.2999999998137,img/planet5_right.png,5,Community 3,NA,TRUE,j,j,NA,NA,NA,NA,6,"9,12,13,1,14,11,8,3,2,15,6,4,7,5,10"
14156,commdev-image-keyboard-response,66,323458,learnblock1,802.5999999996275,img/planet6_right.png,6,Community 3,NA,TRUE,j,j,NA,NA,NA,NA,6,"9,12,13,1,14,11,8,3,2,15,6,4,7,5,10"
14156,commdev-image-keyboard-response,67,324712,learnblock1,720.2000000001863,img/planet14_left.png,14,Community 1,NA,TRUE,f,f,NA,NA,NA,NA,6,"9,12,13,1,14,11,8,3,2,15,6,4,7,5,10"
14156,commdev-image-keyboard-response,68,325967,learnblock1,1009,img/planet13_left.png,13,Community 1,NA,FALSE,j,f,NA,NA,NA,NA,6,"9,12,13,1,14,11,8,3,2,15,6,4,7,5,10"
14156,commdev-image-keyboard-response,69,327222,learnblock1,646.7999999998137,img/planet1_left.png,1,Community 1,NA,TRUE,f,f,NA,NA,NA,NA,6,"9,12,13,1,14,11,8,3,2,15,6,4,7,5,10"
14156,commdev-image-keyboard-response,70,328477,learnblock1,714.3000000002794,img/planet13_right.png,13,Community 1,NA,TRUE,j,j,NA,NA,NA,NA,6,"9,12,13,1,14,11,8,3,2,15,6,4,7,5,10"
14156,commdev-image-keyboard-response,71,329735,learnblock1,1115.7999999998137,img/planet14_right.png,14,Community 1,NA,TRUE,j,j,NA,NA,NA,NA,6,"9,12,13,1,14,11,8,3,2,15,6,4,7,5,10"
14156,commdev-image-keyboard-response,72,330990,learnblock1,685.8000000002794,img/planet13_left.png,13,Community 1,NA,TRUE,f,f,NA,NA,NA,NA,6,"9,12,13,1,14,11,8,3,2,15,6,4,7,5,10"
14156,commdev-image-keyboard-response,73,332248,learnblock1,674.3999999999069,img/planet12_right.png,12,Community 1,NA,TRUE,j,j,NA,NA,NA,NA,6,"9,12,13,1,14,11,8,3,2,15,6,4,7,5,10"
14156,commdev-image-keyboard-response,74,333503,learnblock1,777.2999999998137,img/planet9_left.png,9,Community 1,NA,TRUE,f,f,NA,NA,NA,NA,6,"9,12,13,1,14,11,8,3,2,15,6,4,7,5,10"
14156,commdev-image-keyboard-response,75,334760,learnblock1,646.1000000000931,img/planet1_right.png,1,Community 1,NA,TRUE,j,j,NA,NA,NA,NA,6,"9,12,13,1,14,11,8,3,2,15,6,4,7,5,10"
14156,commdev-image-keyboard-response,76,336014,learnblock1,536,img/planet11_left.png,11,Community 2,NA,TRUE,f,f,NA,NA,NA,NA,6,"9,12,13,1,14,11,8,3,2,15,6,4,7,5,10"
14156,commdev-image-keyboard-response,77,337273,learnblock1,724.8999999999069,img/planet15_left.png,15,Community 2,NA,TRUE,f,f,NA,NA,NA,NA,6,"9,12,13,1,14,11,8,3,2,15,6,4,7,5,10"
14156,commdev-image-keyboard-response,78,338531,learnblock1,612.3000000002794,img/planet2_right.png,2,Community 2,NA,TRUE,j,j,NA,NA,NA,NA,6,"9,12,13,1,14,11,8,3,2,15,6,4,7,5,10"
14156,commdev-image-keyboard-response,79,339784,learnblock1,643.2999999998137,img/planet11_right.png,11,Community 2,NA,FALSE,f,j,NA,NA,NA,NA,6,"9,12,13,1,14,11,8,3,2,15,6,4,7,5,10"
14156,commdev-image-keyboard-response,80,341041,learnblock1,577.1000000000931,img/planet2_right.png,2,Community 2,NA,TRUE,j,j,NA,NA,NA,NA,6,"9,12,13,1,14,11,8,3,2,15,6,4,7,5,10"
14156,commdev-image-keyboard-response,81,342299,learnblock1,712.1999999997206,img/planet3_left.png,3,Community 2,NA,TRUE,f,f,NA,NA,NA,NA,6,"9,12,13,1,14,11,8,3,2,15,6,4,7,5,10"
14156,commdev-image-keyboard-response,82,343555,learnblock1,816.7000000001863,img/planet2_right.png,2,Community 2,NA,TRUE,j,j,NA,NA,NA,NA,6,"9,12,13,1,14,11,8,3,2,15,6,4,7,5,10"
14156,commdev-image-keyboard-response,83,344810,learnblock1,829.7999999998137,img/planet8_right.png,8,Community 2,NA,TRUE,j,j,NA,NA,NA,NA,6,"9,12,13,1,14,11,8,3,2,15,6,4,7,5,10"
14156,commdev-image-keyboard-response,84,346066,learnblock1,743.3999999999069,img/planet3_right.png,3,Community 2,NA,TRUE,j,j,NA,NA,NA,NA,6,"9,12,13,1,14,11,8,3,2,15,6,4,7,5,10"
14156,commdev-image-keyboard-response,85,347321,learnblock1,599.3999999999069,img/planet2_right.png,2,Community 2,NA,TRUE,j,j,NA,NA,NA,NA,6,"9,12,13,1,14,11,8,3,2,15,6,4,7,5,10"
14156,commdev-image-keyboard-response,86,348577,learnblock1,966,img/planet15_right.png,15,Community 2,NA,TRUE,j,j,NA,NA,NA,NA,6,"9,12,13,1,14,11,8,3,2,15,6,4,7,5,10"
14156,commdev-image-keyboard-response,87,349832,learnblock1,888.3999999999069,img/planet8_right.png,8,Community 2,NA,TRUE,j,j,NA,NA,NA,NA,6,"9,12,13,1,14,11,8,3,2,15,6,4,7,5,10"
14156,commdev-image-keyboard-response,88,351086,learnblock1,624.5,img/planet11_left.png,11,Community 2,NA,TRUE,f,f,NA,NA,NA,NA,6,"9,12,13,1,14,11,8,3,2,15,6,4,7,5,10"
14156,commdev-image-keyboard-response,89,352344,learnblock1,547.7999999998137,img/planet2_right.png,2,Community 2,NA,TRUE,j,j,NA,NA,NA,NA,6,"9,12,13,1,14,11,8,3,2,15,6,4,7,5,10"
14156,commdev-image-keyboard-response,90,353599,learnblock1,583.6000000000931,img/planet15_left.png,15,Community 2,NA,TRUE,f,f,NA,NA,NA,NA,6,"9,12,13,1,14,11,8,3,2,15,6,4,7,5,10"
14156,commdev-image-keyboard-response,91,354855,learnblock1,908.8999999999069,img/planet3_left.png,3,Community 2,NA,TRUE,f,f,NA,NA,NA,NA,6,"9,12,13,1,14,11,8,3,2,15,6,4,7,5,10"
14156,commdev-image-keyboard-response,92,356109,learnblock1,615.5,img/planet4_right.png,4,Community 3,NA,TRUE,j,j,NA,NA,NA,NA,6,"9,12,13,1,14,11,8,3,2,15,6,4,7,5,10"
14156,commdev-image-keyboard-response,93,357363,learnblock1,802.5,img/planet3_right.png,3,Community 2,NA,TRUE,j,j,NA,NA,NA,NA,6,"9,12,13,1,14,11,8,3,2,15,6,4,7,5,10"
14156,commdev-image-keyboard-response,94,358616,learnblock1,698.8000000002794,img/planet15_right.png,15,Community 2,NA,TRUE,j,j,NA,NA,NA,NA,6,"9,12,13,1,14,11,8,3,2,15,6,4,7,5,10"
14156,commdev-image-keyboard-response,95,359871,learnblock1,622.8999999999069,img/planet3_right.png,3,Community 2,NA,TRUE,j,j,NA,NA,NA,NA,6,"9,12,13,1,14,11,8,3,2,15,6,4,7,5,10"
14156,commdev-image-keyboard-response,96,361128,learnblock1,482.8000000002794,img/planet2_right.png,2,Community 2,NA,TRUE,j,j,NA,NA,NA,NA,6,"9,12,13,1,14,11,8,3,2,15,6,4,7,5,10"
14156,commdev-image-keyboard-response,97,362384,learnblock1,482.8000000002794,img/planet11_left.png,11,Community 2,NA,TRUE,f,f,NA,NA,NA,NA,6,"9,12,13,1,14,11,8,3,2,15,6,4,7,5,10"
14156,commdev-image-keyboard-response,98,363639,learnblock1,580.8000000002794,img/planet15_left.png,15,Community 2,NA,TRUE,f,f,NA,NA,NA,NA,6,"9,12,13,1,14,11,8,3,2,15,6,4,7,5,10"
14156,commdev-image-keyboard-response,99,364901,learnblock1,731.3999999999069,img/planet8_left.png,8,Community 2,NA,TRUE,f,f,NA,NA,NA,NA,6,"9,12,13,1,14,11,8,3,2,15,6,4,7,5,10"
14156,commdev-image-keyboard-response,100,366154,learnblock1,660.2999999998137,img/planet15_right.png,15,Community 2,NA,TRUE,j,j,NA,NA,NA,NA,6,"9,12,13,1,14,11,8,3,2,15,6,4,7,5,10"
14156,commdev-image-keyboard-response,101,367406,learnblock1,604.6999999997206,img/planet11_left.png,11,Community 2,NA,TRUE,f,f,NA,NA,NA,NA,6,"9,12,13,1,14,11,8,3,2,15,6,4,7,5,10"
14156,commdev-image-keyboard-response,102,368658,learnblock1,438.20000000018626,img/planet2_left.png,2,Community 2,NA,TRUE,f,f,NA,NA,NA,NA,6,"9,12,13,1,14,11,8,3,2,15,6,4,7,5,10"
14156,commdev-image-keyboard-response,103,369914,learnblock1,517.2000000001863,img/planet11_left.png,11,Community 2,NA,TRUE,f,f,NA,NA,NA,NA,6,"9,12,13,1,14,11,8,3,2,15,6,4,7,5,10"
14156,commdev-image-keyboard-response,104,371173,learnblock1,646.6000000000931,img/planet1_right.png,1,Community 1,NA,TRUE,j,j,NA,NA,NA,NA,6,"9,12,13,1,14,11,8,3,2,15,6,4,7,5,10"
14156,commdev-image-keyboard-response,105,372429,learnblock1,712.5,img/planet13_right.png,13,Community 1,NA,FALSE,f,j,NA,NA,NA,NA,6,"9,12,13,1,14,11,8,3,2,15,6,4,7,5,10"
14156,commdev-image-keyboard-response,106,373688,learnblock1,615.7000000001863,img/planet1_right.png,1,Community 1,NA,TRUE,j,j,NA,NA,NA,NA,6,"9,12,13,1,14,11,8,3,2,15,6,4,7,5,10"
14156,commdev-image-keyboard-response,107,374943,learnblock1,618.3000000002794,img/planet9_left.png,9,Community 1,NA,TRUE,f,f,NA,NA,NA,NA,6,"9,12,13,1,14,11,8,3,2,15,6,4,7,5,10"
14156,commdev-image-keyboard-response,108,376197,learnblock1,538.7000000001863,img/planet12_right.png,12,Community 1,NA,TRUE,j,j,NA,NA,NA,NA,6,"9,12,13,1,14,11,8,3,2,15,6,4,7,5,10"
14156,commdev-image-keyboard-response,109,377451,learnblock1,478.70000000018626,img/planet9_left.png,9,Community 1,NA,TRUE,f,f,NA,NA,NA,NA,6,"9,12,13,1,14,11,8,3,2,15,6,4,7,5,10"
14156,commdev-image-keyboard-response,110,378706,learnblock1,538.1000000000931,img/planet1_right.png,1,Community 1,NA,TRUE,j,j,NA,NA,NA,NA,6,"9,12,13,1,14,11,8,3,2,15,6,4,7,5,10"
14156,commdev-image-keyboard-response,111,379963,learnblock1,489.29999999981374,img/planet11_left.png,11,Community 2,NA,TRUE,f,f,NA,NA,NA,NA,6,"9,12,13,1,14,11,8,3,2,15,6,4,7,5,10"
14156,commdev-image-keyboard-response,112,381218,learnblock1,464.89999999990687,img/planet15_right.png,15,Community 2,NA,TRUE,j,j,NA,NA,NA,NA,6,"9,12,13,1,14,11,8,3,2,15,6,4,7,5,10"
14156,commdev-image-keyboard-response,113,382473,learnblock1,530.3999999999069,img/planet11_left.png,11,Community 2,NA,TRUE,f,f,NA,NA,NA,NA,6,"9,12,13,1,14,11,8,3,2,15,6,4,7,5,10"
14156,commdev-image-keyboard-response,114,383730,learnblock1,698.6999999997206,img/planet1_left.png,1,Community 1,NA,TRUE,f,f,NA,NA,NA,NA,6,"9,12,13,1,14,11,8,3,2,15,6,4,7,5,10"
14156,commdev-image-keyboard-response,115,384987,learnblock1,802.3999999999069,img/planet9_left.png,9,Community 1,NA,TRUE,f,f,NA,NA,NA,NA,6,"9,12,13,1,14,11,8,3,2,15,6,4,7,5,10"
14156,commdev-image-keyboard-response,116,386244,learnblock1,683,img/planet1_left.png,1,Community 1,NA,TRUE,f,f,NA,NA,NA,NA,6,"9,12,13,1,14,11,8,3,2,15,6,4,7,5,10"
14156,commdev-image-keyboard-response,117,387498,learnblock1,570.3000000002794,img/planet11_left.png,11,Community 2,NA,TRUE,f,f,NA,NA,NA,NA,6,"9,12,13,1,14,11,8,3,2,15,6,4,7,5,10"
14156,commdev-image-keyboard-response,118,388753,learnblock1,543.5999999996275,img/planet1_left.png,1,Community 1,NA,TRUE,f,f,NA,NA,NA,NA,6,"9,12,13,1,14,11,8,3,2,15,6,4,7,5,10"
14156,commdev-image-keyboard-response,119,390010,learnblock1,740.1999999997206,img/planet12_right.png,12,Community 1,NA,TRUE,j,j,NA,NA,NA,NA,6,"9,12,13,1,14,11,8,3,2,15,6,4,7,5,10"
14156,commdev-image-keyboard-response,120,391263,learnblock1,643.6999999997206,img/planet14_left.png,14,Community 1,NA,TRUE,f,f,NA,NA,NA,NA,6,"9,12,13,1,14,11,8,3,2,15,6,4,7,5,10"
14156,commdev-image-keyboard-response,121,392518,learnblock1,677.7999999998137,img/planet12_left.png,12,Community 1,NA,TRUE,f,f,NA,NA,NA,NA,6,"9,12,13,1,14,11,8,3,2,15,6,4,7,5,10"
14156,commdev-image-keyboard-response,122,393775,learnblock1,466.3000000002794,img/planet14_right.png,14,Community 1,NA,TRUE,j,j,NA,NA,NA,NA,6,"9,12,13,1,14,11,8,3,2,15,6,4,7,5,10"
14156,commdev-image-keyboard-response,123,395031,learnblock1,707.3000000002794,img/planet12_right.png,12,Community 1,NA,TRUE,j,j,NA,NA,NA,NA,6,"9,12,13,1,14,11,8,3,2,15,6,4,7,5,10"
14156,commdev-image-keyboard-response,124,396283,learnblock1,855.8000000002794,img/planet13_right.png,13,Community 1,NA,TRUE,j,j,NA,NA,NA,NA,6,"9,12,13,1,14,11,8,3,2,15,6,4,7,5,10"
14156,commdev-image-keyboard-response,125,397540,learnblock1,726,img/planet12_left.png,12,Community 1,NA,TRUE,f,f,NA,NA,NA,NA,6,"9,12,13,1,14,11,8,3,2,15,6,4,7,5,10"
14156,commdev-image-keyboard-response,126,398795,learnblock1,1007.8999999999069,img/planet13_left.png,13,Community 1,NA,TRUE,f,f,NA,NA,NA,NA,6,"9,12,13,1,14,11,8,3,2,15,6,4,7,5,10"
14156,commdev-image-keyboard-response,127,400050,learnblock1,688.2000000001863,img/planet9_left.png,9,Community 1,NA,TRUE,f,f,NA,NA,NA,NA,6,"9,12,13,1,14,11,8,3,2,15,6,4,7,5,10"
14156,commdev-image-keyboard-response,128,401306,learnblock1,715,img/planet12_left.png,12,Community 1,NA,TRUE,f,f,NA,NA,NA,NA,6,"9,12,13,1,14,11,8,3,2,15,6,4,7,5,10"
14156,commdev-image-keyboard-response,129,402562,learnblock1,845.3999999999069,img/planet9_left.png,9,Community 1,NA,TRUE,f,f,NA,NA,NA,NA,6,"9,12,13,1,14,11,8,3,2,15,6,4,7,5,10"
14156,commdev-image-keyboard-response,130,403816,learnblock1,721.2000000001863,img/planet1_right.png,1,Community 1,NA,TRUE,j,j,NA,NA,NA,NA,6,"9,12,13,1,14,11,8,3,2,15,6,4,7,5,10"
14156,commdev-image-keyboard-response,131,405071,learnblock1,709,img/planet11_left.png,11,Community 2,NA,TRUE,f,f,NA,NA,NA,NA,6,"9,12,13,1,14,11,8,3,2,15,6,4,7,5,10"
14156,commdev-image-keyboard-response,132,406328,learnblock1,627.1000000000931,img/planet2_right.png,2,Community 2,NA,FALSE,f,j,NA,NA,NA,NA,6,"9,12,13,1,14,11,8,3,2,15,6,4,7,5,10"
14156,commdev-image-keyboard-response,133,407583,learnblock1,944,img/planet3_right.png,3,Community 2,NA,TRUE,j,j,NA,NA,NA,NA,6,"9,12,13,1,14,11,8,3,2,15,6,4,7,5,10"
14156,commdev-image-keyboard-response,134,408837,learnblock1,737.7000000001863,img/planet8_right.png,8,Community 2,NA,TRUE,j,j,NA,NA,NA,NA,6,"9,12,13,1,14,11,8,3,2,15,6,4,7,5,10"
14156,commdev-image-keyboard-response,135,410091,learnblock1,648.6000000000931,img/planet11_right.png,11,Community 2,NA,TRUE,j,j,NA,NA,NA,NA,6,"9,12,13,1,14,11,8,3,2,15,6,4,7,5,10"
14156,commdev-image-keyboard-response,136,411346,learnblock1,481,img/planet15_right.png,15,Community 2,NA,TRUE,j,j,NA,NA,NA,NA,6,"9,12,13,1,14,11,8,3,2,15,6,4,7,5,10"
14156,commdev-image-keyboard-response,137,412602,learnblock1,675.7999999998137,img/planet8_right.png,8,Community 2,NA,TRUE,j,j,NA,NA,NA,NA,6,"9,12,13,1,14,11,8,3,2,15,6,4,7,5,10"
14156,commdev-image-keyboard-response,138,413855,learnblock1,554.5999999996275,img/planet2_right.png,2,Community 2,NA,TRUE,j,j,NA,NA,NA,NA,6,"9,12,13,1,14,11,8,3,2,15,6,4,7,5,10"
14156,commdev-image-keyboard-response,139,415111,learnblock1,757.2999999998137,img/planet15_right.png,15,Community 2,NA,TRUE,j,j,NA,NA,NA,NA,6,"9,12,13,1,14,11,8,3,2,15,6,4,7,5,10"
14156,commdev-image-keyboard-response,140,416367,learnblock1,539.2000000001863,img/planet11_right.png,11,Community 2,NA,TRUE,j,j,NA,NA,NA,NA,6,"9,12,13,1,14,11,8,3,2,15,6,4,7,5,10"
14156,commdev-image-keyboard-response,141,417636,learnblock1,443.79999999981374,img/planet1_left.png,1,Community 1,NA,FALSE,j,f,NA,NA,NA,NA,6,"9,12,13,1,14,11,8,3,2,15,6,4,7,5,10"
14156,commdev-image-keyboard-response,142,418890,learnblock1,629.6999999997206,img/planet11_right.png,11,Community 2,NA,TRUE,j,j,NA,NA,NA,NA,6,"9,12,13,1,14,11,8,3,2,15,6,4,7,5,10"
14156,commdev-image-keyboard-response,143,420147,learnblock1,630.1000000000931,img/planet8_right.png,8,Community 2,NA,TRUE,j,j,NA,NA,NA,NA,6,"9,12,13,1,14,11,8,3,2,15,6,4,7,5,10"
14156,commdev-image-keyboard-response,144,421402,learnblock1,547.7000000001863,img/planet3_right.png,3,Community 2,NA,TRUE,j,j,NA,NA,NA,NA,6,"9,12,13,1,14,11,8,3,2,15,6,4,7,5,10"
14156,commdev-image-keyboard-response,145,422661,learnblock1,647.8000000002794,img/planet15_right.png,15,Community 2,NA,TRUE,j,j,NA,NA,NA,NA,6,"9,12,13,1,14,11,8,3,2,15,6,4,7,5,10"
14156,commdev-image-keyboard-response,146,423914,learnblock1,598.7000000001863,img/planet2_right.png,2,Community 2,NA,TRUE,j,j,NA,NA,NA,NA,6,"9,12,13,1,14,11,8,3,2,15,6,4,7,5,10"
14156,commdev-image-keyboard-response,147,425172,learnblock1,505.89999999990687,img/planet8_left.png,8,Community 2,NA,FALSE,j,f,NA,NA,NA,NA,6,"9,12,13,1,14,11,8,3,2,15,6,4,7,5,10"
14156,commdev-image-keyboard-response,148,426427,learnblock1,522.5,img/planet15_right.png,15,Community 2,NA,TRUE,j,j,NA,NA,NA,NA,6,"9,12,13,1,14,11,8,3,2,15,6,4,7,5,10"
14156,commdev-image-keyboard-response,149,427681,learnblock1,513.3999999999069,img/planet2_right.png,2,Community 2,NA,TRUE,j,j,NA,NA,NA,NA,6,"9,12,13,1,14,11,8,3,2,15,6,4,7,5,10"
14156,commdev-image-keyboard-response,150,428935,learnblock1,934.7000000001863,img/planet11_right.png,11,Community 2,NA,TRUE,j,j,NA,NA,NA,NA,6,"9,12,13,1,14,11,8,3,2,15,6,4,7,5,10"
14156,commdev-image-keyboard-response,151,430191,learnblock1,792.7000000001863,img/planet1_right.png,1,Community 1,NA,TRUE,j,j,NA,NA,NA,NA,6,"9,12,13,1,14,11,8,3,2,15,6,4,7,5,10"
14156,commdev-image-keyboard-response,152,431450,learnblock1,781.3999999999069,img/planet11_left.png,11,Community 2,NA,TRUE,f,f,NA,NA,NA,NA,6,"9,12,13,1,14,11,8,3,2,15,6,4,7,5,10"
14156,commdev-image-keyboard-response,153,432707,learnblock1,737.2999999998137,img/planet8_left.png,8,Community 2,NA,TRUE,f,f,NA,NA,NA,NA,6,"9,12,13,1,14,11,8,3,2,15,6,4,7,5,10"
14156,commdev-image-keyboard-response,154,433960,learnblock1,741.2000000001863,img/planet3_left.png,3,Community 2,NA,TRUE,f,f,NA,NA,NA,NA,6,"9,12,13,1,14,11,8,3,2,15,6,4,7,5,10"
14156,commdev-image-keyboard-response,155,435217,learnblock1,842.1000000000931,img/planet4_left.png,4,Community 3,NA,TRUE,f,f,NA,NA,NA,NA,6,"9,12,13,1,14,11,8,3,2,15,6,4,7,5,10"
14156,commdev-image-keyboard-response,156,436474,learnblock1,633.8999999999069,img/planet10_left.png,10,Community 3,NA,TRUE,f,f,NA,NA,NA,NA,6,"9,12,13,1,14,11,8,3,2,15,6,4,7,5,10"
14156,commdev-image-keyboard-response,157,437730,learnblock1,580.6999999997206,img/planet6_right.png,6,Community 3,NA,TRUE,j,j,NA,NA,NA,NA,6,"9,12,13,1,14,11,8,3,2,15,6,4,7,5,10"
14156,commdev-image-keyboard-response,158,438985,learnblock1,544,img/planet7_right.png,7,Community 3,NA,TRUE,j,j,NA,NA,NA,NA,6,"9,12,13,1,14,11,8,3,2,15,6,4,7,5,10"
14156,commdev-image-keyboard-response,159,440240,learnblock1,567.1999999997206,img/planet6_right.png,6,Community 3,NA,TRUE,j,j,NA,NA,NA,NA,6,"9,12,13,1,14,11,8,3,2,15,6,4,7,5,10"
14156,commdev-image-keyboard-response,160,441495,learnblock1,656.6000000000931,img/planet5_left.png,5,Community 3,NA,TRUE,f,f,NA,NA,NA,NA,6,"9,12,13,1,14,11,8,3,2,15,6,4,7,5,10"
14156,commdev-image-keyboard-response,161,442752,learnblock1,562.1000000000931,img/planet6_right.png,6,Community 3,NA,TRUE,j,j,NA,NA,NA,NA,6,"9,12,13,1,14,11,8,3,2,15,6,4,7,5,10"
14156,commdev-image-keyboard-response,162,444006,learnblock1,894.4000000003725,img/planet5_right.png,5,Community 3,NA,TRUE,j,j,NA,NA,NA,NA,6,"9,12,13,1,14,11,8,3,2,15,6,4,7,5,10"
14156,commdev-image-keyboard-response,163,445263,learnblock1,679,img/planet10_right.png,10,Community 3,NA,TRUE,j,j,NA,NA,NA,NA,6,"9,12,13,1,14,11,8,3,2,15,6,4,7,5,10"
14156,commdev-image-keyboard-response,164,446520,learnblock1,744.1000000000931,img/planet5_right.png,5,Community 3,NA,TRUE,j,j,NA,NA,NA,NA,6,"9,12,13,1,14,11,8,3,2,15,6,4,7,5,10"
14156,commdev-image-keyboard-response,165,447776,learnblock1,721.1000000000931,img/planet4_left.png,4,Community 3,NA,TRUE,f,f,NA,NA,NA,NA,6,"9,12,13,1,14,11,8,3,2,15,6,4,7,5,10"
14156,commdev-image-keyboard-response,166,449033,learnblock1,654.2999999998137,img/planet7_left.png,7,Community 3,NA,TRUE,f,f,NA,NA,NA,NA,6,"9,12,13,1,14,11,8,3,2,15,6,4,7,5,10"
14156,commdev-image-keyboard-response,167,450291,learnblock1,642.7999999998137,img/planet5_right.png,5,Community 3,NA,TRUE,j,j,NA,NA,NA,NA,6,"9,12,13,1,14,11,8,3,2,15,6,4,7,5,10"
14156,commdev-image-keyboard-response,168,451547,learnblock1,664.3999999999069,img/planet10_left.png,10,Community 3,NA,TRUE,f,f,NA,NA,NA,NA,6,"9,12,13,1,14,11,8,3,2,15,6,4,7,5,10"
14156,commdev-image-keyboard-response,169,452802,learnblock1,743.6000000000931,img/planet4_left.png,4,Community 3,NA,TRUE,f,f,NA,NA,NA,NA,6,"9,12,13,1,14,11,8,3,2,15,6,4,7,5,10"
14156,commdev-image-keyboard-response,170,454058,learnblock1,715.8999999999069,img/planet5_right.png,5,Community 3,NA,TRUE,j,j,NA,NA,NA,NA,6,"9,12,13,1,14,11,8,3,2,15,6,4,7,5,10"
14156,commdev-image-keyboard-response,171,455313,learnblock1,670,img/planet10_left.png,10,Community 3,NA,TRUE,f,f,NA,NA,NA,NA,6,"9,12,13,1,14,11,8,3,2,15,6,4,7,5,10"
14156,commdev-image-keyboard-response,172,456570,learnblock1,799.5,img/planet7_right.png,7,Community 3,NA,TRUE,j,j,NA,NA,NA,NA,6,"9,12,13,1,14,11,8,3,2,15,6,4,7,5,10"
14156,commdev-image-keyboard-response,173,457824,learnblock1,881.8999999999069,img/planet5_left.png,5,Community 3,NA,TRUE,f,f,NA,NA,NA,NA,6,"9,12,13,1,14,11,8,3,2,15,6,4,7,5,10"
14156,commdev-image-keyboard-response,174,459077,learnblock1,662.9000000003725,img/planet7_right.png,7,Community 3,NA,TRUE,j,j,NA,NA,NA,NA,6,"9,12,13,1,14,11,8,3,2,15,6,4,7,5,10"
14156,commdev-image-keyboard-response,175,460333,learnblock1,653.8999999999069,img/planet4_left.png,4,Community 3,NA,TRUE,f,f,NA,NA,NA,NA,6,"9,12,13,1,14,11,8,3,2,15,6,4,7,5,10"
14156,commdev-image-keyboard-response,176,461588,learnblock1,636,img/planet7_right.png,7,Community 3,NA,TRUE,j,j,NA,NA,NA,NA,6,"9,12,13,1,14,11,8,3,2,15,6,4,7,5,10"
14156,commdev-image-keyboard-response,177,462844,learnblock1,706.7999999998137,img/planet10_right.png,10,Community 3,NA,TRUE,j,j,NA,NA,NA,NA,6,"9,12,13,1,14,11,8,3,2,15,6,4,7,5,10"
14156,commdev-image-keyboard-response,178,464098,learnblock1,715,img/planet6_left.png,6,Community 3,NA,TRUE,f,f,NA,NA,NA,NA,6,"9,12,13,1,14,11,8,3,2,15,6,4,7,5,10"
14156,commdev-image-keyboard-response,179,465357,learnblock1,729.5,img/planet5_left.png,5,Community 3,NA,TRUE,f,f,NA,NA,NA,NA,6,"9,12,13,1,14,11,8,3,2,15,6,4,7,5,10"
14156,commdev-image-keyboard-response,180,466619,learnblock1,805.7000000001863,img/planet6_left.png,6,Community 3,NA,TRUE,f,f,NA,NA,NA,NA,6,"9,12,13,1,14,11,8,3,2,15,6,4,7,5,10"
14156,commdev-image-keyboard-response,181,467875,learnblock1,757.2000000001863,img/planet10_left.png,10,Community 3,NA,TRUE,f,f,NA,NA,NA,NA,6,"9,12,13,1,14,11,8,3,2,15,6,4,7,5,10"
14156,commdev-image-keyboard-response,182,469131,learnblock1,777.1999999997206,img/planet7_left.png,7,Community 3,NA,TRUE,f,f,NA,NA,NA,NA,6,"9,12,13,1,14,11,8,3,2,15,6,4,7,5,10"
14156,commdev-image-keyboard-response,183,470387,learnblock1,null,img/planet10_left.png,10,Community 3,NA,FALSE,null,f,NA,NA,NA,NA,6,"9,12,13,1,14,11,8,3,2,15,6,4,7,5,10"
14156,commdev-image-keyboard-response,184,471643,learnblock1,96.1999999997206,img/planet6_left.png,6,Community 3,NA,TRUE,f,f,NA,NA,NA,NA,6,"9,12,13,1,14,11,8,3,2,15,6,4,7,5,10"
14156,commdev-image-keyboard-response,185,472901,learnblock1,701.5,img/planet10_right.png,10,Community 3,NA,TRUE,j,j,NA,NA,NA,NA,6,"9,12,13,1,14,11,8,3,2,15,6,4,7,5,10"
14156,commdev-image-keyboard-response,186,474155,learnblock1,863.7999999998137,img/planet4_right.png,4,Community 3,NA,FALSE,f,j,NA,NA,NA,NA,6,"9,12,13,1,14,11,8,3,2,15,6,4,7,5,10"
14156,commdev-image-keyboard-response,187,475411,learnblock1,757.0999999996275,img/planet3_right.png,3,Community 2,NA,TRUE,j,j,NA,NA,NA,NA,6,"9,12,13,1,14,11,8,3,2,15,6,4,7,5,10"
14156,commdev-image-keyboard-response,188,476666,learnblock1,873.7000000001863,img/planet8_right.png,8,Community 2,NA,TRUE,j,j,NA,NA,NA,NA,6,"9,12,13,1,14,11,8,3,2,15,6,4,7,5,10"
14156,commdev-image-keyboard-response,189,477921,learnblock1,826.2000000001863,img/planet3_left.png,3,Community 2,NA,TRUE,f,f,NA,NA,NA,NA,6,"9,12,13,1,14,11,8,3,2,15,6,4,7,5,10"
14156,commdev-image-keyboard-response,190,479176,learnblock1,672.7999999998137,img/planet4_right.png,4,Community 3,NA,TRUE,j,j,NA,NA,NA,NA,6,"9,12,13,1,14,11,8,3,2,15,6,4,7,5,10"
14156,commdev-image-keyboard-response,191,480433,learnblock1,616.3000000002794,img/planet10_right.png,10,Community 3,NA,TRUE,j,j,NA,NA,NA,NA,6,"9,12,13,1,14,11,8,3,2,15,6,4,7,5,10"
14156,commdev-image-keyboard-response,192,481688,learnblock1,894.2999999998137,img/planet6_right.png,6,Community 3,NA,TRUE,j,j,NA,NA,NA,NA,6,"9,12,13,1,14,11,8,3,2,15,6,4,7,5,10"
14156,commdev-image-keyboard-response,193,482944,learnblock1,689.8000000002794,img/planet10_left.png,10,Community 3,NA,TRUE,f,f,NA,NA,NA,NA,6,"9,12,13,1,14,11,8,3,2,15,6,4,7,5,10"
14156,commdev-image-keyboard-response,194,484199,learnblock1,812.5,img/planet5_left.png,5,Community 3,NA,TRUE,f,f,NA,NA,NA,NA,6,"9,12,13,1,14,11,8,3,2,15,6,4,7,5,10"
14156,commdev-image-keyboard-response,195,485455,learnblock1,632.2000000001863,img/planet6_right.png,6,Community 3,NA,FALSE,f,j,NA,NA,NA,NA,6,"9,12,13,1,14,11,8,3,2,15,6,4,7,5,10"
14156,commdev-image-keyboard-response,196,486712,learnblock1,693.2999999998137,img/planet5_left.png,5,Community 3,NA,TRUE,f,f,NA,NA,NA,NA,6,"9,12,13,1,14,11,8,3,2,15,6,4,7,5,10"
14156,commdev-image-keyboard-response,197,487966,learnblock1,654.7000000001863,img/planet10_left.png,10,Community 3,NA,TRUE,f,f,NA,NA,NA,NA,6,"9,12,13,1,14,11,8,3,2,15,6,4,7,5,10"
14156,commdev-image-keyboard-response,198,489220,learnblock1,878.3000000002794,img/planet7_left.png,7,Community 3,NA,TRUE,f,f,NA,NA,NA,NA,6,"9,12,13,1,14,11,8,3,2,15,6,4,7,5,10"
14156,commdev-image-keyboard-response,199,490477,learnblock1,529.3999999999069,img/planet10_right.png,10,Community 3,NA,TRUE,j,j,NA,NA,NA,NA,6,"9,12,13,1,14,11,8,3,2,15,6,4,7,5,10"
14156,commdev-image-keyboard-response,200,491731,learnblock1,981.7999999998137,img/planet4_right.png,4,Community 3,NA,TRUE,j,j,NA,NA,NA,NA,6,"9,12,13,1,14,11,8,3,2,15,6,4,7,5,10"
14156,commdev-image-keyboard-response,201,492984,learnblock1,915,img/planet7_left.png,7,Community 3,NA,FALSE,j,f,NA,NA,NA,NA,6,"9,12,13,1,14,11,8,3,2,15,6,4,7,5,10"
14156,commdev-image-keyboard-response,202,494239,learnblock1,682.6999999997206,img/planet10_right.png,10,Community 3,NA,TRUE,j,j,NA,NA,NA,NA,6,"9,12,13,1,14,11,8,3,2,15,6,4,7,5,10"
14156,commdev-image-keyboard-response,203,495496,learnblock1,882.3999999999069,img/planet7_left.png,7,Community 3,NA,TRUE,f,f,NA,NA,NA,NA,6,"9,12,13,1,14,11,8,3,2,15,6,4,7,5,10"
14156,commdev-image-keyboard-response,204,496753,learnblock1,695.5,img/planet5_left.png,5,Community 3,NA,TRUE,f,f,NA,NA,NA,NA,6,"9,12,13,1,14,11,8,3,2,15,6,4,7,5,10"
14156,commdev-image-keyboard-response,205,498007,learnblock1,654.2000000001863,img/planet4_right.png,4,Community 3,NA,TRUE,j,j,NA,NA,NA,NA,6,"9,12,13,1,14,11,8,3,2,15,6,4,7,5,10"
14156,commdev-image-keyboard-response,206,499260,learnblock1,820.3999999999069,img/planet5_right.png,5,Community 3,NA,TRUE,j,j,NA,NA,NA,NA,6,"9,12,13,1,14,11,8,3,2,15,6,4,7,5,10"
14156,commdev-image-keyboard-response,207,500516,learnblock1,855.5,img/planet4_left.png,4,Community 3,NA,FALSE,j,f,NA,NA,NA,NA,6,"9,12,13,1,14,11,8,3,2,15,6,4,7,5,10"
14156,commdev-image-keyboard-response,208,501770,learnblock1,694.6999999997206,img/planet10_right.png,10,Community 3,NA,TRUE,j,j,NA,NA,NA,NA,6,"9,12,13,1,14,11,8,3,2,15,6,4,7,5,10"
14156,commdev-image-keyboard-response,209,503024,learnblock1,628.2000000001863,img/planet6_right.png,6,Community 3,NA,TRUE,j,j,NA,NA,NA,NA,6,"9,12,13,1,14,11,8,3,2,15,6,4,7,5,10"
14156,commdev-image-keyboard-response,210,504278,learnblock1,608.5,img/planet14_left.png,14,Community 1,NA,TRUE,f,f,NA,NA,NA,NA,6,"9,12,13,1,14,11,8,3,2,15,6,4,7,5,10"
14156,commdev-image-keyboard-response,211,505533,learnblock1,711.2999999998137,img/planet9_left.png,9,Community 1,NA,TRUE,f,f,NA,NA,NA,NA,6,"9,12,13,1,14,11,8,3,2,15,6,4,7,5,10"
14156,commdev-image-keyboard-response,212,506791,learnblock1,674.3999999999069,img/planet12_right.png,12,Community 1,NA,TRUE,j,j,NA,NA,NA,NA,6,"9,12,13,1,14,11,8,3,2,15,6,4,7,5,10"
14156,commdev-image-keyboard-response,213,508047,learnblock1,769.6999999997206,img/planet9_left.png,9,Community 1,NA,TRUE,f,f,NA,NA,NA,NA,6,"9,12,13,1,14,11,8,3,2,15,6,4,7,5,10"
14156,commdev-image-keyboard-response,214,509302,learnblock1,890.6999999997206,img/planet14_right.png,14,Community 1,NA,TRUE,j,j,NA,NA,NA,NA,6,"9,12,13,1,14,11,8,3,2,15,6,4,7,5,10"
14156,commdev-image-keyboard-response,215,510558,learnblock1,772.8000000002794,img/planet12_left.png,12,Community 1,NA,TRUE,f,f,NA,NA,NA,NA,6,"9,12,13,1,14,11,8,3,2,15,6,4,7,5,10"
14156,commdev-image-keyboard-response,216,511816,learnblock1,876.2999999998137,img/planet13_left.png,13,Community 1,NA,TRUE,f,f,NA,NA,NA,NA,6,"9,12,13,1,14,11,8,3,2,15,6,4,7,5,10"
14156,commdev-image-keyboard-response,217,513074,learnblock1,835.6999999997206,img/planet14_left.png,14,Community 1,NA,TRUE,f,f,NA,NA,NA,NA,6,"9,12,13,1,14,11,8,3,2,15,6,4,7,5,10"
14156,commdev-image-keyboard-response,218,514330,learnblock1,661,img/planet12_right.png,12,Community 1,NA,TRUE,j,j,NA,NA,NA,NA,6,"9,12,13,1,14,11,8,3,2,15,6,4,7,5,10"
14156,commdev-image-keyboard-response,219,515589,learnblock1,892.7000000001863,img/planet1_right.png,1,Community 1,NA,TRUE,j,j,NA,NA,NA,NA,6,"9,12,13,1,14,11,8,3,2,15,6,4,7,5,10"
14156,commdev-image-keyboard-response,220,516843,learnblock1,996.6000000000931,img/planet11_right.png,11,Community 2,NA,TRUE,j,j,NA,NA,NA,NA,6,"9,12,13,1,14,11,8,3,2,15,6,4,7,5,10"
14156,commdev-image-keyboard-response,221,518099,learnblock1,685.1000000000931,img/planet15_left.png,15,Community 2,NA,TRUE,f,f,NA,NA,NA,NA,6,"9,12,13,1,14,11,8,3,2,15,6,4,7,5,10"
14156,commdev-image-keyboard-response,222,519356,learnblock1,684.1000000000931,img/planet2_right.png,2,Community 2,NA,TRUE,j,j,NA,NA,NA,NA,6,"9,12,13,1,14,11,8,3,2,15,6,4,7,5,10"
14156,commdev-image-keyboard-response,223,520612,learnblock1,721.6000000000931,img/planet8_left.png,8,Community 2,NA,TRUE,f,f,NA,NA,NA,NA,6,"9,12,13,1,14,11,8,3,2,15,6,4,7,5,10"
14156,commdev-image-keyboard-response,224,521866,learnblock1,691.5,img/planet15_left.png,15,Community 2,NA,TRUE,f,f,NA,NA,NA,NA,6,"9,12,13,1,14,11,8,3,2,15,6,4,7,5,10"
14156,commdev-image-keyboard-response,225,523123,learnblock1,712.7999999998137,img/planet2_left.png,2,Community 2,NA,TRUE,f,f,NA,NA,NA,NA,6,"9,12,13,1,14,11,8,3,2,15,6,4,7,5,10"
14156,commdev-image-keyboard-response,226,524379,learnblock1,706.7999999998137,img/planet15_right.png,15,Community 2,NA,TRUE,j,j,NA,NA,NA,NA,6,"9,12,13,1,14,11,8,3,2,15,6,4,7,5,10"
14156,commdev-image-keyboard-response,227,525637,learnblock1,762,img/planet3_left.png,3,Community 2,NA,TRUE,f,f,NA,NA,NA,NA,6,"9,12,13,1,14,11,8,3,2,15,6,4,7,5,10"
14156,commdev-image-keyboard-response,228,526893,learnblock1,592.6999999997206,img/planet2_left.png,2,Community 2,NA,TRUE,f,f,NA,NA,NA,NA,6,"9,12,13,1,14,11,8,3,2,15,6,4,7,5,10"
14156,commdev-image-keyboard-response,229,528148,learnblock1,681.0999999996275,img/planet11_right.png,11,Community 2,NA,TRUE,j,j,NA,NA,NA,NA,6,"9,12,13,1,14,11,8,3,2,15,6,4,7,5,10"
14156,commdev-image-keyboard-response,230,529404,learnblock1,755.2999999998137,img/planet2_left.png,2,Community 2,NA,TRUE,f,f,NA,NA,NA,NA,6,"9,12,13,1,14,11,8,3,2,15,6,4,7,5,10"
14156,commdev-image-keyboard-response,231,530660,learnblock1,636.2999999998137,img/planet3_right.png,3,Community 2,NA,FALSE,f,j,NA,NA,NA,NA,6,"9,12,13,1,14,11,8,3,2,15,6,4,7,5,10"
14156,commdev-image-keyboard-response,232,531916,learnblock1,711.8999999999069,img/planet2_right.png,2,Community 2,NA,TRUE,j,j,NA,NA,NA,NA,6,"9,12,13,1,14,11,8,3,2,15,6,4,7,5,10"
14156,commdev-image-keyboard-response,233,533171,learnblock1,876,img/planet15_right.png,15,Community 2,NA,TRUE,j,j,NA,NA,NA,NA,6,"9,12,13,1,14,11,8,3,2,15,6,4,7,5,10"
14156,commdev-image-keyboard-response,234,534425,learnblock1,720.7999999998137,img/planet2_left.png,2,Community 2,NA,TRUE,f,f,NA,NA,NA,NA,6,"9,12,13,1,14,11,8,3,2,15,6,4,7,5,10"
14156,commdev-image-keyboard-response,235,535681,learnblock1,909.1999999997206,img/planet3_left.png,3,Community 2,NA,TRUE,f,f,NA,NA,NA,NA,6,"9,12,13,1,14,11,8,3,2,15,6,4,7,5,10"
14156,commdev-image-keyboard-response,236,536936,learnblock1,783.6000000000931,img/planet4_left.png,4,Community 3,NA,TRUE,f,f,NA,NA,NA,NA,6,"9,12,13,1,14,11,8,3,2,15,6,4,7,5,10"
14156,commdev-image-keyboard-response,237,538191,learnblock1,765.1000000000931,img/planet7_left.png,7,Community 3,NA,TRUE,f,f,NA,NA,NA,NA,6,"9,12,13,1,14,11,8,3,2,15,6,4,7,5,10"
14156,commdev-image-keyboard-response,238,539445,learnblock1,775.7000000001863,img/planet4_left.png,4,Community 3,NA,TRUE,f,f,NA,NA,NA,NA,6,"9,12,13,1,14,11,8,3,2,15,6,4,7,5,10"
14156,commdev-image-keyboard-response,239,540701,learnblock1,920.7000000001863,img/planet3_right.png,3,Community 2,NA,TRUE,j,j,NA,NA,NA,NA,6,"9,12,13,1,14,11,8,3,2,15,6,4,7,5,10"
14156,commdev-image-keyboard-response,240,541957,learnblock1,754.6999999997206,img/planet15_right.png,15,Community 2,NA,TRUE,j,j,NA,NA,NA,NA,6,"9,12,13,1,14,11,8,3,2,15,6,4,7,5,10"
14156,commdev-image-keyboard-response,241,543213,learnblock1,379.39999999990687,img/planet11_left.png,11,Community 2,NA,FALSE,j,f,NA,NA,NA,NA,6,"9,12,13,1,14,11,8,3,2,15,6,4,7,5,10"
14156,commdev-image-keyboard-response,242,544467,learnblock1,651.2000000001863,img/planet2_right.png,2,Community 2,NA,TRUE,j,j,NA,NA,NA,NA,6,"9,12,13,1,14,11,8,3,2,15,6,4,7,5,10"
14156,commdev-image-keyboard-response,243,545722,learnblock1,687.8000000002794,img/planet15_left.png,15,Community 2,NA,TRUE,f,f,NA,NA,NA,NA,6,"9,12,13,1,14,11,8,3,2,15,6,4,7,5,10"
14156,commdev-image-keyboard-response,244,546978,learnblock1,809.8000000002794,img/planet2_left.png,2,Community 2,NA,TRUE,f,f,NA,NA,NA,NA,6,"9,12,13,1,14,11,8,3,2,15,6,4,7,5,10"
14156,commdev-image-keyboard-response,245,548234,learnblock1,678.5,img/planet15_right.png,15,Community 2,NA,FALSE,f,j,NA,NA,NA,NA,6,"9,12,13,1,14,11,8,3,2,15,6,4,7,5,10"
14156,commdev-image-keyboard-response,246,549489,learnblock1,690.2999999998137,img/planet2_left.png,2,Community 2,NA,TRUE,f,f,NA,NA,NA,NA,6,"9,12,13,1,14,11,8,3,2,15,6,4,7,5,10"
14156,commdev-image-keyboard-response,247,550746,learnblock1,480.3000000002794,img/planet3_right.png,3,Community 2,NA,TRUE,j,j,NA,NA,NA,NA,6,"9,12,13,1,14,11,8,3,2,15,6,4,7,5,10"
14156,commdev-image-keyboard-response,248,552003,learnblock1,428.20000000018626,img/planet15_left.png,15,Community 2,NA,TRUE,f,f,NA,NA,NA,NA,6,"9,12,13,1,14,11,8,3,2,15,6,4,7,5,10"
14156,commdev-image-keyboard-response,249,553259,learnblock1,442.10000000009313,img/planet2_left.png,2,Community 2,NA,FALSE,j,f,NA,NA,NA,NA,6,"9,12,13,1,14,11,8,3,2,15,6,4,7,5,10"
14156,commdev-image-keyboard-response,250,554514,learnblock1,739.2999999998137,img/planet3_left.png,3,Community 2,NA,FALSE,j,f,NA,NA,NA,NA,6,"9,12,13,1,14,11,8,3,2,15,6,4,7,5,10"
14156,commdev-image-keyboard-response,251,555772,learnblock1,843.0999999996275,img/planet8_right.png,8,Community 2,NA,TRUE,j,j,NA,NA,NA,NA,6,"9,12,13,1,14,11,8,3,2,15,6,4,7,5,10"
14156,commdev-image-keyboard-response,252,557028,learnblock1,783.2999999998137,img/planet2_right.png,2,Community 2,NA,TRUE,j,j,NA,NA,NA,NA,6,"9,12,13,1,14,11,8,3,2,15,6,4,7,5,10"
14156,commdev-image-keyboard-response,253,558285,learnblock1,627.1000000000931,img/planet8_left.png,8,Community 2,NA,TRUE,f,f,NA,NA,NA,NA,6,"9,12,13,1,14,11,8,3,2,15,6,4,7,5,10"
14156,commdev-image-keyboard-response,254,559541,learnblock1,680,img/planet2_right.png,2,Community 2,NA,TRUE,j,j,NA,NA,NA,NA,6,"9,12,13,1,14,11,8,3,2,15,6,4,7,5,10"
14156,commdev-image-keyboard-response,255,560798,learnblock1,838.3999999999069,img/planet8_right.png,8,Community 2,NA,TRUE,j,j,NA,NA,NA,NA,6,"9,12,13,1,14,11,8,3,2,15,6,4,7,5,10"
14156,commdev-image-keyboard-response,256,562054,learnblock1,787.8000000002794,img/planet2_right.png,2,Community 2,NA,TRUE,j,j,NA,NA,NA,NA,6,"9,12,13,1,14,11,8,3,2,15,6,4,7,5,10"
14156,commdev-image-keyboard-response,257,563309,learnblock1,816.2999999998137,img/planet3_right.png,3,Community 2,NA,TRUE,j,j,NA,NA,NA,NA,6,"9,12,13,1,14,11,8,3,2,15,6,4,7,5,10"
14156,commdev-image-keyboard-response,258,564563,learnblock1,949.7999999998137,img/planet8_right.png,8,Community 2,NA,FALSE,f,j,NA,NA,NA,NA,6,"9,12,13,1,14,11,8,3,2,15,6,4,7,5,10"
14156,commdev-image-keyboard-response,259,565829,learnblock1,532.2999999998137,img/planet2_left.png,2,Community 2,NA,FALSE,j,f,NA,NA,NA,NA,6,"9,12,13,1,14,11,8,3,2,15,6,4,7,5,10"
14156,commdev-image-keyboard-response,260,567088,learnblock1,1153.3999999999069,img/planet8_right.png,8,Community 2,NA,TRUE,j,j,NA,NA,NA,NA,6,"9,12,13,1,14,11,8,3,2,15,6,4,7,5,10"
14156,commdev-image-keyboard-response,261,568343,learnblock1,740.6999999997206,img/planet2_right.png,2,Community 2,NA,FALSE,f,j,NA,NA,NA,NA,6,"9,12,13,1,14,11,8,3,2,15,6,4,7,5,10"
14156,commdev-image-keyboard-response,262,569601,learnblock1,811.5,img/planet15_left.png,15,Community 2,NA,FALSE,j,f,NA,NA,NA,NA,6,"9,12,13,1,14,11,8,3,2,15,6,4,7,5,10"
14156,commdev-image-keyboard-response,263,570857,learnblock1,null,img/planet11_right.png,11,Community 2,NA,FALSE,null,j,NA,NA,NA,NA,6,"9,12,13,1,14,11,8,3,2,15,6,4,7,5,10"
14156,commdev-image-keyboard-response,264,572113,learnblock1,0.7999999998137355,img/planet8_right.png,8,Community 2,NA,TRUE,j,j,NA,NA,NA,NA,6,"9,12,13,1,14,11,8,3,2,15,6,4,7,5,10"
14156,commdev-image-keyboard-response,265,573368,learnblock1,860.8000000002794,img/planet3_right.png,3,Community 2,NA,TRUE,j,j,NA,NA,NA,NA,6,"9,12,13,1,14,11,8,3,2,15,6,4,7,5,10"
14156,commdev-image-keyboard-response,266,574623,learnblock1,639.5,img/planet15_right.png,15,Community 2,NA,TRUE,j,j,NA,NA,NA,NA,6,"9,12,13,1,14,11,8,3,2,15,6,4,7,5,10"
14156,commdev-image-keyboard-response,267,575879,learnblock1,969.6000000000931,img/planet8_left.png,8,Community 2,NA,FALSE,j,f,NA,NA,NA,NA,6,"9,12,13,1,14,11,8,3,2,15,6,4,7,5,10"
14156,commdev-image-keyboard-response,268,577132,learnblock1,774,img/planet2_left.png,2,Community 2,NA,TRUE,f,f,NA,NA,NA,NA,6,"9,12,13,1,14,11,8,3,2,15,6,4,7,5,10"
14156,commdev-image-keyboard-response,269,578388,learnblock1,660.1000000000931,img/planet3_right.png,3,Community 2,NA,TRUE,j,j,NA,NA,NA,NA,6,"9,12,13,1,14,11,8,3,2,15,6,4,7,5,10"
14156,commdev-image-keyboard-response,270,579646,learnblock1,770.1000000000931,img/planet4_left.png,4,Community 3,NA,TRUE,f,f,NA,NA,NA,NA,6,"9,12,13,1,14,11,8,3,2,15,6,4,7,5,10"
14156,commdev-image-keyboard-response,271,580904,learnblock1,744.6000000000931,img/planet5_right.png,5,Community 3,NA,TRUE,j,j,NA,NA,NA,NA,6,"9,12,13,1,14,11,8,3,2,15,6,4,7,5,10"
14156,commdev-image-keyboard-response,272,582160,learnblock1,567.7999999998137,img/planet10_left.png,10,Community 3,NA,TRUE,f,f,NA,NA,NA,NA,6,"9,12,13,1,14,11,8,3,2,15,6,4,7,5,10"
14156,commdev-image-keyboard-response,273,583415,learnblock1,681.3000000002794,img/planet6_left.png,6,Community 3,NA,TRUE,f,f,NA,NA,NA,NA,6,"9,12,13,1,14,11,8,3,2,15,6,4,7,5,10"
14156,commdev-image-keyboard-response,274,584671,learnblock1,831.1999999997206,img/planet5_right.png,5,Community 3,NA,TRUE,j,j,NA,NA,NA,NA,6,"9,12,13,1,14,11,8,3,2,15,6,4,7,5,10"
14156,commdev-image-keyboard-response,275,585926,learnblock1,803.2999999998137,img/planet10_right.png,10,Community 3,NA,TRUE,j,j,NA,NA,NA,NA,6,"9,12,13,1,14,11,8,3,2,15,6,4,7,5,10"
14156,commdev-image-keyboard-response,276,587183,learnblock1,849,img/planet5_left.png,5,Community 3,NA,TRUE,f,f,NA,NA,NA,NA,6,"9,12,13,1,14,11,8,3,2,15,6,4,7,5,10"
14156,commdev-image-keyboard-response,277,588438,learnblock1,950.0999999996275,img/planet4_left.png,4,Community 3,NA,TRUE,f,f,NA,NA,NA,NA,6,"9,12,13,1,14,11,8,3,2,15,6,4,7,5,10"
14156,commdev-image-keyboard-response,278,589695,learnblock1,766.7000000001863,img/planet7_right.png,7,Community 3,NA,TRUE,j,j,NA,NA,NA,NA,6,"9,12,13,1,14,11,8,3,2,15,6,4,7,5,10"
14156,commdev-image-keyboard-response,279,590952,learnblock1,842.8999999999069,img/planet5_right.png,5,Community 3,NA,TRUE,j,j,NA,NA,NA,NA,6,"9,12,13,1,14,11,8,3,2,15,6,4,7,5,10"
14156,commdev-image-keyboard-response,280,592208,learnblock1,568.0999999996275,img/planet10_left.png,10,Community 3,NA,TRUE,f,f,NA,NA,NA,NA,6,"9,12,13,1,14,11,8,3,2,15,6,4,7,5,10"
14156,commdev-image-keyboard-response,281,593461,learnblock1,735.5999999996275,img/planet4_left.png,4,Community 3,NA,TRUE,f,f,NA,NA,NA,NA,6,"9,12,13,1,14,11,8,3,2,15,6,4,7,5,10"
14156,commdev-image-keyboard-response,282,594717,learnblock1,770.6000000000931,img/planet3_left.png,3,Community 2,NA,TRUE,f,f,NA,NA,NA,NA,6,"9,12,13,1,14,11,8,3,2,15,6,4,7,5,10"
14156,commdev-image-keyboard-response,283,595975,learnblock1,712.7999999998137,img/planet15_right.png,15,Community 2,NA,TRUE,j,j,NA,NA,NA,NA,6,"9,12,13,1,14,11,8,3,2,15,6,4,7,5,10"
14156,commdev-image-keyboard-response,284,597231,learnblock1,750,img/planet2_right.png,2,Community 2,NA,TRUE,j,j,NA,NA,NA,NA,6,"9,12,13,1,14,11,8,3,2,15,6,4,7,5,10"
14156,commdev-image-keyboard-response,285,598487,learnblock1,771.5,img/planet8_left.png,8,Community 2,NA,TRUE,f,f,NA,NA,NA,NA,6,"9,12,13,1,14,11,8,3,2,15,6,4,7,5,10"
14156,commdev-image-keyboard-response,286,599740,learnblock1,816.1000000000931,img/planet11_left.png,11,Community 2,NA,TRUE,f,f,NA,NA,NA,NA,6,"9,12,13,1,14,11,8,3,2,15,6,4,7,5,10"
14156,commdev-image-keyboard-response,287,600997,learnblock1,816.1000000000931,img/planet2_right.png,2,Community 2,NA,TRUE,j,j,NA,NA,NA,NA,6,"9,12,13,1,14,11,8,3,2,15,6,4,7,5,10"
14156,commdev-image-keyboard-response,288,602253,learnblock1,713.3999999999069,img/planet15_left.png,15,Community 2,NA,TRUE,f,f,NA,NA,NA,NA,6,"9,12,13,1,14,11,8,3,2,15,6,4,7,5,10"
14156,commdev-image-keyboard-response,289,603518,learnblock1,780.2999999998137,img/planet11_left.png,11,Community 2,NA,TRUE,f,f,NA,NA,NA,NA,6,"9,12,13,1,14,11,8,3,2,15,6,4,7,5,10"
14156,commdev-image-keyboard-response,290,604773,learnblock1,814.8999999999069,img/planet15_left.png,15,Community 2,NA,TRUE,f,f,NA,NA,NA,NA,6,"9,12,13,1,14,11,8,3,2,15,6,4,7,5,10"
14156,commdev-image-keyboard-response,291,606026,learnblock1,1096.4000000003725,img/planet11_right.png,11,Community 2,NA,TRUE,j,j,NA,NA,NA,NA,6,"9,12,13,1,14,11,8,3,2,15,6,4,7,5,10"
14156,commdev-image-keyboard-response,292,607283,learnblock1,822,img/planet2_left.png,2,Community 2,NA,TRUE,f,f,NA,NA,NA,NA,6,"9,12,13,1,14,11,8,3,2,15,6,4,7,5,10"
14156,commdev-image-keyboard-response,293,608540,learnblock1,728.2000000001863,img/planet11_left.png,11,Community 2,NA,FALSE,j,f,NA,NA,NA,NA,6,"9,12,13,1,14,11,8,3,2,15,6,4,7,5,10"
14156,commdev-image-keyboard-response,294,609794,learnblock1,937.3000000002794,img/planet8_right.png,8,Community 2,NA,TRUE,j,j,NA,NA,NA,NA,6,"9,12,13,1,14,11,8,3,2,15,6,4,7,5,10"
14156,commdev-image-keyboard-response,295,611052,learnblock1,850.1000000000931,img/planet15_left.png,15,Community 2,NA,TRUE,f,f,NA,NA,NA,NA,6,"9,12,13,1,14,11,8,3,2,15,6,4,7,5,10"
14156,commdev-image-keyboard-response,296,612307,learnblock1,753.3999999999069,img/planet2_right.png,2,Community 2,NA,TRUE,j,j,NA,NA,NA,NA,6,"9,12,13,1,14,11,8,3,2,15,6,4,7,5,10"
14156,commdev-image-keyboard-response,297,613563,learnblock1,936.7999999998137,img/planet3_right.png,3,Community 2,NA,TRUE,j,j,NA,NA,NA,NA,6,"9,12,13,1,14,11,8,3,2,15,6,4,7,5,10"
14156,commdev-image-keyboard-response,298,614818,learnblock1,605.7999999998137,img/planet8_left.png,8,Community 2,NA,TRUE,f,f,NA,NA,NA,NA,6,"9,12,13,1,14,11,8,3,2,15,6,4,7,5,10"
14156,commdev-image-keyboard-response,299,616073,learnblock1,476.20000000018626,img/planet2_left.png,2,Community 2,NA,FALSE,j,f,NA,NA,NA,NA,6,"9,12,13,1,14,11,8,3,2,15,6,4,7,5,10"
14156,commdev-image-keyboard-response,300,617329,learnblock1,388.3000000002794,img/planet15_left.png,15,Community 2,NA,FALSE,j,f,NA,NA,NA,NA,6,"9,12,13,1,14,11,8,3,2,15,6,4,7,5,10"
14156,commdev-image-keyboard-response,301,618585,learnblock1,104.20000000018626,img/planet8_left.png,8,Community 2,NA,TRUE,f,f,NA,NA,NA,NA,6,"9,12,13,1,14,11,8,3,2,15,6,4,7,5,10"
14156,commdev-image-keyboard-response,302,619838,learnblock1,774.2000000001863,img/planet3_right.png,3,Community 2,NA,TRUE,j,j,NA,NA,NA,NA,6,"9,12,13,1,14,11,8,3,2,15,6,4,7,5,10"
14156,commdev-image-keyboard-response,303,621093,learnblock1,872.4000000003725,img/planet4_right.png,4,Community 3,NA,TRUE,j,j,NA,NA,NA,NA,6,"9,12,13,1,14,11,8,3,2,15,6,4,7,5,10"
14156,commdev-image-keyboard-response,304,622349,learnblock1,877.3000000002794,img/planet7_right.png,7,Community 3,NA,TRUE,j,j,NA,NA,NA,NA,6,"9,12,13,1,14,11,8,3,2,15,6,4,7,5,10"
14156,commdev-image-keyboard-response,305,623605,learnblock1,872.9000000003725,img/planet6_left.png,6,Community 3,NA,TRUE,f,f,NA,NA,NA,NA,6,"9,12,13,1,14,11,8,3,2,15,6,4,7,5,10"
14156,commdev-image-keyboard-response,306,624859,learnblock1,776.5,img/planet7_right.png,7,Community 3,NA,TRUE,j,j,NA,NA,NA,NA,6,"9,12,13,1,14,11,8,3,2,15,6,4,7,5,10"
14156,commdev-image-keyboard-response,307,626115,learnblock1,714.7000000001863,img/planet10_right.png,10,Community 3,NA,TRUE,j,j,NA,NA,NA,NA,6,"9,12,13,1,14,11,8,3,2,15,6,4,7,5,10"
14156,commdev-image-keyboard-response,308,627370,learnblock1,695.8000000002794,img/planet4_left.png,4,Community 3,NA,TRUE,f,f,NA,NA,NA,NA,6,"9,12,13,1,14,11,8,3,2,15,6,4,7,5,10"
14156,commdev-image-keyboard-response,309,628627,learnblock1,642.1999999997206,img/planet10_right.png,10,Community 3,NA,TRUE,j,j,NA,NA,NA,NA,6,"9,12,13,1,14,11,8,3,2,15,6,4,7,5,10"
14156,commdev-image-keyboard-response,310,629882,learnblock1,663.8000000002794,img/planet5_right.png,5,Community 3,NA,TRUE,j,j,NA,NA,NA,NA,6,"9,12,13,1,14,11,8,3,2,15,6,4,7,5,10"
14156,commdev-image-keyboard-response,311,631139,learnblock1,916.5,img/planet7_right.png,7,Community 3,NA,TRUE,j,j,NA,NA,NA,NA,6,"9,12,13,1,14,11,8,3,2,15,6,4,7,5,10"
14156,commdev-image-keyboard-response,312,632395,learnblock1,579.3999999999069,img/planet10_left.png,10,Community 3,NA,TRUE,f,f,NA,NA,NA,NA,6,"9,12,13,1,14,11,8,3,2,15,6,4,7,5,10"
14156,commdev-image-keyboard-response,313,633651,learnblock1,725.9000000003725,img/planet5_right.png,5,Community 3,NA,TRUE,j,j,NA,NA,NA,NA,6,"9,12,13,1,14,11,8,3,2,15,6,4,7,5,10"
14156,commdev-image-keyboard-response,314,634903,learnblock1,852.8999999999069,img/planet6_right.png,6,Community 3,NA,FALSE,f,j,NA,NA,NA,NA,6,"9,12,13,1,14,11,8,3,2,15,6,4,7,5,10"
14156,commdev-image-keyboard-response,315,636159,learnblock1,774.8000000002794,img/planet14_left.png,14,Community 1,NA,TRUE,f,f,NA,NA,NA,NA,6,"9,12,13,1,14,11,8,3,2,15,6,4,7,5,10"
14156,commdev-image-keyboard-response,316,637414,learnblock1,626.2000000001863,img/planet12_right.png,12,Community 1,NA,TRUE,j,j,NA,NA,NA,NA,6,"9,12,13,1,14,11,8,3,2,15,6,4,7,5,10"
14156,commdev-image-keyboard-response,317,638670,learnblock1,877.1000000000931,img/planet14_left.png,14,Community 1,NA,FALSE,j,f,NA,NA,NA,NA,6,"9,12,13,1,14,11,8,3,2,15,6,4,7,5,10"
14156,commdev-image-keyboard-response,318,639925,learnblock1,878.8000000002794,img/planet12_left.png,12,Community 1,NA,TRUE,f,f,NA,NA,NA,NA,6,"9,12,13,1,14,11,8,3,2,15,6,4,7,5,10"
14156,commdev-image-keyboard-response,319,641180,learnblock1,820.7000000001863,img/planet9_right.png,9,Community 1,NA,TRUE,j,j,NA,NA,NA,NA,6,"9,12,13,1,14,11,8,3,2,15,6,4,7,5,10"
14156,commdev-image-keyboard-response,320,642436,learnblock1,847.2000000001863,img/planet13_right.png,13,Community 1,NA,TRUE,j,j,NA,NA,NA,NA,6,"9,12,13,1,14,11,8,3,2,15,6,4,7,5,10"
14156,commdev-image-keyboard-response,321,643690,learnblock1,638.5,img/planet9_left.png,9,Community 1,NA,TRUE,f,f,NA,NA,NA,NA,6,"9,12,13,1,14,11,8,3,2,15,6,4,7,5,10"
14156,commdev-image-keyboard-response,322,644944,learnblock1,756.6000000000931,img/planet14_right.png,14,Community 1,NA,TRUE,j,j,NA,NA,NA,NA,6,"9,12,13,1,14,11,8,3,2,15,6,4,7,5,10"
14156,commdev-image-keyboard-response,323,646202,learnblock1,778.2999999998137,img/planet13_right.png,13,Community 1,NA,TRUE,j,j,NA,NA,NA,NA,6,"9,12,13,1,14,11,8,3,2,15,6,4,7,5,10"
14156,commdev-image-keyboard-response,324,647458,learnblock1,716.0999999996275,img/planet9_left.png,9,Community 1,NA,TRUE,f,f,NA,NA,NA,NA,6,"9,12,13,1,14,11,8,3,2,15,6,4,7,5,10"
14156,commdev-image-keyboard-response,325,648715,learnblock1,566.5,img/planet13_right.png,13,Community 1,NA,TRUE,j,j,NA,NA,NA,NA,6,"9,12,13,1,14,11,8,3,2,15,6,4,7,5,10"
14156,commdev-image-keyboard-response,326,649968,learnblock1,963.7000000001863,img/planet9_left.png,9,Community 1,NA,TRUE,f,f,NA,NA,NA,NA,6,"9,12,13,1,14,11,8,3,2,15,6,4,7,5,10"
14156,commdev-image-keyboard-response,327,651227,learnblock1,769.4000000003725,img/planet1_right.png,1,Community 1,NA,TRUE,j,j,NA,NA,NA,NA,6,"9,12,13,1,14,11,8,3,2,15,6,4,7,5,10"
14156,commdev-image-keyboard-response,328,652483,learnblock1,663.2999999998137,img/planet11_left.png,11,Community 2,NA,TRUE,f,f,NA,NA,NA,NA,6,"9,12,13,1,14,11,8,3,2,15,6,4,7,5,10"
14156,commdev-image-keyboard-response,329,653738,learnblock1,777.7999999998137,img/planet2_left.png,2,Community 2,NA,TRUE,f,f,NA,NA,NA,NA,6,"9,12,13,1,14,11,8,3,2,15,6,4,7,5,10"
14156,commdev-image-keyboard-response,330,654992,learnblock1,987.3000000002794,img/planet8_left.png,8,Community 2,NA,TRUE,f,f,NA,NA,NA,NA,6,"9,12,13,1,14,11,8,3,2,15,6,4,7,5,10"
14156,commdev-image-keyboard-response,331,656250,learnblock1,701.6000000000931,img/planet3_left.png,3,Community 2,NA,TRUE,f,f,NA,NA,NA,NA,6,"9,12,13,1,14,11,8,3,2,15,6,4,7,5,10"
14156,commdev-image-keyboard-response,332,657505,learnblock1,720,img/planet15_right.png,15,Community 2,NA,TRUE,j,j,NA,NA,NA,NA,6,"9,12,13,1,14,11,8,3,2,15,6,4,7,5,10"
14156,commdev-image-keyboard-response,333,658760,learnblock1,966.5,img/planet2_right.png,2,Community 2,NA,TRUE,j,j,NA,NA,NA,NA,6,"9,12,13,1,14,11,8,3,2,15,6,4,7,5,10"
14156,commdev-image-keyboard-response,334,660016,learnblock1,829.6000000000931,img/planet3_right.png,3,Community 2,NA,TRUE,j,j,NA,NA,NA,NA,6,"9,12,13,1,14,11,8,3,2,15,6,4,7,5,10"
14156,commdev-image-keyboard-response,335,661272,learnblock1,752.3999999999069,img/planet2_right.png,2,Community 2,NA,TRUE,j,j,NA,NA,NA,NA,6,"9,12,13,1,14,11,8,3,2,15,6,4,7,5,10"
14156,commdev-image-keyboard-response,336,662527,learnblock1,758.5,img/planet8_left.png,8,Community 2,NA,TRUE,f,f,NA,NA,NA,NA,6,"9,12,13,1,14,11,8,3,2,15,6,4,7,5,10"
14156,commdev-image-keyboard-response,337,663782,learnblock1,717.5,img/planet15_right.png,15,Community 2,NA,TRUE,j,j,NA,NA,NA,NA,6,"9,12,13,1,14,11,8,3,2,15,6,4,7,5,10"
14156,commdev-image-keyboard-response,338,665036,learnblock1,1017.6000000000931,img/planet3_right.png,3,Community 2,NA,TRUE,j,j,NA,NA,NA,NA,6,"9,12,13,1,14,11,8,3,2,15,6,4,7,5,10"
14156,commdev-image-keyboard-response,339,666289,learnblock1,994.7000000001863,img/planet15_left.png,15,Community 2,NA,TRUE,f,f,NA,NA,NA,NA,6,"9,12,13,1,14,11,8,3,2,15,6,4,7,5,10"
14156,commdev-image-keyboard-response,340,667550,learnblock1,861.6999999997206,img/planet2_left.png,2,Community 2,NA,TRUE,f,f,NA,NA,NA,NA,6,"9,12,13,1,14,11,8,3,2,15,6,4,7,5,10"
14156,commdev-image-keyboard-response,341,668805,learnblock1,1035,img/planet11_right.png,11,Community 2,NA,TRUE,j,j,NA,NA,NA,NA,6,"9,12,13,1,14,11,8,3,2,15,6,4,7,5,10"
14156,commdev-image-keyboard-response,342,670061,learnblock1,754,img/planet1_right.png,1,Community 1,NA,TRUE,j,j,NA,NA,NA,NA,6,"9,12,13,1,14,11,8,3,2,15,6,4,7,5,10"
14156,commdev-image-keyboard-response,343,671316,learnblock1,937.3000000002794,img/planet13_right.png,13,Community 1,NA,TRUE,j,j,NA,NA,NA,NA,6,"9,12,13,1,14,11,8,3,2,15,6,4,7,5,10"
14156,commdev-image-keyboard-response,344,672572,learnblock1,null,img/planet9_right.png,9,Community 1,NA,FALSE,null,j,NA,NA,NA,NA,6,"9,12,13,1,14,11,8,3,2,15,6,4,7,5,10"
14156,commdev-image-keyboard-response,345,673829,learnblock1,131.5,img/planet1_right.png,1,Community 1,NA,TRUE,j,j,NA,NA,NA,NA,6,"9,12,13,1,14,11,8,3,2,15,6,4,7,5,10"
14156,commdev-image-keyboard-response,346,675084,learnblock1,35.1999999997206,img/planet11_right.png,11,Community 2,NA,FALSE,f,j,NA,NA,NA,NA,6,"9,12,13,1,14,11,8,3,2,15,6,4,7,5,10"
14156,commdev-image-keyboard-response,347,676339,learnblock1,122.29999999981374,img/planet2_left.png,2,Community 2,NA,FALSE,j,f,NA,NA,NA,NA,6,"9,12,13,1,14,11,8,3,2,15,6,4,7,5,10"
14156,commdev-image-keyboard-response,351,936756,learnblock2,821.3000000002794,img/planet7_right.png,7,Community 3,NA,TRUE,j,j,NA,NA,NA,NA,6,"9,12,13,1,14,11,8,3,2,15,6,4,7,5,10"
14156,commdev-image-keyboard-response,352,938013,learnblock2,685.5,img/planet5_left.png,5,Community 3,NA,TRUE,f,f,NA,NA,NA,NA,6,"9,12,13,1,14,11,8,3,2,15,6,4,7,5,10"
14156,commdev-image-keyboard-response,353,939268,learnblock2,583.5,img/planet7_left.png,7,Community 3,NA,TRUE,f,f,NA,NA,NA,NA,6,"9,12,13,1,14,11,8,3,2,15,6,4,7,5,10"
14156,commdev-image-keyboard-response,354,940526,learnblock2,772.3999999999069,img/planet5_left.png,5,Community 3,NA,TRUE,f,f,NA,NA,NA,NA,6,"9,12,13,1,14,11,8,3,2,15,6,4,7,5,10"
14156,commdev-image-keyboard-response,355,941782,learnblock2,562.6000000000931,img/planet10_right.png,10,Community 3,NA,TRUE,j,j,NA,NA,NA,NA,6,"9,12,13,1,14,11,8,3,2,15,6,4,7,5,10"
14156,commdev-image-keyboard-response,356,943038,learnblock2,805.8000000002794,img/planet6_right.png,6,Community 3,NA,TRUE,j,j,NA,NA,NA,NA,6,"9,12,13,1,14,11,8,3,2,15,6,4,7,5,10"
14156,commdev-image-keyboard-response,357,944295,learnblock2,622.1000000000931,img/planet5_left.png,5,Community 3,NA,TRUE,f,f,NA,NA,NA,NA,6,"9,12,13,1,14,11,8,3,2,15,6,4,7,5,10"
14156,commdev-image-keyboard-response,358,945550,learnblock2,762.7999999998137,img/planet6_left.png,6,Community 3,NA,TRUE,f,f,NA,NA,NA,NA,6,"9,12,13,1,14,11,8,3,2,15,6,4,7,5,10"
14156,commdev-image-keyboard-response,359,946806,learnblock2,520.3999999999069,img/planet10_right.png,10,Community 3,NA,TRUE,j,j,NA,NA,NA,NA,6,"9,12,13,1,14,11,8,3,2,15,6,4,7,5,10"
14156,commdev-image-keyboard-response,360,948060,learnblock2,580.4000000003725,img/planet5_left.png,5,Community 3,NA,TRUE,f,f,NA,NA,NA,NA,6,"9,12,13,1,14,11,8,3,2,15,6,4,7,5,10"
14156,commdev-image-keyboard-response,361,949319,learnblock2,516.5,img/planet4_right.png,4,Community 3,NA,TRUE,j,j,NA,NA,NA,NA,6,"9,12,13,1,14,11,8,3,2,15,6,4,7,5,10"
14156,commdev-image-keyboard-response,362,950575,learnblock2,561,img/planet10_left.png,10,Community 3,NA,TRUE,f,f,NA,NA,NA,NA,6,"9,12,13,1,14,11,8,3,2,15,6,4,7,5,10"
14156,commdev-image-keyboard-response,363,951830,learnblock2,675.5999999996275,img/planet4_left.png,4,Community 3,NA,TRUE,f,f,NA,NA,NA,NA,6,"9,12,13,1,14,11,8,3,2,15,6,4,7,5,10"
14156,commdev-image-keyboard-response,364,953085,learnblock2,637.8999999999069,img/planet5_right.png,5,Community 3,NA,TRUE,j,j,NA,NA,NA,NA,6,"9,12,13,1,14,11,8,3,2,15,6,4,7,5,10"
14156,commdev-image-keyboard-response,365,954343,learnblock2,699.2000000001863,img/planet4_left.png,4,Community 3,NA,TRUE,f,f,NA,NA,NA,NA,6,"9,12,13,1,14,11,8,3,2,15,6,4,7,5,10"
14156,commdev-image-keyboard-response,366,955601,learnblock2,676.1000000000931,img/planet10_right.png,10,Community 3,NA,TRUE,j,j,NA,NA,NA,NA,6,"9,12,13,1,14,11,8,3,2,15,6,4,7,5,10"
14156,commdev-image-keyboard-response,367,956855,learnblock2,646.5,img/planet4_right.png,4,Community 3,NA,FALSE,f,j,NA,NA,NA,NA,6,"9,12,13,1,14,11,8,3,2,15,6,4,7,5,10"
14156,commdev-image-keyboard-response,368,958111,learnblock2,564,img/planet10_right.png,10,Community 3,NA,TRUE,j,j,NA,NA,NA,NA,6,"9,12,13,1,14,11,8,3,2,15,6,4,7,5,10"
14156,commdev-image-keyboard-response,369,959368,learnblock2,587.1000000000931,img/planet7_right.png,7,Community 3,NA,TRUE,j,j,NA,NA,NA,NA,6,"9,12,13,1,14,11,8,3,2,15,6,4,7,5,10"
14156,commdev-image-keyboard-response,370,960624,learnblock2,607.6000000000931,img/planet10_left.png,10,Community 3,NA,TRUE,f,f,NA,NA,NA,NA,6,"9,12,13,1,14,11,8,3,2,15,6,4,7,5,10"
14156,commdev-image-keyboard-response,371,961879,learnblock2,642.2999999998137,img/planet5_left.png,5,Community 3,NA,TRUE,f,f,NA,NA,NA,NA,6,"9,12,13,1,14,11,8,3,2,15,6,4,7,5,10"
14156,commdev-image-keyboard-response,372,963134,learnblock2,517.8999999999069,img/planet10_right.png,10,Community 3,NA,TRUE,j,j,NA,NA,NA,NA,6,"9,12,13,1,14,11,8,3,2,15,6,4,7,5,10"
14156,commdev-image-keyboard-response,373,964390,learnblock2,488.79999999981374,img/planet5_left.png,5,Community 3,NA,TRUE,f,f,NA,NA,NA,NA,6,"9,12,13,1,14,11,8,3,2,15,6,4,7,5,10"
14156,commdev-image-keyboard-response,374,965644,learnblock2,580.2000000001863,img/planet6_left.png,6,Community 3,NA,TRUE,f,f,NA,NA,NA,NA,6,"9,12,13,1,14,11,8,3,2,15,6,4,7,5,10"
14156,commdev-image-keyboard-response,375,966901,learnblock2,931.3999999999069,img/planet14_left.png,14,Community 1,NA,TRUE,f,f,NA,NA,NA,NA,6,"9,12,13,1,14,11,8,3,2,15,6,4,7,5,10"
14156,commdev-image-keyboard-response,376,968156,learnblock2,799.5,img/planet12_right.png,12,Community 1,NA,TRUE,j,j,NA,NA,NA,NA,6,"9,12,13,1,14,11,8,3,2,15,6,4,7,5,10"
14156,commdev-image-keyboard-response,377,969409,learnblock2,744.7000000001863,img/planet13_right.png,13,Community 1,NA,TRUE,j,j,NA,NA,NA,NA,6,"9,12,13,1,14,11,8,3,2,15,6,4,7,5,10"
14156,commdev-image-keyboard-response,378,970664,learnblock2,511.8000000002794,img/planet9_right.png,9,Community 1,NA,TRUE,j,j,NA,NA,NA,NA,6,"9,12,13,1,14,11,8,3,2,15,6,4,7,5,10"
14156,commdev-image-keyboard-response,379,971917,learnblock2,707.8999999999069,img/planet13_right.png,13,Community 1,NA,TRUE,j,j,NA,NA,NA,NA,6,"9,12,13,1,14,11,8,3,2,15,6,4,7,5,10"
14156,commdev-image-keyboard-response,380,973176,learnblock2,601.6000000000931,img/planet12_left.png,12,Community 1,NA,FALSE,j,f,NA,NA,NA,NA,6,"9,12,13,1,14,11,8,3,2,15,6,4,7,5,10"
14156,commdev-image-keyboard-response,381,974432,learnblock2,785,img/planet1_right.png,1,Community 1,NA,TRUE,j,j,NA,NA,NA,NA,6,"9,12,13,1,14,11,8,3,2,15,6,4,7,5,10"
14156,commdev-image-keyboard-response,382,975687,learnblock2,1003.6999999997206,img/planet13_right.png,13,Community 1,NA,TRUE,j,j,NA,NA,NA,NA,6,"9,12,13,1,14,11,8,3,2,15,6,4,7,5,10"
14156,commdev-image-keyboard-response,383,976940,learnblock2,1084.1000000000931,img/planet1_right.png,1,Community 1,NA,TRUE,j,j,NA,NA,NA,NA,6,"9,12,13,1,14,11,8,3,2,15,6,4,7,5,10"
14156,commdev-image-keyboard-response,384,978194,learnblock2,669.5999999996275,img/planet11_left.png,11,Community 2,NA,TRUE,f,f,NA,NA,NA,NA,6,"9,12,13,1,14,11,8,3,2,15,6,4,7,5,10"
14156,commdev-image-keyboard-response,385,979451,learnblock2,772.3999999999069,img/planet2_right.png,2,Community 2,NA,FALSE,f,j,NA,NA,NA,NA,6,"9,12,13,1,14,11,8,3,2,15,6,4,7,5,10"
14156,commdev-image-keyboard-response,386,980709,learnblock2,791.6000000000931,img/planet11_right.png,11,Community 2,NA,TRUE,j,j,NA,NA,NA,NA,6,"9,12,13,1,14,11,8,3,2,15,6,4,7,5,10"
14156,commdev-image-keyboard-response,387,981966,learnblock2,596,img/planet1_right.png,1,Community 1,NA,TRUE,j,j,NA,NA,NA,NA,6,"9,12,13,1,14,11,8,3,2,15,6,4,7,5,10"
14156,commdev-image-keyboard-response,388,983219,learnblock2,809.8999999999069,img/planet12_right.png,12,Community 1,NA,TRUE,j,j,NA,NA,NA,NA,6,"9,12,13,1,14,11,8,3,2,15,6,4,7,5,10"
14156,commdev-image-keyboard-response,389,984477,learnblock2,622.8000000002794,img/planet14_left.png,14,Community 1,NA,TRUE,f,f,NA,NA,NA,NA,6,"9,12,13,1,14,11,8,3,2,15,6,4,7,5,10"
14156,commdev-image-keyboard-response,390,985735,learnblock2,789.3999999999069,img/planet6_left.png,6,Community 3,NA,TRUE,f,f,NA,NA,NA,NA,6,"9,12,13,1,14,11,8,3,2,15,6,4,7,5,10"
14156,commdev-image-keyboard-response,391,986989,learnblock2,811.7000000001863,img/planet5_left.png,5,Community 3,NA,TRUE,f,f,NA,NA,NA,NA,6,"9,12,13,1,14,11,8,3,2,15,6,4,7,5,10"
14156,commdev-image-keyboard-response,392,988244,learnblock2,784.1999999997206,img/planet10_right.png,10,Community 3,NA,TRUE,j,j,NA,NA,NA,NA,6,"9,12,13,1,14,11,8,3,2,15,6,4,7,5,10"
14156,commdev-image-keyboard-response,393,989499,learnblock2,644,img/planet5_right.png,5,Community 3,NA,TRUE,j,j,NA,NA,NA,NA,6,"9,12,13,1,14,11,8,3,2,15,6,4,7,5,10"
14156,commdev-image-keyboard-response,394,990755,learnblock2,755.1000000000931,img/planet6_right.png,6,Community 3,NA,TRUE,j,j,NA,NA,NA,NA,6,"9,12,13,1,14,11,8,3,2,15,6,4,7,5,10"
14156,commdev-image-keyboard-response,395,992009,learnblock2,587.7000000001863,img/planet10_left.png,10,Community 3,NA,TRUE,f,f,NA,NA,NA,NA,6,"9,12,13,1,14,11,8,3,2,15,6,4,7,5,10"
14156,commdev-image-keyboard-response,396,993266,learnblock2,953.3999999999069,img/planet5_right.png,5,Community 3,NA,TRUE,j,j,NA,NA,NA,NA,6,"9,12,13,1,14,11,8,3,2,15,6,4,7,5,10"
14156,commdev-image-keyboard-response,397,994522,learnblock2,616.1000000000931,img/planet7_right.png,7,Community 3,NA,TRUE,j,j,NA,NA,NA,NA,6,"9,12,13,1,14,11,8,3,2,15,6,4,7,5,10"
14156,commdev-image-keyboard-response,398,995778,learnblock2,114.60000000009313,img/planet4_left.png,4,Community 3,NA,FALSE,j,f,NA,NA,NA,NA,6,"9,12,13,1,14,11,8,3,2,15,6,4,7,5,10"
14156,commdev-image-keyboard-response,399,997031,learnblock2,704.8000000002794,img/planet3_left.png,3,Community 2,NA,TRUE,f,f,NA,NA,NA,NA,6,"9,12,13,1,14,11,8,3,2,15,6,4,7,5,10"
14156,commdev-image-keyboard-response,400,998290,learnblock2,738.1000000000931,img/planet2_left.png,2,Community 2,NA,TRUE,f,f,NA,NA,NA,NA,6,"9,12,13,1,14,11,8,3,2,15,6,4,7,5,10"
14156,commdev-image-keyboard-response,401,999550,learnblock2,616.2000000001863,img/planet3_right.png,3,Community 2,NA,TRUE,j,j,NA,NA,NA,NA,6,"9,12,13,1,14,11,8,3,2,15,6,4,7,5,10"
14156,commdev-image-keyboard-response,402,1000806,learnblock2,503.89999999990687,img/planet4_left.png,4,Community 3,NA,TRUE,f,f,NA,NA,NA,NA,6,"9,12,13,1,14,11,8,3,2,15,6,4,7,5,10"
14156,commdev-image-keyboard-response,403,1002062,learnblock2,511,img/planet7_left.png,7,Community 3,NA,TRUE,f,f,NA,NA,NA,NA,6,"9,12,13,1,14,11,8,3,2,15,6,4,7,5,10"
14156,commdev-image-keyboard-response,404,1003318,learnblock2,672.6000000000931,img/planet5_right.png,5,Community 3,NA,TRUE,j,j,NA,NA,NA,NA,6,"9,12,13,1,14,11,8,3,2,15,6,4,7,5,10"
14156,commdev-image-keyboard-response,405,1004571,learnblock2,507.29999999981374,img/planet10_left.png,10,Community 3,NA,TRUE,f,f,NA,NA,NA,NA,6,"9,12,13,1,14,11,8,3,2,15,6,4,7,5,10"
14156,commdev-image-keyboard-response,406,1005828,learnblock2,599.3999999999069,img/planet5_left.png,5,Community 3,NA,FALSE,j,f,NA,NA,NA,NA,6,"9,12,13,1,14,11,8,3,2,15,6,4,7,5,10"
14156,commdev-image-keyboard-response,407,1007083,learnblock2,649.6000000000931,img/planet7_left.png,7,Community 3,NA,FALSE,j,f,NA,NA,NA,NA,6,"9,12,13,1,14,11,8,3,2,15,6,4,7,5,10"
14156,commdev-image-keyboard-response,408,1008340,learnblock2,625.8999999999069,img/planet5_left.png,5,Community 3,NA,TRUE,f,f,NA,NA,NA,NA,6,"9,12,13,1,14,11,8,3,2,15,6,4,7,5,10"
14156,commdev-image-keyboard-response,409,1009598,learnblock2,460.70000000018626,img/planet10_right.png,10,Community 3,NA,TRUE,j,j,NA,NA,NA,NA,6,"9,12,13,1,14,11,8,3,2,15,6,4,7,5,10"
14156,commdev-image-keyboard-response,410,1010854,learnblock2,536,img/planet4_left.png,4,Community 3,NA,TRUE,f,f,NA,NA,NA,NA,6,"9,12,13,1,14,11,8,3,2,15,6,4,7,5,10"
14156,commdev-image-keyboard-response,411,1012108,learnblock2,677.7000000001863,img/planet5_right.png,5,Community 3,NA,FALSE,f,j,NA,NA,NA,NA,6,"9,12,13,1,14,11,8,3,2,15,6,4,7,5,10"
14156,commdev-image-keyboard-response,412,1013366,learnblock2,571.8000000002794,img/planet10_right.png,10,Community 3,NA,FALSE,f,j,NA,NA,NA,NA,6,"9,12,13,1,14,11,8,3,2,15,6,4,7,5,10"
14156,commdev-image-keyboard-response,413,1014621,learnblock2,984.5,img/planet4_right.png,4,Community 3,NA,TRUE,j,j,NA,NA,NA,NA,6,"9,12,13,1,14,11,8,3,2,15,6,4,7,5,10"
14156,commdev-image-keyboard-response,414,1015878,learnblock2,916.7999999998137,img/planet10_right.png,10,Community 3,NA,TRUE,j,j,NA,NA,NA,NA,6,"9,12,13,1,14,11,8,3,2,15,6,4,7,5,10"
14156,commdev-image-keyboard-response,415,1017133,learnblock2,627,img/planet5_left.png,5,Community 3,NA,TRUE,f,f,NA,NA,NA,NA,6,"9,12,13,1,14,11,8,3,2,15,6,4,7,5,10"
14156,commdev-image-keyboard-response,416,1018387,learnblock2,678.6999999997206,img/planet4_right.png,4,Community 3,NA,TRUE,j,j,NA,NA,NA,NA,6,"9,12,13,1,14,11,8,3,2,15,6,4,7,5,10"
14156,commdev-image-keyboard-response,417,1019644,learnblock2,828.1000000000931,img/planet3_right.png,3,Community 2,NA,TRUE,j,j,NA,NA,NA,NA,6,"9,12,13,1,14,11,8,3,2,15,6,4,7,5,10"
14156,commdev-image-keyboard-response,418,1020901,learnblock2,820.7000000001863,img/planet4_right.png,4,Community 3,NA,TRUE,j,j,NA,NA,NA,NA,6,"9,12,13,1,14,11,8,3,2,15,6,4,7,5,10"
14156,commdev-image-keyboard-response,419,1022155,learnblock2,893.5999999996275,img/planet3_right.png,3,Community 2,NA,TRUE,j,j,NA,NA,NA,NA,6,"9,12,13,1,14,11,8,3,2,15,6,4,7,5,10"
14156,commdev-image-keyboard-response,420,1023412,learnblock2,703.2999999998137,img/planet8_left.png,8,Community 2,NA,TRUE,f,f,NA,NA,NA,NA,6,"9,12,13,1,14,11,8,3,2,15,6,4,7,5,10"
14156,commdev-image-keyboard-response,421,1024668,learnblock2,633,img/planet15_right.png,15,Community 2,NA,TRUE,j,j,NA,NA,NA,NA,6,"9,12,13,1,14,11,8,3,2,15,6,4,7,5,10"
14156,commdev-image-keyboard-response,422,1025928,learnblock2,587.8999999999069,img/planet2_left.png,2,Community 2,NA,TRUE,f,f,NA,NA,NA,NA,6,"9,12,13,1,14,11,8,3,2,15,6,4,7,5,10"
14156,commdev-image-keyboard-response,423,1027183,learnblock2,656.7999999998137,img/planet3_right.png,3,Community 2,NA,TRUE,j,j,NA,NA,NA,NA,6,"9,12,13,1,14,11,8,3,2,15,6,4,7,5,10"
14156,commdev-image-keyboard-response,424,1028439,learnblock2,739.8000000002794,img/planet2_right.png,2,Community 2,NA,TRUE,j,j,NA,NA,NA,NA,6,"9,12,13,1,14,11,8,3,2,15,6,4,7,5,10"
14156,commdev-image-keyboard-response,425,1029696,learnblock2,655.2000000001863,img/planet8_left.png,8,Community 2,NA,TRUE,f,f,NA,NA,NA,NA,6,"9,12,13,1,14,11,8,3,2,15,6,4,7,5,10"
14156,commdev-image-keyboard-response,426,1030951,learnblock2,603.8000000002794,img/planet11_left.png,11,Community 2,NA,TRUE,f,f,NA,NA,NA,NA,6,"9,12,13,1,14,11,8,3,2,15,6,4,7,5,10"
14156,commdev-image-keyboard-response,427,1032207,learnblock2,686.8000000002794,img/planet15_left.png,15,Community 2,NA,TRUE,f,f,NA,NA,NA,NA,6,"9,12,13,1,14,11,8,3,2,15,6,4,7,5,10"
14156,commdev-image-keyboard-response,428,1033466,learnblock2,832.8999999999069,img/planet2_left.png,2,Community 2,NA,TRUE,f,f,NA,NA,NA,NA,6,"9,12,13,1,14,11,8,3,2,15,6,4,7,5,10"
14156,commdev-image-keyboard-response,429,1034723,learnblock2,708.2000000001863,img/planet11_right.png,11,Community 2,NA,TRUE,j,j,NA,NA,NA,NA,6,"9,12,13,1,14,11,8,3,2,15,6,4,7,5,10"
14156,commdev-image-keyboard-response,430,1035980,learnblock2,600.5,img/planet2_left.png,2,Community 2,NA,TRUE,f,f,NA,NA,NA,NA,6,"9,12,13,1,14,11,8,3,2,15,6,4,7,5,10"
14156,commdev-image-keyboard-response,431,1037235,learnblock2,680.2999999998137,img/planet15_left.png,15,Community 2,NA,TRUE,f,f,NA,NA,NA,NA,6,"9,12,13,1,14,11,8,3,2,15,6,4,7,5,10"
14156,commdev-image-keyboard-response,432,1038491,learnblock2,614.6999999997206,img/planet3_right.png,3,Community 2,NA,TRUE,j,j,NA,NA,NA,NA,6,"9,12,13,1,14,11,8,3,2,15,6,4,7,5,10"
14156,commdev-image-keyboard-response,433,1039747,learnblock2,734.4000000003725,img/planet4_right.png,4,Community 3,NA,TRUE,j,j,NA,NA,NA,NA,6,"9,12,13,1,14,11,8,3,2,15,6,4,7,5,10"
14156,commdev-image-keyboard-response,434,1041002,learnblock2,744.6999999997206,img/planet5_right.png,5,Community 3,NA,TRUE,j,j,NA,NA,NA,NA,6,"9,12,13,1,14,11,8,3,2,15,6,4,7,5,10"
14156,commdev-image-keyboard-response,435,1042255,learnblock2,1037.1999999997206,img/planet6_right.png,6,Community 3,NA,TRUE,j,j,NA,NA,NA,NA,6,"9,12,13,1,14,11,8,3,2,15,6,4,7,5,10"
14156,commdev-image-keyboard-response,436,1043513,learnblock2,638.8999999999069,img/planet7_left.png,7,Community 3,NA,TRUE,f,f,NA,NA,NA,NA,6,"9,12,13,1,14,11,8,3,2,15,6,4,7,5,10"
14156,commdev-image-keyboard-response,437,1044767,learnblock2,584.3999999999069,img/planet6_right.png,6,Community 3,NA,TRUE,j,j,NA,NA,NA,NA,6,"9,12,13,1,14,11,8,3,2,15,6,4,7,5,10"
14156,commdev-image-keyboard-response,438,1046023,learnblock2,571.8999999999069,img/planet5_left.png,5,Community 3,NA,TRUE,f,f,NA,NA,NA,NA,6,"9,12,13,1,14,11,8,3,2,15,6,4,7,5,10"
14156,commdev-image-keyboard-response,439,1047280,learnblock2,679.1000000000931,img/planet4_right.png,4,Community 3,NA,TRUE,j,j,NA,NA,NA,NA,6,"9,12,13,1,14,11,8,3,2,15,6,4,7,5,10"
14156,commdev-image-keyboard-response,440,1048538,learnblock2,607.6999999997206,img/planet7_left.png,7,Community 3,NA,TRUE,f,f,NA,NA,NA,NA,6,"9,12,13,1,14,11,8,3,2,15,6,4,7,5,10"
14156,commdev-image-keyboard-response,441,1049795,learnblock2,524.3999999999069,img/planet5_right.png,5,Community 3,NA,TRUE,j,j,NA,NA,NA,NA,6,"9,12,13,1,14,11,8,3,2,15,6,4,7,5,10"
14156,commdev-image-keyboard-response,442,1051051,learnblock2,603.3999999999069,img/planet4_left.png,4,Community 3,NA,TRUE,f,f,NA,NA,NA,NA,6,"9,12,13,1,14,11,8,3,2,15,6,4,7,5,10"
14156,commdev-image-keyboard-response,443,1052305,learnblock2,454.09999999962747,img/planet5_right.png,5,Community 3,NA,TRUE,j,j,NA,NA,NA,NA,6,"9,12,13,1,14,11,8,3,2,15,6,4,7,5,10"
14156,commdev-image-keyboard-response,444,1053563,learnblock2,723.3999999999069,img/planet7_right.png,7,Community 3,NA,TRUE,j,j,NA,NA,NA,NA,6,"9,12,13,1,14,11,8,3,2,15,6,4,7,5,10"
14156,commdev-image-keyboard-response,445,1054821,learnblock2,735.2999999998137,img/planet6_left.png,6,Community 3,NA,TRUE,f,f,NA,NA,NA,NA,6,"9,12,13,1,14,11,8,3,2,15,6,4,7,5,10"
14156,commdev-image-keyboard-response,446,1056076,learnblock2,540.3999999999069,img/planet10_left.png,10,Community 3,NA,TRUE,f,f,NA,NA,NA,NA,6,"9,12,13,1,14,11,8,3,2,15,6,4,7,5,10"
14156,commdev-image-keyboard-response,447,1057331,learnblock2,489.5,img/planet4_right.png,4,Community 3,NA,TRUE,j,j,NA,NA,NA,NA,6,"9,12,13,1,14,11,8,3,2,15,6,4,7,5,10"
14156,commdev-image-keyboard-response,448,1058587,learnblock2,651.9000000003725,img/planet5_right.png,5,Community 3,NA,TRUE,j,j,NA,NA,NA,NA,6,"9,12,13,1,14,11,8,3,2,15,6,4,7,5,10"
14156,commdev-image-keyboard-response,449,1059845,learnblock2,644.8999999999069,img/planet4_right.png,4,Community 3,NA,TRUE,j,j,NA,NA,NA,NA,6,"9,12,13,1,14,11,8,3,2,15,6,4,7,5,10"
14156,commdev-image-keyboard-response,450,1061103,learnblock2,707.8000000002794,img/planet7_right.png,7,Community 3,NA,TRUE,j,j,NA,NA,NA,NA,6,"9,12,13,1,14,11,8,3,2,15,6,4,7,5,10"
14156,commdev-image-keyboard-response,451,1062358,learnblock2,580.9000000003725,img/planet5_left.png,5,Community 3,NA,TRUE,f,f,NA,NA,NA,NA,6,"9,12,13,1,14,11,8,3,2,15,6,4,7,5,10"
14156,commdev-image-keyboard-response,452,1063616,learnblock2,439.10000000009313,img/planet4_left.png,4,Community 3,NA,TRUE,f,f,NA,NA,NA,NA,6,"9,12,13,1,14,11,8,3,2,15,6,4,7,5,10"
14156,commdev-image-keyboard-response,453,1064875,learnblock2,681.5,img/planet3_left.png,3,Community 2,NA,TRUE,f,f,NA,NA,NA,NA,6,"9,12,13,1,14,11,8,3,2,15,6,4,7,5,10"
14156,commdev-image-keyboard-response,454,1066131,learnblock2,647.3000000002794,img/planet4_left.png,4,Community 3,NA,TRUE,f,f,NA,NA,NA,NA,6,"9,12,13,1,14,11,8,3,2,15,6,4,7,5,10"
14156,commdev-image-keyboard-response,455,1067388,learnblock2,745.1999999997206,img/planet5_right.png,5,Community 3,NA,TRUE,j,j,NA,NA,NA,NA,6,"9,12,13,1,14,11,8,3,2,15,6,4,7,5,10"
14156,commdev-image-keyboard-response,456,1068644,learnblock2,708.1000000000931,img/planet4_right.png,4,Community 3,NA,TRUE,j,j,NA,NA,NA,NA,6,"9,12,13,1,14,11,8,3,2,15,6,4,7,5,10"
14156,commdev-image-keyboard-response,457,1069899,learnblock2,706.8999999999069,img/planet7_left.png,7,Community 3,NA,TRUE,f,f,NA,NA,NA,NA,6,"9,12,13,1,14,11,8,3,2,15,6,4,7,5,10"
14156,commdev-image-keyboard-response,458,1071155,learnblock2,665.2999999998137,img/planet6_left.png,6,Community 3,NA,TRUE,f,f,NA,NA,NA,NA,6,"9,12,13,1,14,11,8,3,2,15,6,4,7,5,10"
14156,commdev-image-keyboard-response,459,1072411,learnblock2,670.3999999999069,img/planet10_right.png,10,Community 3,NA,TRUE,j,j,NA,NA,NA,NA,6,"9,12,13,1,14,11,8,3,2,15,6,4,7,5,10"
14156,commdev-image-keyboard-response,460,1073667,learnblock2,599.8999999999069,img/planet4_right.png,4,Community 3,NA,TRUE,j,j,NA,NA,NA,NA,6,"9,12,13,1,14,11,8,3,2,15,6,4,7,5,10"
14156,commdev-image-keyboard-response,461,1074923,learnblock2,553.7999999998137,img/planet7_left.png,7,Community 3,NA,TRUE,f,f,NA,NA,NA,NA,6,"9,12,13,1,14,11,8,3,2,15,6,4,7,5,10"
14156,commdev-image-keyboard-response,462,1076179,learnblock2,469.10000000009313,img/planet10_left.png,10,Community 3,NA,TRUE,f,f,NA,NA,NA,NA,6,"9,12,13,1,14,11,8,3,2,15,6,4,7,5,10"
14156,commdev-image-keyboard-response,463,1077433,learnblock2,851.6000000000931,img/planet7_left.png,7,Community 3,NA,TRUE,f,f,NA,NA,NA,NA,6,"9,12,13,1,14,11,8,3,2,15,6,4,7,5,10"
14156,commdev-image-keyboard-response,464,1078688,learnblock2,630.4000000003725,img/planet10_left.png,10,Community 3,NA,TRUE,f,f,NA,NA,NA,NA,6,"9,12,13,1,14,11,8,3,2,15,6,4,7,5,10"
14156,commdev-image-keyboard-response,465,1079946,learnblock2,515,img/planet4_right.png,4,Community 3,NA,TRUE,j,j,NA,NA,NA,NA,6,"9,12,13,1,14,11,8,3,2,15,6,4,7,5,10"
14156,commdev-image-keyboard-response,466,1081201,learnblock2,595.6999999997206,img/planet5_left.png,5,Community 3,NA,TRUE,f,f,NA,NA,NA,NA,6,"9,12,13,1,14,11,8,3,2,15,6,4,7,5,10"
14156,commdev-image-keyboard-response,467,1082458,learnblock2,642.2000000001863,img/planet6_right.png,6,Community 3,NA,FALSE,f,j,NA,NA,NA,NA,6,"9,12,13,1,14,11,8,3,2,15,6,4,7,5,10"
14156,commdev-image-keyboard-response,468,1083714,learnblock2,1225.2999999998137,img/planet7_left.png,7,Community 3,NA,FALSE,j,f,NA,NA,NA,NA,6,"9,12,13,1,14,11,8,3,2,15,6,4,7,5,10"
14156,commdev-image-keyboard-response,469,1084970,learnblock2,447.79999999981374,img/planet10_right.png,10,Community 3,NA,FALSE,f,j,NA,NA,NA,NA,6,"9,12,13,1,14,11,8,3,2,15,6,4,7,5,10"
14156,commdev-image-keyboard-response,470,1086226,learnblock2,561.7000000001863,img/planet6_left.png,6,Community 3,NA,TRUE,f,f,NA,NA,NA,NA,6,"9,12,13,1,14,11,8,3,2,15,6,4,7,5,10"
14156,commdev-image-keyboard-response,471,1087479,learnblock2,749.6000000000931,img/planet10_left.png,10,Community 3,NA,TRUE,f,f,NA,NA,NA,NA,6,"9,12,13,1,14,11,8,3,2,15,6,4,7,5,10"
14156,commdev-image-keyboard-response,472,1088736,learnblock2,670.8999999999069,img/planet7_right.png,7,Community 3,NA,TRUE,j,j,NA,NA,NA,NA,6,"9,12,13,1,14,11,8,3,2,15,6,4,7,5,10"
14156,commdev-image-keyboard-response,473,1089989,learnblock2,709.3999999999069,img/planet4_right.png,4,Community 3,NA,TRUE,j,j,NA,NA,NA,NA,6,"9,12,13,1,14,11,8,3,2,15,6,4,7,5,10"
14156,commdev-image-keyboard-response,474,1091245,learnblock2,496.60000000009313,img/planet10_left.png,10,Community 3,NA,TRUE,f,f,NA,NA,NA,NA,6,"9,12,13,1,14,11,8,3,2,15,6,4,7,5,10"
14156,commdev-image-keyboard-response,475,1092500,learnblock2,695.0999999996275,img/planet4_left.png,4,Community 3,NA,TRUE,f,f,NA,NA,NA,NA,6,"9,12,13,1,14,11,8,3,2,15,6,4,7,5,10"
14156,commdev-image-keyboard-response,476,1093757,learnblock2,663.1000000000931,img/planet3_left.png,3,Community 2,NA,TRUE,f,f,NA,NA,NA,NA,6,"9,12,13,1,14,11,8,3,2,15,6,4,7,5,10"
14156,commdev-image-keyboard-response,477,1095015,learnblock2,612.7999999998137,img/planet2_left.png,2,Community 2,NA,TRUE,f,f,NA,NA,NA,NA,6,"9,12,13,1,14,11,8,3,2,15,6,4,7,5,10"
14156,commdev-image-keyboard-response,478,1096270,learnblock2,696.8000000002794,img/planet11_left.png,11,Community 2,NA,TRUE,f,f,NA,NA,NA,NA,6,"9,12,13,1,14,11,8,3,2,15,6,4,7,5,10"
14156,commdev-image-keyboard-response,479,1097525,learnblock2,560.3000000002794,img/planet2_right.png,2,Community 2,NA,TRUE,j,j,NA,NA,NA,NA,6,"9,12,13,1,14,11,8,3,2,15,6,4,7,5,10"
14156,commdev-image-keyboard-response,480,1098781,learnblock2,752.5,img/planet15_right.png,15,Community 2,NA,TRUE,j,j,NA,NA,NA,NA,6,"9,12,13,1,14,11,8,3,2,15,6,4,7,5,10"
14156,commdev-image-keyboard-response,481,1100039,learnblock2,937.6000000000931,img/planet3_left.png,3,Community 2,NA,TRUE,f,f,NA,NA,NA,NA,6,"9,12,13,1,14,11,8,3,2,15,6,4,7,5,10"
14156,commdev-image-keyboard-response,482,1101298,learnblock2,567.4000000003725,img/planet2_right.png,2,Community 2,NA,TRUE,j,j,NA,NA,NA,NA,6,"9,12,13,1,14,11,8,3,2,15,6,4,7,5,10"
14156,commdev-image-keyboard-response,483,1102552,learnblock2,842.4000000003725,img/planet3_right.png,3,Community 2,NA,TRUE,j,j,NA,NA,NA,NA,6,"9,12,13,1,14,11,8,3,2,15,6,4,7,5,10"
14156,commdev-image-keyboard-response,484,1103809,learnblock2,808.3999999999069,img/planet2_right.png,2,Community 2,NA,TRUE,j,j,NA,NA,NA,NA,6,"9,12,13,1,14,11,8,3,2,15,6,4,7,5,10"
14156,commdev-image-keyboard-response,485,1105065,learnblock2,580.4000000003725,img/planet8_left.png,8,Community 2,NA,TRUE,f,f,NA,NA,NA,NA,6,"9,12,13,1,14,11,8,3,2,15,6,4,7,5,10"
14156,commdev-image-keyboard-response,486,1106320,learnblock2,906,img/planet15_left.png,15,Community 2,NA,TRUE,f,f,NA,NA,NA,NA,6,"9,12,13,1,14,11,8,3,2,15,6,4,7,5,10"
14156,commdev-image-keyboard-response,487,1107575,learnblock2,547.8999999999069,img/planet2_right.png,2,Community 2,NA,TRUE,j,j,NA,NA,NA,NA,6,"9,12,13,1,14,11,8,3,2,15,6,4,7,5,10"
14156,commdev-image-keyboard-response,488,1108830,learnblock2,850.8999999999069,img/planet3_left.png,3,Community 2,NA,TRUE,f,f,NA,NA,NA,NA,6,"9,12,13,1,14,11,8,3,2,15,6,4,7,5,10"
14156,commdev-image-keyboard-response,489,1110085,learnblock2,716.2000000001863,img/planet4_left.png,4,Community 3,NA,TRUE,f,f,NA,NA,NA,NA,6,"9,12,13,1,14,11,8,3,2,15,6,4,7,5,10"
14156,commdev-image-keyboard-response,490,1111343,learnblock2,774.6999999997206,img/planet5_left.png,5,Community 3,NA,TRUE,f,f,NA,NA,NA,NA,6,"9,12,13,1,14,11,8,3,2,15,6,4,7,5,10"
14156,commdev-image-keyboard-response,491,1112596,learnblock2,643.3000000002794,img/planet7_right.png,7,Community 3,NA,TRUE,j,j,NA,NA,NA,NA,6,"9,12,13,1,14,11,8,3,2,15,6,4,7,5,10"
14156,commdev-image-keyboard-response,492,1113851,learnblock2,630,img/planet5_left.png,5,Community 3,NA,TRUE,f,f,NA,NA,NA,NA,6,"9,12,13,1,14,11,8,3,2,15,6,4,7,5,10"
14156,commdev-image-keyboard-response,493,1115109,learnblock2,674.1999999997206,img/planet4_right.png,4,Community 3,NA,TRUE,j,j,NA,NA,NA,NA,6,"9,12,13,1,14,11,8,3,2,15,6,4,7,5,10"
14156,commdev-image-keyboard-response,494,1116362,learnblock2,1073.9000000003725,img/planet7_right.png,7,Community 3,NA,TRUE,j,j,NA,NA,NA,NA,6,"9,12,13,1,14,11,8,3,2,15,6,4,7,5,10"
14156,commdev-image-keyboard-response,495,1117616,learnblock2,682.2000000001863,img/planet5_left.png,5,Community 3,NA,TRUE,f,f,NA,NA,NA,NA,6,"9,12,13,1,14,11,8,3,2,15,6,4,7,5,10"
14156,commdev-image-keyboard-response,496,1118873,learnblock2,671.2999999998137,img/planet10_right.png,10,Community 3,NA,TRUE,j,j,NA,NA,NA,NA,6,"9,12,13,1,14,11,8,3,2,15,6,4,7,5,10"
14156,commdev-image-keyboard-response,497,1120130,learnblock2,769.6000000000931,img/planet4_left.png,4,Community 3,NA,FALSE,j,f,NA,NA,NA,NA,6,"9,12,13,1,14,11,8,3,2,15,6,4,7,5,10"
14156,commdev-image-keyboard-response,498,1121386,learnblock2,872.0999999996275,img/planet7_left.png,7,Community 3,NA,FALSE,j,f,NA,NA,NA,NA,6,"9,12,13,1,14,11,8,3,2,15,6,4,7,5,10"
14156,commdev-image-keyboard-response,499,1122643,learnblock2,819.1000000000931,img/planet5_right.png,5,Community 3,NA,TRUE,j,j,NA,NA,NA,NA,6,"9,12,13,1,14,11,8,3,2,15,6,4,7,5,10"
14156,commdev-image-keyboard-response,500,1123901,learnblock2,686.6999999997206,img/planet10_right.png,10,Community 3,NA,TRUE,j,j,NA,NA,NA,NA,6,"9,12,13,1,14,11,8,3,2,15,6,4,7,5,10"
14156,commdev-image-keyboard-response,501,1125160,learnblock2,953,img/planet7_right.png,7,Community 3,NA,TRUE,j,j,NA,NA,NA,NA,6,"9,12,13,1,14,11,8,3,2,15,6,4,7,5,10"
14156,commdev-image-keyboard-response,502,1126418,learnblock2,610,img/planet4_left.png,4,Community 3,NA,TRUE,f,f,NA,NA,NA,NA,6,"9,12,13,1,14,11,8,3,2,15,6,4,7,5,10"
14156,commdev-image-keyboard-response,503,1127675,learnblock2,738.1000000000931,img/planet3_left.png,3,Community 2,NA,TRUE,f,f,NA,NA,NA,NA,6,"9,12,13,1,14,11,8,3,2,15,6,4,7,5,10"
14156,commdev-image-keyboard-response,504,1128933,learnblock2,727.7999999998137,img/planet8_left.png,8,Community 2,NA,TRUE,f,f,NA,NA,NA,NA,6,"9,12,13,1,14,11,8,3,2,15,6,4,7,5,10"
14156,commdev-image-keyboard-response,505,1130189,learnblock2,691.8000000002794,img/planet3_left.png,3,Community 2,NA,TRUE,f,f,NA,NA,NA,NA,6,"9,12,13,1,14,11,8,3,2,15,6,4,7,5,10"
14156,commdev-image-keyboard-response,506,1131443,learnblock2,655.7999999998137,img/planet8_right.png,8,Community 2,NA,TRUE,j,j,NA,NA,NA,NA,6,"9,12,13,1,14,11,8,3,2,15,6,4,7,5,10"
14156,commdev-image-keyboard-response,507,1132698,learnblock2,1008.5,img/planet15_left.png,15,Community 2,NA,TRUE,f,f,NA,NA,NA,NA,6,"9,12,13,1,14,11,8,3,2,15,6,4,7,5,10"
14156,commdev-image-keyboard-response,508,1133954,learnblock2,848.3999999999069,img/planet3_left.png,3,Community 2,NA,TRUE,f,f,NA,NA,NA,NA,6,"9,12,13,1,14,11,8,3,2,15,6,4,7,5,10"
14156,commdev-image-keyboard-response,509,1135208,learnblock2,804.5,img/planet15_left.png,15,Community 2,NA,TRUE,f,f,NA,NA,NA,NA,6,"9,12,13,1,14,11,8,3,2,15,6,4,7,5,10"
14156,commdev-image-keyboard-response,510,1136464,learnblock2,591.3000000002794,img/planet3_right.png,3,Community 2,NA,TRUE,j,j,NA,NA,NA,NA,6,"9,12,13,1,14,11,8,3,2,15,6,4,7,5,10"
14156,commdev-image-keyboard-response,511,1137721,learnblock2,569.8999999999069,img/planet2_left.png,2,Community 2,NA,TRUE,f,f,NA,NA,NA,NA,6,"9,12,13,1,14,11,8,3,2,15,6,4,7,5,10"
14156,commdev-image-keyboard-response,512,1138979,learnblock2,569,img/planet15_left.png,15,Community 2,NA,TRUE,f,f,NA,NA,NA,NA,6,"9,12,13,1,14,11,8,3,2,15,6,4,7,5,10"
14156,commdev-image-keyboard-response,513,1140233,learnblock2,689.8000000002794,img/planet2_left.png,2,Community 2,NA,TRUE,f,f,NA,NA,NA,NA,6,"9,12,13,1,14,11,8,3,2,15,6,4,7,5,10"
14156,commdev-image-keyboard-response,514,1141491,learnblock2,819.6000000000931,img/planet8_left.png,8,Community 2,NA,TRUE,f,f,NA,NA,NA,NA,6,"9,12,13,1,14,11,8,3,2,15,6,4,7,5,10"
14156,commdev-image-keyboard-response,515,1142749,learnblock2,584.2999999998137,img/planet3_right.png,3,Community 2,NA,TRUE,j,j,NA,NA,NA,NA,6,"9,12,13,1,14,11,8,3,2,15,6,4,7,5,10"
14156,commdev-image-keyboard-response,516,1144008,learnblock2,630.6000000000931,img/planet8_right.png,8,Community 2,NA,FALSE,f,j,NA,NA,NA,NA,6,"9,12,13,1,14,11,8,3,2,15,6,4,7,5,10"
14156,commdev-image-keyboard-response,517,1145263,learnblock2,572.1000000000931,img/planet3_left.png,3,Community 2,NA,TRUE,f,f,NA,NA,NA,NA,6,"9,12,13,1,14,11,8,3,2,15,6,4,7,5,10"
14156,commdev-image-keyboard-response,518,1146522,learnblock2,574.5,img/planet4_left.png,4,Community 3,NA,TRUE,f,f,NA,NA,NA,NA,6,"9,12,13,1,14,11,8,3,2,15,6,4,7,5,10"
14156,commdev-image-keyboard-response,519,1147779,learnblock2,573.2000000001863,img/planet10_left.png,10,Community 3,NA,TRUE,f,f,NA,NA,NA,NA,6,"9,12,13,1,14,11,8,3,2,15,6,4,7,5,10"
14156,commdev-image-keyboard-response,520,1149036,learnblock2,511.20000000018626,img/planet4_right.png,4,Community 3,NA,TRUE,j,j,NA,NA,NA,NA,6,"9,12,13,1,14,11,8,3,2,15,6,4,7,5,10"
14156,commdev-image-keyboard-response,521,1150291,learnblock2,622,img/planet7_left.png,7,Community 3,NA,TRUE,f,f,NA,NA,NA,NA,6,"9,12,13,1,14,11,8,3,2,15,6,4,7,5,10"
14156,commdev-image-keyboard-response,522,1151547,learnblock2,611.7999999998137,img/planet6_left.png,6,Community 3,NA,TRUE,f,f,NA,NA,NA,NA,6,"9,12,13,1,14,11,8,3,2,15,6,4,7,5,10"
14156,commdev-image-keyboard-response,523,1152801,learnblock2,756.6000000000931,img/planet14_left.png,14,Community 1,NA,TRUE,f,f,NA,NA,NA,NA,6,"9,12,13,1,14,11,8,3,2,15,6,4,7,5,10"
14156,commdev-image-keyboard-response,524,1154057,learnblock2,571.1999999997206,img/planet13_left.png,13,Community 1,NA,TRUE,f,f,NA,NA,NA,NA,6,"9,12,13,1,14,11,8,3,2,15,6,4,7,5,10"
14156,commdev-image-keyboard-response,525,1155312,learnblock2,553.1000000000931,img/planet9_right.png,9,Community 1,NA,TRUE,j,j,NA,NA,NA,NA,6,"9,12,13,1,14,11,8,3,2,15,6,4,7,5,10"
14156,commdev-image-keyboard-response,526,1156568,learnblock2,623.5,img/planet13_right.png,13,Community 1,NA,TRUE,j,j,NA,NA,NA,NA,6,"9,12,13,1,14,11,8,3,2,15,6,4,7,5,10"
14156,commdev-image-keyboard-response,527,1157825,learnblock2,592.2999999998137,img/planet14_right.png,14,Community 1,NA,TRUE,j,j,NA,NA,NA,NA,6,"9,12,13,1,14,11,8,3,2,15,6,4,7,5,10"
14156,commdev-image-keyboard-response,528,1159080,learnblock2,540.5,img/planet12_left.png,12,Community 1,NA,TRUE,f,f,NA,NA,NA,NA,6,"9,12,13,1,14,11,8,3,2,15,6,4,7,5,10"
14156,commdev-image-keyboard-response,529,1160336,learnblock2,837.5,img/planet1_right.png,1,Community 1,NA,TRUE,j,j,NA,NA,NA,NA,6,"9,12,13,1,14,11,8,3,2,15,6,4,7,5,10"
14156,commdev-image-keyboard-response,530,1161592,learnblock2,934.2999999998137,img/planet13_left.png,13,Community 1,NA,TRUE,f,f,NA,NA,NA,NA,6,"9,12,13,1,14,11,8,3,2,15,6,4,7,5,10"
14156,commdev-image-keyboard-response,531,1162847,learnblock2,778.5,img/planet9_right.png,9,Community 1,NA,TRUE,j,j,NA,NA,NA,NA,6,"9,12,13,1,14,11,8,3,2,15,6,4,7,5,10"
14156,commdev-image-keyboard-response,532,1164104,learnblock2,1176.2000000001863,img/planet13_left.png,13,Community 1,NA,TRUE,f,f,NA,NA,NA,NA,6,"9,12,13,1,14,11,8,3,2,15,6,4,7,5,10"
14156,commdev-image-keyboard-response,533,1165360,learnblock2,1017.0999999996275,img/planet12_left.png,12,Community 1,NA,TRUE,f,f,NA,NA,NA,NA,6,"9,12,13,1,14,11,8,3,2,15,6,4,7,5,10"
14156,commdev-image-keyboard-response,534,1166617,learnblock2,627.2000000001863,img/planet14_right.png,14,Community 1,NA,TRUE,j,j,NA,NA,NA,NA,6,"9,12,13,1,14,11,8,3,2,15,6,4,7,5,10"
14156,commdev-image-keyboard-response,535,1167873,learnblock2,558,img/planet13_left.png,13,Community 1,NA,TRUE,f,f,NA,NA,NA,NA,6,"9,12,13,1,14,11,8,3,2,15,6,4,7,5,10"
14156,commdev-image-keyboard-response,536,1169128,learnblock2,585.1000000000931,img/planet14_right.png,14,Community 1,NA,TRUE,j,j,NA,NA,NA,NA,6,"9,12,13,1,14,11,8,3,2,15,6,4,7,5,10"
14156,commdev-image-keyboard-response,537,1170384,learnblock2,687.5,img/planet13_right.png,13,Community 1,NA,TRUE,j,j,NA,NA,NA,NA,6,"9,12,13,1,14,11,8,3,2,15,6,4,7,5,10"
14156,commdev-image-keyboard-response,538,1171643,learnblock2,785.2999999998137,img/planet14_left.png,14,Community 1,NA,TRUE,f,f,NA,NA,NA,NA,6,"9,12,13,1,14,11,8,3,2,15,6,4,7,5,10"
14156,commdev-image-keyboard-response,539,1172898,learnblock2,739.6000000000931,img/planet13_left.png,13,Community 1,NA,TRUE,f,f,NA,NA,NA,NA,6,"9,12,13,1,14,11,8,3,2,15,6,4,7,5,10"
14156,commdev-image-keyboard-response,540,1174159,learnblock2,576.8999999999069,img/planet1_right.png,1,Community 1,NA,TRUE,j,j,NA,NA,NA,NA,6,"9,12,13,1,14,11,8,3,2,15,6,4,7,5,10"
14156,commdev-image-keyboard-response,541,1175415,learnblock2,599.2000000001863,img/planet13_right.png,13,Community 1,NA,TRUE,j,j,NA,NA,NA,NA,6,"9,12,13,1,14,11,8,3,2,15,6,4,7,5,10"
14156,commdev-image-keyboard-response,542,1176671,learnblock2,652.2000000001863,img/planet9_left.png,9,Community 1,NA,TRUE,f,f,NA,NA,NA,NA,6,"9,12,13,1,14,11,8,3,2,15,6,4,7,5,10"
14156,commdev-image-keyboard-response,543,1177927,learnblock2,598.8999999999069,img/planet12_left.png,12,Community 1,NA,TRUE,f,f,NA,NA,NA,NA,6,"9,12,13,1,14,11,8,3,2,15,6,4,7,5,10"
14156,commdev-image-keyboard-response,544,1179185,learnblock2,842.5,img/planet14_left.png,14,Community 1,NA,TRUE,f,f,NA,NA,NA,NA,6,"9,12,13,1,14,11,8,3,2,15,6,4,7,5,10"
14156,commdev-image-keyboard-response,545,1180443,learnblock2,646.7999999998137,img/planet13_right.png,13,Community 1,NA,TRUE,j,j,NA,NA,NA,NA,6,"9,12,13,1,14,11,8,3,2,15,6,4,7,5,10"
14156,commdev-image-keyboard-response,546,1181699,learnblock2,608.7000000001863,img/planet12_left.png,12,Community 1,NA,TRUE,f,f,NA,NA,NA,NA,6,"9,12,13,1,14,11,8,3,2,15,6,4,7,5,10"
14156,commdev-image-keyboard-response,547,1182954,learnblock2,663.3999999999069,img/planet14_right.png,14,Community 1,NA,FALSE,f,j,NA,NA,NA,NA,6,"9,12,13,1,14,11,8,3,2,15,6,4,7,5,10"
14156,commdev-image-keyboard-response,548,1184212,learnblock2,800.8999999999069,img/planet6_right.png,6,Community 3,NA,TRUE,j,j,NA,NA,NA,NA,6,"9,12,13,1,14,11,8,3,2,15,6,4,7,5,10"
14156,commdev-image-keyboard-response,549,1185471,learnblock2,646.8000000002794,img/planet10_left.png,10,Community 3,NA,TRUE,f,f,NA,NA,NA,NA,6,"9,12,13,1,14,11,8,3,2,15,6,4,7,5,10"
14156,commdev-image-keyboard-response,550,1186728,learnblock2,618.3999999999069,img/planet6_left.png,6,Community 3,NA,TRUE,f,f,NA,NA,NA,NA,6,"9,12,13,1,14,11,8,3,2,15,6,4,7,5,10"
14156,commdev-image-keyboard-response,551,1187982,learnblock2,779.3999999999069,img/planet7_left.png,7,Community 3,NA,TRUE,f,f,NA,NA,NA,NA,6,"9,12,13,1,14,11,8,3,2,15,6,4,7,5,10"
14156,commdev-image-keyboard-response,552,1189238,learnblock2,614.7999999998137,img/planet10_left.png,10,Community 3,NA,TRUE,f,f,NA,NA,NA,NA,6,"9,12,13,1,14,11,8,3,2,15,6,4,7,5,10"
14156,commdev-image-keyboard-response,553,1190496,learnblock2,639,img/planet6_right.png,6,Community 3,NA,TRUE,j,j,NA,NA,NA,NA,6,"9,12,13,1,14,11,8,3,2,15,6,4,7,5,10"
14156,commdev-image-keyboard-response,554,1191753,learnblock2,703.6999999997206,img/planet14_right.png,14,Community 1,NA,TRUE,j,j,NA,NA,NA,NA,6,"9,12,13,1,14,11,8,3,2,15,6,4,7,5,10"
14156,commdev-image-keyboard-response,555,1193009,learnblock2,675,img/planet9_left.png,9,Community 1,NA,TRUE,f,f,NA,NA,NA,NA,6,"9,12,13,1,14,11,8,3,2,15,6,4,7,5,10"
14156,commdev-image-keyboard-response,556,1194267,learnblock2,672.3999999999069,img/planet14_right.png,14,Community 1,NA,FALSE,f,j,NA,NA,NA,NA,6,"9,12,13,1,14,11,8,3,2,15,6,4,7,5,10"
14156,commdev-image-keyboard-response,557,1195525,learnblock2,622.5,img/planet6_left.png,6,Community 3,NA,TRUE,f,f,NA,NA,NA,NA,6,"9,12,13,1,14,11,8,3,2,15,6,4,7,5,10"
14156,commdev-image-keyboard-response,558,1196780,learnblock2,932.7000000001863,img/planet14_left.png,14,Community 1,NA,FALSE,j,f,NA,NA,NA,NA,6,"9,12,13,1,14,11,8,3,2,15,6,4,7,5,10"
14156,commdev-image-keyboard-response,559,1198035,learnblock2,789.8999999999069,img/planet9_left.png,9,Community 1,NA,TRUE,f,f,NA,NA,NA,NA,6,"9,12,13,1,14,11,8,3,2,15,6,4,7,5,10"
14156,commdev-image-keyboard-response,560,1199291,learnblock2,791.5,img/planet14_left.png,14,Community 1,NA,TRUE,f,f,NA,NA,NA,NA,6,"9,12,13,1,14,11,8,3,2,15,6,4,7,5,10"
14156,commdev-image-keyboard-response,561,1200546,learnblock2,740.6000000000931,img/planet9_right.png,9,Community 1,NA,TRUE,j,j,NA,NA,NA,NA,6,"9,12,13,1,14,11,8,3,2,15,6,4,7,5,10"
14156,commdev-image-keyboard-response,562,1201803,learnblock2,774.3999999999069,img/planet1_left.png,1,Community 1,NA,TRUE,f,f,NA,NA,NA,NA,6,"9,12,13,1,14,11,8,3,2,15,6,4,7,5,10"
14156,commdev-image-keyboard-response,563,1203056,learnblock2,564.7000000001863,img/planet9_right.png,9,Community 1,NA,TRUE,j,j,NA,NA,NA,NA,6,"9,12,13,1,14,11,8,3,2,15,6,4,7,5,10"
14156,commdev-image-keyboard-response,564,1204313,learnblock2,713.0999999996275,img/planet13_right.png,13,Community 1,NA,TRUE,j,j,NA,NA,NA,NA,6,"9,12,13,1,14,11,8,3,2,15,6,4,7,5,10"
14156,commdev-image-keyboard-response,565,1205570,learnblock2,703.6000000000931,img/planet1_right.png,1,Community 1,NA,TRUE,j,j,NA,NA,NA,NA,6,"9,12,13,1,14,11,8,3,2,15,6,4,7,5,10"
14156,commdev-image-keyboard-response,566,1206825,learnblock2,921.6000000000931,img/planet11_right.png,11,Community 2,NA,TRUE,j,j,NA,NA,NA,NA,6,"9,12,13,1,14,11,8,3,2,15,6,4,7,5,10"
14156,commdev-image-keyboard-response,567,1208080,learnblock2,1093.6000000000931,img/planet15_right.png,15,Community 2,NA,TRUE,j,j,NA,NA,NA,NA,6,"9,12,13,1,14,11,8,3,2,15,6,4,7,5,10"
14156,commdev-image-keyboard-response,568,1209339,learnblock2,751.5,img/planet8_right.png,8,Community 2,NA,TRUE,j,j,NA,NA,NA,NA,6,"9,12,13,1,14,11,8,3,2,15,6,4,7,5,10"
14156,commdev-image-keyboard-response,569,1210593,learnblock2,635.2000000001863,img/planet15_right.png,15,Community 2,NA,TRUE,j,j,NA,NA,NA,NA,6,"9,12,13,1,14,11,8,3,2,15,6,4,7,5,10"
14156,commdev-image-keyboard-response,570,1211849,learnblock2,787.1999999997206,img/planet2_right.png,2,Community 2,NA,TRUE,j,j,NA,NA,NA,NA,6,"9,12,13,1,14,11,8,3,2,15,6,4,7,5,10"
14156,commdev-image-keyboard-response,571,1213104,learnblock2,743.5,img/planet3_right.png,3,Community 2,NA,TRUE,j,j,NA,NA,NA,NA,6,"9,12,13,1,14,11,8,3,2,15,6,4,7,5,10"
14156,commdev-image-keyboard-response,572,1214360,learnblock2,635.3000000002794,img/planet2_left.png,2,Community 2,NA,TRUE,f,f,NA,NA,NA,NA,6,"9,12,13,1,14,11,8,3,2,15,6,4,7,5,10"
14156,commdev-image-keyboard-response,573,1215615,learnblock2,676.6000000000931,img/planet11_left.png,11,Community 2,NA,TRUE,f,f,NA,NA,NA,NA,6,"9,12,13,1,14,11,8,3,2,15,6,4,7,5,10"
14156,commdev-image-keyboard-response,574,1216872,learnblock2,648.2000000001863,img/planet8_right.png,8,Community 2,NA,TRUE,j,j,NA,NA,NA,NA,6,"9,12,13,1,14,11,8,3,2,15,6,4,7,5,10"
14156,commdev-image-keyboard-response,575,1218127,learnblock2,637.8000000002794,img/planet3_right.png,3,Community 2,NA,TRUE,j,j,NA,NA,NA,NA,6,"9,12,13,1,14,11,8,3,2,15,6,4,7,5,10"
14156,commdev-image-keyboard-response,576,1219384,learnblock2,617.2000000001863,img/planet2_left.png,2,Community 2,NA,TRUE,f,f,NA,NA,NA,NA,6,"9,12,13,1,14,11,8,3,2,15,6,4,7,5,10"
14156,commdev-image-keyboard-response,577,1220641,learnblock2,698.6000000000931,img/planet8_right.png,8,Community 2,NA,TRUE,j,j,NA,NA,NA,NA,6,"9,12,13,1,14,11,8,3,2,15,6,4,7,5,10"
14156,commdev-image-keyboard-response,578,1221897,learnblock2,764.1000000000931,img/planet3_left.png,3,Community 2,NA,TRUE,f,f,NA,NA,NA,NA,6,"9,12,13,1,14,11,8,3,2,15,6,4,7,5,10"
14156,commdev-image-keyboard-response,579,1223153,learnblock2,1030.6000000000931,img/planet2_left.png,2,Community 2,NA,TRUE,f,f,NA,NA,NA,NA,6,"9,12,13,1,14,11,8,3,2,15,6,4,7,5,10"
14156,commdev-image-keyboard-response,580,1224411,learnblock2,754.6000000000931,img/planet11_right.png,11,Community 2,NA,FALSE,f,j,NA,NA,NA,NA,6,"9,12,13,1,14,11,8,3,2,15,6,4,7,5,10"
14156,commdev-image-keyboard-response,581,1225668,learnblock2,820.5999999996275,img/planet8_left.png,8,Community 2,NA,TRUE,f,f,NA,NA,NA,NA,6,"9,12,13,1,14,11,8,3,2,15,6,4,7,5,10"
