subject_id,trial_type,trial_index,time_elapsed,block,rt,stimulus,planet,community,response,correct,key_press,learning_correct_response,parse,init_locations,final_locations,browser_interactions,num_comp,planet_map
14266,commdev-instructions,7,30061,NA,1335.800000011921,"<p>In this game, you will be shown a 3x3 grid of patterns.</p> <p>The last one in the bottom right-hand corner, <strong>will be missing:</strong></p> <div style='width: 700px;'><div style='float: top;'><img style='width: 200px;' src='practice/p1_M1.png'></img><p class='small'>You need to select<strong> which of the four possible patterns </strong>along the bottom<strong> fits into the gap:</strong></p></div><div style='float: top;'><img style='width: 300px;' src='practice/p1_T1.png'></img></div><br>",NA,NA,NA,NA,NA,NA,NA,NA,NA,1,6,"10,5,11,1,14,7,12,3,2,15,4,6,8,9,13"
14266,commdev-instructions,8,57359,NA,9263.29999999702,"<p>Try to be as fast and as accurate as you can be.</p> <p>If you cannot solve the puzzle then you should guess - you will not be penalised for an incorrect answer.</p> <p>The task contains a shuffled mix of easy, medium and hard puzzles.</p> <p>You will have <strong>30 seconds</strong> to complete each puzzle.</p><br>",NA,NA,NA,NA,NA,NA,NA,NA,NA,1,6,"10,5,11,1,14,7,12,3,2,15,4,6,8,9,13"
14266,commdev-instructions,15,93065,NA,666.7000000029802,<p><strong>Success!</strong></p> <p>You seem to be getting the hang of this...</p> <p>Let's move on to the real trials.</p><br>,NA,NA,NA,NA,NA,NA,NA,NA,NA,1,6,"10,5,11,1,14,7,12,3,2,15,4,6,8,9,13"
14266,commdev-instructions,165,587638,NA,2629.300000011921,"<p>In this game, you are a scientist on board a space shuttle. </p><p> On each mission, you will visit planets all across the universe.</p><img src=""img/controlroom.jpg"" width=300vw>",NA,NA,NA,NA,NA,NA,NA,NA,NA,1,6,"10,5,11,1,14,7,12,3,2,15,4,6,8,9,13"
14266,commdev-instructions,166,590600,NA,891.5,"<p>Here are a few planets you might see:</p><img src=""img/practice1.png"" width=200vw><img src=""img/practice2.png"" width=200vw><img src=""img/practice3.png"" width=200vw>",NA,NA,NA,NA,NA,NA,NA,NA,NA,1,6,"10,5,11,1,14,7,12,3,2,15,4,6,8,9,13"
14266,commdev-instructions,167,602241,NA,4241.29999999702,"<p>Your job as a scientist is to record which direction the winds are moving on each planet.</p><p>There are two types of wind directions:</p><img src=""img/practice1_left.png"" width=200vw><img src=""img/practice1_right.png"" width=200vw>",NA,NA,NA,NA,NA,NA,NA,NA,NA,1,6,"10,5,11,1,14,7,12,3,2,15,4,6,8,9,13"
14266,commdev-instructions,168,607747,NA,617,"<p>If the winds are moving this way, press the letter <strong>F</strong> on the keyboard as fast as you can.</p><img src=""img/leftwind.png"" width=250vw>",NA,NA,NA,NA,NA,NA,NA,NA,NA,1,6,"10,5,11,1,14,7,12,3,2,15,4,6,8,9,13"
14266,commdev-instructions,169,612949,NA,698.8999999910593,"<p>If the winds are moving this way, press the letter <strong>J</strong> on the keyboard as fast as you can.</p><img src=""img/rightwind.png"" width=350vw>",NA,NA,NA,NA,NA,NA,NA,NA,NA,1,6,"10,5,11,1,14,7,12,3,2,15,4,6,8,9,13"
14266,commdev-instructions,170,618214,NA,834.1999999880791,<p>You will have 1 second to respond. Try to respond before the time runs out!,NA,NA,NA,NA,NA,NA,NA,NA,NA,1,6,"10,5,11,1,14,7,12,3,2,15,4,6,8,9,13"
14266,commdev-instructions,171,624257,NA,607,<p>The planets you will visit will look different from each other.</p><p>You should respond <strong>only</strong> based on wind direction.,NA,NA,NA,NA,NA,NA,NA,NA,NA,1,6,"10,5,11,1,14,7,12,3,2,15,4,6,8,9,13"
14266,commdev-instructions,172,630583,NA,1153.9000000059605,"<p> Ready to start the practice round? </p><p> Remember, press <strong>F</strong> or <strong>J</strong> depending on the wind direction.<br><img src=""img/categorize_planet_example.png""",NA,NA,NA,NA,NA,NA,NA,NA,NA,1,6,"10,5,11,1,14,7,12,3,2,15,4,6,8,9,13"
14266,commdev-instructions,184,682525,NA,1886.2999999970198,"<p>Great, now try a short practice mission. </p><p> This time, you will have 1 second to respond and you won't know whether you pressed the right or wrong key for each planet.</p>",NA,NA,NA,NA,NA,NA,NA,NA,NA,1,6,"10,5,11,1,14,7,12,3,2,15,4,6,8,9,13"
14266,commdev-image-keyboard-response,185,683894,practice,787.0999999940395,img/practice4_right.png,NA,Number not found in mappings,NA,TRUE,j,j,NA,NA,NA,1,6,"10,5,11,1,14,7,12,3,2,15,4,6,8,9,13"
14266,commdev-image-keyboard-response,186,685149,practice,568.7000000029802,img/practice3_left.png,NA,Number not found in mappings,NA,TRUE,f,f,NA,NA,NA,1,6,"10,5,11,1,14,7,12,3,2,15,4,6,8,9,13"
14266,commdev-image-keyboard-response,187,686411,practice,619.0999999940395,img/practice1_left.png,NA,Number not found in mappings,NA,TRUE,f,f,NA,NA,NA,1,6,"10,5,11,1,14,7,12,3,2,15,4,6,8,9,13"
14266,commdev-image-keyboard-response,188,687668,practice,452.8999999910593,img/practice3_right.png,NA,Number not found in mappings,NA,TRUE,j,j,NA,NA,NA,1,6,"10,5,11,1,14,7,12,3,2,15,4,6,8,9,13"
14266,commdev-image-keyboard-response,189,688924,practice,410.29999999701977,img/practice4_right.png,NA,Number not found in mappings,NA,TRUE,j,j,NA,NA,NA,1,6,"10,5,11,1,14,7,12,3,2,15,4,6,8,9,13"
14266,commdev-image-keyboard-response,190,690183,practice,529.0999999940395,img/practice3_left.png,NA,Number not found in mappings,NA,TRUE,f,f,NA,NA,NA,1,6,"10,5,11,1,14,7,12,3,2,15,4,6,8,9,13"
14266,commdev-image-keyboard-response,191,691434,practice,684.0999999940395,img/practice2_left.png,NA,Number not found in mappings,NA,TRUE,f,f,NA,NA,NA,1,6,"10,5,11,1,14,7,12,3,2,15,4,6,8,9,13"
14266,commdev-image-keyboard-response,192,692697,practice,463.29999999701977,img/practice4_right.png,NA,Number not found in mappings,NA,TRUE,j,j,NA,NA,NA,1,6,"10,5,11,1,14,7,12,3,2,15,4,6,8,9,13"
14266,commdev-instructions,193,704504,NA,2255.2999999970198,"<p>Great job with the practice round.</p><p>During real missions, you won't know whether you pressed the right or wrong key for each planet.</p><p>But between missions, we will tell you how you did overall.</p>",NA,NA,NA,NA,NA,NA,NA,NA,NA,1,6,"10,5,11,1,14,7,12,3,2,15,4,6,8,9,13"
14266,commdev-instructions,194,713343,NA,604.2000000029802,<p>Try your best! You will be paid a bonus based on how many correct responses you make!</p><p>Responses that are too slow will not count toward your bonus.</p>,NA,NA,NA,NA,NA,NA,NA,NA,NA,1,6,"10,5,11,1,14,7,12,3,2,15,4,6,8,9,13"
14266,commdev-instructions,195,720878,NA,1319.4000000059605,"<p>You are almost ready to start the real game.</p><p> First, we are going to ask you some questions about how the game works.</p>",NA,NA,NA,NA,NA,NA,NA,NA,NA,1,6,"10,5,11,1,14,7,12,3,2,15,4,6,8,9,13"
14266,commdev-instructions,204,797575,NA,1057.7000000029802,"<p> Nice work! It is now time to start the real game.<p></p>You will go on two missions to record wind directions of different planets.<p></p>Each one will take about 5 minutes. You will get to take a break between missions.<p><p> Remember, press <strong>F</strong> or <strong>J</strong> depending on the wind direction. Good luck!<br><img src=""img/categorize_planet_example.png""",NA,NA,NA,NA,NA,NA,NA,NA,NA,1,6,"10,5,11,1,14,7,12,3,2,15,4,6,8,9,13"
14266,commdev-image-keyboard-response,206,800696,learnblock1,663.2000000029802,img/planet7_right.png,7,Community 2,NA,TRUE,j,j,NA,NA,NA,1,6,"10,5,11,1,14,7,12,3,2,15,4,6,8,9,13"
14266,commdev-image-keyboard-response,207,801958,learnblock1,540.8000000119209,img/planet12_left.png,12,Community 2,NA,TRUE,f,f,NA,NA,NA,1,6,"10,5,11,1,14,7,12,3,2,15,4,6,8,9,13"
14266,commdev-image-keyboard-response,208,803221,learnblock1,846.9000000059605,img/planet3_left.png,3,Community 2,NA,TRUE,f,f,NA,NA,NA,1,6,"10,5,11,1,14,7,12,3,2,15,4,6,8,9,13"
14266,commdev-image-keyboard-response,209,804476,learnblock1,910.5,img/planet2_left.png,2,Community 2,NA,TRUE,f,f,NA,NA,NA,1,6,"10,5,11,1,14,7,12,3,2,15,4,6,8,9,13"
14266,commdev-image-keyboard-response,210,805737,learnblock1,599.8999999910593,img/planet15_left.png,15,Community 2,NA,TRUE,f,f,NA,NA,NA,1,6,"10,5,11,1,14,7,12,3,2,15,4,6,8,9,13"
14266,commdev-image-keyboard-response,211,806995,learnblock1,636.7999999970198,img/planet12_left.png,12,Community 2,NA,TRUE,f,f,NA,NA,NA,1,6,"10,5,11,1,14,7,12,3,2,15,4,6,8,9,13"
14266,commdev-image-keyboard-response,212,808255,learnblock1,681.7999999970198,img/planet7_left.png,7,Community 2,NA,TRUE,f,f,NA,NA,NA,1,6,"10,5,11,1,14,7,12,3,2,15,4,6,8,9,13"
14266,commdev-image-keyboard-response,213,809512,learnblock1,692.8000000119209,img/planet12_left.png,12,Community 2,NA,TRUE,f,f,NA,NA,NA,1,6,"10,5,11,1,14,7,12,3,2,15,4,6,8,9,13"
14266,commdev-image-keyboard-response,214,810771,learnblock1,572.2999999970198,img/planet15_right.png,15,Community 2,NA,TRUE,j,j,NA,NA,NA,1,6,"10,5,11,1,14,7,12,3,2,15,4,6,8,9,13"
14266,commdev-image-keyboard-response,215,812029,learnblock1,590.7999999970198,img/planet3_left.png,3,Community 2,NA,TRUE,f,f,NA,NA,NA,1,6,"10,5,11,1,14,7,12,3,2,15,4,6,8,9,13"
14266,commdev-image-keyboard-response,216,813287,learnblock1,539.5,img/planet12_right.png,12,Community 2,NA,TRUE,j,j,NA,NA,NA,1,6,"10,5,11,1,14,7,12,3,2,15,4,6,8,9,13"
14266,commdev-image-keyboard-response,217,814548,learnblock1,505.70000000298023,img/planet2_right.png,2,Community 2,NA,TRUE,j,j,NA,NA,NA,1,6,"10,5,11,1,14,7,12,3,2,15,4,6,8,9,13"
14266,commdev-image-keyboard-response,218,815805,learnblock1,562.4000000059605,img/planet12_right.png,12,Community 2,NA,TRUE,j,j,NA,NA,NA,1,6,"10,5,11,1,14,7,12,3,2,15,4,6,8,9,13"
14266,commdev-image-keyboard-response,219,817064,learnblock1,538.3000000119209,img/planet7_left.png,7,Community 2,NA,TRUE,f,f,NA,NA,NA,1,6,"10,5,11,1,14,7,12,3,2,15,4,6,8,9,13"
14266,commdev-image-keyboard-response,220,818323,learnblock1,600.7000000029802,img/planet15_left.png,15,Community 2,NA,TRUE,f,f,NA,NA,NA,1,6,"10,5,11,1,14,7,12,3,2,15,4,6,8,9,13"
14266,commdev-image-keyboard-response,221,819581,learnblock1,642.5,img/planet7_left.png,7,Community 2,NA,TRUE,f,f,NA,NA,NA,1,6,"10,5,11,1,14,7,12,3,2,15,4,6,8,9,13"
14266,commdev-image-keyboard-response,222,820840,learnblock1,538,img/planet2_right.png,2,Community 2,NA,TRUE,j,j,NA,NA,NA,1,6,"10,5,11,1,14,7,12,3,2,15,4,6,8,9,13"
14266,commdev-image-keyboard-response,223,822099,learnblock1,667.3000000119209,img/planet3_right.png,3,Community 2,NA,TRUE,j,j,NA,NA,NA,1,6,"10,5,11,1,14,7,12,3,2,15,4,6,8,9,13"
14266,commdev-image-keyboard-response,224,823362,learnblock1,501.70000000298023,img/planet12_right.png,12,Community 2,NA,TRUE,j,j,NA,NA,NA,1,6,"10,5,11,1,14,7,12,3,2,15,4,6,8,9,13"
14266,commdev-image-keyboard-response,225,824623,learnblock1,855.5999999940395,img/planet7_right.png,7,Community 2,NA,TRUE,j,j,NA,NA,NA,1,6,"10,5,11,1,14,7,12,3,2,15,4,6,8,9,13"
14266,commdev-image-keyboard-response,226,825879,learnblock1,625.8999999910593,img/planet2_left.png,2,Community 2,NA,TRUE,f,f,NA,NA,NA,1,6,"10,5,11,1,14,7,12,3,2,15,4,6,8,9,13"
14266,commdev-image-keyboard-response,227,827135,learnblock1,607.2999999970198,img/planet3_left.png,3,Community 2,NA,TRUE,f,f,NA,NA,NA,1,6,"10,5,11,1,14,7,12,3,2,15,4,6,8,9,13"
14266,commdev-image-keyboard-response,228,828386,learnblock1,532.0999999940395,img/planet6_right.png,6,Community 3,NA,TRUE,j,j,NA,NA,NA,1,6,"10,5,11,1,14,7,12,3,2,15,4,6,8,9,13"
14266,commdev-image-keyboard-response,229,829648,learnblock1,517.3999999910593,img/planet13_left.png,13,Community 3,NA,TRUE,f,f,NA,NA,NA,1,6,"10,5,11,1,14,7,12,3,2,15,4,6,8,9,13"
14266,commdev-image-keyboard-response,230,830898,learnblock1,527.4000000059605,img/planet4_left.png,4,Community 3,NA,TRUE,f,f,NA,NA,NA,1,6,"10,5,11,1,14,7,12,3,2,15,4,6,8,9,13"
14266,commdev-image-keyboard-response,231,832149,learnblock1,501.70000000298023,img/planet9_right.png,9,Community 3,NA,TRUE,j,j,NA,NA,NA,1,6,"10,5,11,1,14,7,12,3,2,15,4,6,8,9,13"
14266,commdev-image-keyboard-response,232,833400,learnblock1,605.9000000059605,img/planet6_right.png,6,Community 3,NA,TRUE,j,j,NA,NA,NA,1,6,"10,5,11,1,14,7,12,3,2,15,4,6,8,9,13"
14266,commdev-image-keyboard-response,233,834655,learnblock1,515.5999999940395,img/planet8_left.png,8,Community 3,NA,TRUE,f,f,NA,NA,NA,1,6,"10,5,11,1,14,7,12,3,2,15,4,6,8,9,13"
14266,commdev-image-keyboard-response,234,835915,learnblock1,541.2000000029802,img/planet13_right.png,13,Community 3,NA,TRUE,j,j,NA,NA,NA,1,6,"10,5,11,1,14,7,12,3,2,15,4,6,8,9,13"
14266,commdev-image-keyboard-response,235,837166,learnblock1,541,img/planet6_left.png,6,Community 3,NA,TRUE,f,f,NA,NA,NA,1,6,"10,5,11,1,14,7,12,3,2,15,4,6,8,9,13"
14266,commdev-image-keyboard-response,236,838418,learnblock1,463.6000000089407,img/planet13_right.png,13,Community 3,NA,TRUE,j,j,NA,NA,NA,1,6,"10,5,11,1,14,7,12,3,2,15,4,6,8,9,13"
14266,commdev-image-keyboard-response,237,839669,learnblock1,674.9000000059605,img/planet8_right.png,8,Community 3,NA,TRUE,j,j,NA,NA,NA,1,6,"10,5,11,1,14,7,12,3,2,15,4,6,8,9,13"
14266,commdev-image-keyboard-response,238,840920,learnblock1,579.2000000029802,img/planet13_right.png,13,Community 3,NA,TRUE,j,j,NA,NA,NA,1,6,"10,5,11,1,14,7,12,3,2,15,4,6,8,9,13"
14266,commdev-image-keyboard-response,239,842171,learnblock1,450.5,img/planet6_left.png,6,Community 3,NA,TRUE,f,f,NA,NA,NA,1,6,"10,5,11,1,14,7,12,3,2,15,4,6,8,9,13"
14266,commdev-image-keyboard-response,240,843429,learnblock1,514.7999999970198,img/planet3_left.png,3,Community 2,NA,FALSE,j,f,NA,NA,NA,1,6,"10,5,11,1,14,7,12,3,2,15,4,6,8,9,13"
14266,commdev-image-keyboard-response,241,844680,learnblock1,628.2999999970198,img/planet6_left.png,6,Community 3,NA,TRUE,f,f,NA,NA,NA,1,6,"10,5,11,1,14,7,12,3,2,15,4,6,8,9,13"
14266,commdev-image-keyboard-response,242,845931,learnblock1,535.3000000119209,img/planet13_left.png,13,Community 3,NA,TRUE,f,f,NA,NA,NA,1,6,"10,5,11,1,14,7,12,3,2,15,4,6,8,9,13"
14266,commdev-image-keyboard-response,243,847183,learnblock1,454.20000000298023,img/planet6_left.png,6,Community 3,NA,TRUE,f,f,NA,NA,NA,1,6,"10,5,11,1,14,7,12,3,2,15,4,6,8,9,13"
14266,commdev-image-keyboard-response,244,848434,learnblock1,447.3999999910593,img/planet9_right.png,9,Community 3,NA,FALSE,f,j,NA,NA,NA,1,6,"10,5,11,1,14,7,12,3,2,15,4,6,8,9,13"
14266,commdev-image-keyboard-response,245,849692,learnblock1,907.9000000059605,img/planet13_left.png,13,Community 3,NA,TRUE,f,f,NA,NA,NA,1,6,"10,5,11,1,14,7,12,3,2,15,4,6,8,9,13"
14266,commdev-image-keyboard-response,246,850944,learnblock1,701.6000000089407,img/planet8_left.png,8,Community 3,NA,TRUE,f,f,NA,NA,NA,1,6,"10,5,11,1,14,7,12,3,2,15,4,6,8,9,13"
14266,commdev-image-keyboard-response,247,852196,learnblock1,421.20000000298023,img/planet9_right.png,9,Community 3,NA,TRUE,j,j,NA,NA,NA,1,6,"10,5,11,1,14,7,12,3,2,15,4,6,8,9,13"
14266,commdev-image-keyboard-response,248,853447,learnblock1,523.9000000059605,img/planet6_right.png,6,Community 3,NA,TRUE,j,j,NA,NA,NA,1,6,"10,5,11,1,14,7,12,3,2,15,4,6,8,9,13"
14266,commdev-image-keyboard-response,249,854698,learnblock1,652.7000000029802,img/planet8_right.png,8,Community 3,NA,TRUE,j,j,NA,NA,NA,1,6,"10,5,11,1,14,7,12,3,2,15,4,6,8,9,13"
14266,commdev-image-keyboard-response,250,855949,learnblock1,459.5,img/planet9_right.png,9,Community 3,NA,TRUE,j,j,NA,NA,NA,1,6,"10,5,11,1,14,7,12,3,2,15,4,6,8,9,13"
14266,commdev-image-keyboard-response,251,857200,learnblock1,485.1000000089407,img/planet6_left.png,6,Community 3,NA,TRUE,f,f,NA,NA,NA,1,6,"10,5,11,1,14,7,12,3,2,15,4,6,8,9,13"
14266,commdev-image-keyboard-response,252,858451,learnblock1,615.4000000059605,img/planet3_left.png,3,Community 2,NA,TRUE,f,f,NA,NA,NA,1,6,"10,5,11,1,14,7,12,3,2,15,4,6,8,9,13"
14266,commdev-image-keyboard-response,253,859707,learnblock1,502.90000000596046,img/planet12_left.png,12,Community 2,NA,TRUE,f,f,NA,NA,NA,1,6,"10,5,11,1,14,7,12,3,2,15,4,6,8,9,13"
14266,commdev-image-keyboard-response,254,860958,learnblock1,500.20000000298023,img/planet7_right.png,7,Community 2,NA,FALSE,f,j,NA,NA,NA,1,6,"10,5,11,1,14,7,12,3,2,15,4,6,8,9,13"
14266,commdev-image-keyboard-response,255,862209,learnblock1,643.7000000029802,img/planet1_left.png,1,Community 1,NA,TRUE,f,f,NA,NA,NA,1,6,"10,5,11,1,14,7,12,3,2,15,4,6,8,9,13"
14266,commdev-image-keyboard-response,256,863468,learnblock1,588.1000000089407,img/planet10_left.png,10,Community 1,NA,TRUE,f,f,NA,NA,NA,1,6,"10,5,11,1,14,7,12,3,2,15,4,6,8,9,13"
14266,commdev-image-keyboard-response,257,864720,learnblock1,453.1000000089407,img/planet1_right.png,1,Community 1,NA,TRUE,j,j,NA,NA,NA,1,6,"10,5,11,1,14,7,12,3,2,15,4,6,8,9,13"
14266,commdev-image-keyboard-response,258,865970,learnblock1,558.6000000089407,img/planet11_right.png,11,Community 1,NA,TRUE,j,j,NA,NA,NA,1,6,"10,5,11,1,14,7,12,3,2,15,4,6,8,9,13"
14266,commdev-image-keyboard-response,259,867222,learnblock1,558,img/planet1_right.png,1,Community 1,NA,TRUE,j,j,NA,NA,NA,1,6,"10,5,11,1,14,7,12,3,2,15,4,6,8,9,13"
14266,commdev-image-keyboard-response,260,868473,learnblock1,630.8999999910593,img/planet7_left.png,7,Community 2,NA,TRUE,f,f,NA,NA,NA,1,6,"10,5,11,1,14,7,12,3,2,15,4,6,8,9,13"
14266,commdev-image-keyboard-response,261,869724,learnblock1,505.5,img/planet1_right.png,1,Community 1,NA,TRUE,j,j,NA,NA,NA,1,6,"10,5,11,1,14,7,12,3,2,15,4,6,8,9,13"
14266,commdev-image-keyboard-response,262,870975,learnblock1,558.2999999970198,img/planet10_right.png,10,Community 1,NA,TRUE,j,j,NA,NA,NA,1,6,"10,5,11,1,14,7,12,3,2,15,4,6,8,9,13"
14266,commdev-image-keyboard-response,263,872226,learnblock1,458.79999999701977,img/planet1_right.png,1,Community 1,NA,TRUE,j,j,NA,NA,NA,1,6,"10,5,11,1,14,7,12,3,2,15,4,6,8,9,13"
14266,commdev-image-keyboard-response,264,873478,learnblock1,518.1000000089407,img/planet7_left.png,7,Community 2,NA,TRUE,f,f,NA,NA,NA,1,6,"10,5,11,1,14,7,12,3,2,15,4,6,8,9,13"
14266,commdev-image-keyboard-response,265,874730,learnblock1,527.5,img/planet12_right.png,12,Community 2,NA,TRUE,j,j,NA,NA,NA,1,6,"10,5,11,1,14,7,12,3,2,15,4,6,8,9,13"
14266,commdev-image-keyboard-response,266,875982,learnblock1,569.5,img/planet7_right.png,7,Community 2,NA,TRUE,j,j,NA,NA,NA,1,6,"10,5,11,1,14,7,12,3,2,15,4,6,8,9,13"
14266,commdev-image-keyboard-response,267,877233,learnblock1,488.79999999701977,img/planet1_right.png,1,Community 1,NA,TRUE,j,j,NA,NA,NA,1,6,"10,5,11,1,14,7,12,3,2,15,4,6,8,9,13"
14266,commdev-image-keyboard-response,268,878494,learnblock1,534.3999999910593,img/planet11_right.png,11,Community 1,NA,TRUE,j,j,NA,NA,NA,1,6,"10,5,11,1,14,7,12,3,2,15,4,6,8,9,13"
14266,commdev-image-keyboard-response,269,879745,learnblock1,513.1999999880791,img/planet1_left.png,1,Community 1,NA,TRUE,f,f,NA,NA,NA,1,6,"10,5,11,1,14,7,12,3,2,15,4,6,8,9,13"
14266,commdev-image-keyboard-response,270,880996,learnblock1,485.6000000089407,img/planet5_right.png,5,Community 1,NA,TRUE,j,j,NA,NA,NA,1,6,"10,5,11,1,14,7,12,3,2,15,4,6,8,9,13"
14266,commdev-image-keyboard-response,271,882256,learnblock1,477.19999998807907,img/planet10_left.png,10,Community 1,NA,TRUE,f,f,NA,NA,NA,1,6,"10,5,11,1,14,7,12,3,2,15,4,6,8,9,13"
14266,commdev-image-keyboard-response,272,883507,learnblock1,469.3999999910593,img/planet5_right.png,5,Community 1,NA,TRUE,j,j,NA,NA,NA,1,6,"10,5,11,1,14,7,12,3,2,15,4,6,8,9,13"
14266,commdev-image-keyboard-response,273,884759,learnblock1,485.20000000298023,img/planet10_right.png,10,Community 1,NA,TRUE,j,j,NA,NA,NA,1,6,"10,5,11,1,14,7,12,3,2,15,4,6,8,9,13"
14266,commdev-image-keyboard-response,274,886010,learnblock1,542.7000000029802,img/planet14_left.png,14,Community 1,NA,TRUE,f,f,NA,NA,NA,1,6,"10,5,11,1,14,7,12,3,2,15,4,6,8,9,13"
14266,commdev-image-keyboard-response,275,887261,learnblock1,459.40000000596046,img/planet11_right.png,11,Community 1,NA,TRUE,j,j,NA,NA,NA,1,6,"10,5,11,1,14,7,12,3,2,15,4,6,8,9,13"
14266,commdev-image-keyboard-response,276,888512,learnblock1,500.29999999701977,img/planet1_right.png,1,Community 1,NA,TRUE,j,j,NA,NA,NA,1,6,"10,5,11,1,14,7,12,3,2,15,4,6,8,9,13"
14266,commdev-image-keyboard-response,277,889764,learnblock1,463.3999999910593,img/planet11_left.png,11,Community 1,NA,TRUE,f,f,NA,NA,NA,1,6,"10,5,11,1,14,7,12,3,2,15,4,6,8,9,13"
14266,commdev-image-keyboard-response,278,891014,learnblock1,420.79999999701977,img/planet5_right.png,5,Community 1,NA,TRUE,j,j,NA,NA,NA,1,6,"10,5,11,1,14,7,12,3,2,15,4,6,8,9,13"
14266,commdev-image-keyboard-response,279,892266,learnblock1,498.1000000089407,img/planet11_right.png,11,Community 1,NA,TRUE,j,j,NA,NA,NA,1,6,"10,5,11,1,14,7,12,3,2,15,4,6,8,9,13"
14266,commdev-image-keyboard-response,280,893517,learnblock1,551.7999999970198,img/planet10_right.png,10,Community 1,NA,TRUE,j,j,NA,NA,NA,1,6,"10,5,11,1,14,7,12,3,2,15,4,6,8,9,13"
14266,commdev-image-keyboard-response,281,894781,learnblock1,540.5,img/planet5_right.png,5,Community 1,NA,TRUE,j,j,NA,NA,NA,1,6,"10,5,11,1,14,7,12,3,2,15,4,6,8,9,13"
14266,commdev-image-keyboard-response,282,896032,learnblock1,458,img/planet10_left.png,10,Community 1,NA,TRUE,f,f,NA,NA,NA,1,6,"10,5,11,1,14,7,12,3,2,15,4,6,8,9,13"
14266,commdev-image-keyboard-response,283,897283,learnblock1,438.09999999403954,img/planet11_right.png,11,Community 1,NA,TRUE,j,j,NA,NA,NA,1,6,"10,5,11,1,14,7,12,3,2,15,4,6,8,9,13"
14266,commdev-image-keyboard-response,284,898535,learnblock1,471,img/planet1_left.png,1,Community 1,NA,TRUE,f,f,NA,NA,NA,1,6,"10,5,11,1,14,7,12,3,2,15,4,6,8,9,13"
14266,commdev-image-keyboard-response,285,899787,learnblock1,458.20000000298023,img/planet7_right.png,7,Community 2,NA,TRUE,j,j,NA,NA,NA,1,6,"10,5,11,1,14,7,12,3,2,15,4,6,8,9,13"
14266,commdev-image-keyboard-response,286,901037,learnblock1,470.3999999910593,img/planet1_right.png,1,Community 1,NA,TRUE,j,j,NA,NA,NA,1,6,"10,5,11,1,14,7,12,3,2,15,4,6,8,9,13"
14266,commdev-image-keyboard-response,287,902289,learnblock1,495.1000000089407,img/planet10_right.png,10,Community 1,NA,TRUE,j,j,NA,NA,NA,1,6,"10,5,11,1,14,7,12,3,2,15,4,6,8,9,13"
14266,commdev-image-keyboard-response,288,903541,learnblock1,485.09999999403954,img/planet1_right.png,1,Community 1,NA,TRUE,j,j,NA,NA,NA,1,6,"10,5,11,1,14,7,12,3,2,15,4,6,8,9,13"
14266,commdev-image-keyboard-response,289,904793,learnblock1,457.09999999403954,img/planet11_left.png,11,Community 1,NA,TRUE,f,f,NA,NA,NA,1,6,"10,5,11,1,14,7,12,3,2,15,4,6,8,9,13"
14266,commdev-image-keyboard-response,290,906044,learnblock1,476.5,img/planet1_right.png,1,Community 1,NA,TRUE,j,j,NA,NA,NA,1,6,"10,5,11,1,14,7,12,3,2,15,4,6,8,9,13"
14266,commdev-image-keyboard-response,291,907295,learnblock1,525.3000000119209,img/planet5_right.png,5,Community 1,NA,TRUE,j,j,NA,NA,NA,1,6,"10,5,11,1,14,7,12,3,2,15,4,6,8,9,13"
14266,commdev-image-keyboard-response,292,908560,learnblock1,471,img/planet14_left.png,14,Community 1,NA,TRUE,f,f,NA,NA,NA,1,6,"10,5,11,1,14,7,12,3,2,15,4,6,8,9,13"
14266,commdev-image-keyboard-response,293,909811,learnblock1,458.6000000089407,img/planet5_right.png,5,Community 1,NA,TRUE,j,j,NA,NA,NA,1,6,"10,5,11,1,14,7,12,3,2,15,4,6,8,9,13"
14266,commdev-image-keyboard-response,294,911062,learnblock1,556.6000000089407,img/planet1_left.png,1,Community 1,NA,FALSE,j,f,NA,NA,NA,1,6,"10,5,11,1,14,7,12,3,2,15,4,6,8,9,13"
14266,commdev-image-keyboard-response,295,912314,learnblock1,553.5999999940395,img/planet5_right.png,5,Community 1,NA,TRUE,j,j,NA,NA,NA,1,6,"10,5,11,1,14,7,12,3,2,15,4,6,8,9,13"
14266,commdev-image-keyboard-response,296,913564,learnblock1,452.69999998807907,img/planet1_left.png,1,Community 1,NA,TRUE,f,f,NA,NA,NA,1,6,"10,5,11,1,14,7,12,3,2,15,4,6,8,9,13"
14266,commdev-image-keyboard-response,297,914816,learnblock1,476.29999999701977,img/planet10_right.png,10,Community 1,NA,TRUE,j,j,NA,NA,NA,1,6,"10,5,11,1,14,7,12,3,2,15,4,6,8,9,13"
14266,commdev-image-keyboard-response,298,916066,learnblock1,519.9000000059605,img/planet14_left.png,14,Community 1,NA,TRUE,f,f,NA,NA,NA,1,6,"10,5,11,1,14,7,12,3,2,15,4,6,8,9,13"
14266,commdev-image-keyboard-response,299,917317,learnblock1,479.1000000089407,img/planet11_right.png,11,Community 1,NA,TRUE,j,j,NA,NA,NA,1,6,"10,5,11,1,14,7,12,3,2,15,4,6,8,9,13"
14266,commdev-image-keyboard-response,300,918569,learnblock1,503.70000000298023,img/planet1_left.png,1,Community 1,NA,TRUE,f,f,NA,NA,NA,1,6,"10,5,11,1,14,7,12,3,2,15,4,6,8,9,13"
14266,commdev-image-keyboard-response,301,919819,learnblock1,686.5999999940395,img/planet7_left.png,7,Community 2,NA,TRUE,f,f,NA,NA,NA,1,6,"10,5,11,1,14,7,12,3,2,15,4,6,8,9,13"
14266,commdev-image-keyboard-response,302,921070,learnblock1,484.90000000596046,img/planet2_right.png,2,Community 2,NA,TRUE,j,j,NA,NA,NA,1,6,"10,5,11,1,14,7,12,3,2,15,4,6,8,9,13"
14266,commdev-image-keyboard-response,303,922322,learnblock1,625.8999999910593,img/planet15_right.png,15,Community 2,NA,TRUE,j,j,NA,NA,NA,1,6,"10,5,11,1,14,7,12,3,2,15,4,6,8,9,13"
14266,commdev-image-keyboard-response,304,923573,learnblock1,562.4000000059605,img/planet12_right.png,12,Community 2,NA,TRUE,j,j,NA,NA,NA,1,6,"10,5,11,1,14,7,12,3,2,15,4,6,8,9,13"
14266,commdev-image-keyboard-response,305,924824,learnblock1,579.6000000089407,img/planet7_right.png,7,Community 2,NA,TRUE,j,j,NA,NA,NA,1,6,"10,5,11,1,14,7,12,3,2,15,4,6,8,9,13"
14266,commdev-image-keyboard-response,306,926074,learnblock1,517.5999999940395,img/planet2_right.png,2,Community 2,NA,TRUE,j,j,NA,NA,NA,1,6,"10,5,11,1,14,7,12,3,2,15,4,6,8,9,13"
14266,commdev-image-keyboard-response,307,927326,learnblock1,435.6000000089407,img/planet7_left.png,7,Community 2,NA,TRUE,f,f,NA,NA,NA,1,6,"10,5,11,1,14,7,12,3,2,15,4,6,8,9,13"
14266,commdev-image-keyboard-response,308,928584,learnblock1,482,img/planet12_right.png,12,Community 2,NA,TRUE,j,j,NA,NA,NA,1,6,"10,5,11,1,14,7,12,3,2,15,4,6,8,9,13"
14266,commdev-image-keyboard-response,309,929835,learnblock1,670.3999999910593,img/planet3_right.png,3,Community 2,NA,TRUE,j,j,NA,NA,NA,1,6,"10,5,11,1,14,7,12,3,2,15,4,6,8,9,13"
14266,commdev-image-keyboard-response,310,931087,learnblock1,514.2000000029802,img/planet2_right.png,2,Community 2,NA,TRUE,j,j,NA,NA,NA,1,6,"10,5,11,1,14,7,12,3,2,15,4,6,8,9,13"
14266,commdev-image-keyboard-response,311,932338,learnblock1,526.5,img/planet7_right.png,7,Community 2,NA,TRUE,j,j,NA,NA,NA,1,6,"10,5,11,1,14,7,12,3,2,15,4,6,8,9,13"
14266,commdev-image-keyboard-response,312,933589,learnblock1,717.2000000029802,img/planet15_right.png,15,Community 2,NA,TRUE,j,j,NA,NA,NA,1,6,"10,5,11,1,14,7,12,3,2,15,4,6,8,9,13"
14266,commdev-image-keyboard-response,313,934840,learnblock1,547,img/planet7_left.png,7,Community 2,NA,TRUE,f,f,NA,NA,NA,1,6,"10,5,11,1,14,7,12,3,2,15,4,6,8,9,13"
14266,commdev-image-keyboard-response,314,936091,learnblock1,675.2999999970198,img/planet1_right.png,1,Community 1,NA,TRUE,j,j,NA,NA,NA,1,6,"10,5,11,1,14,7,12,3,2,15,4,6,8,9,13"
14266,commdev-image-keyboard-response,315,937342,learnblock1,486.80000001192093,img/planet11_left.png,11,Community 1,NA,TRUE,f,f,NA,NA,NA,1,6,"10,5,11,1,14,7,12,3,2,15,4,6,8,9,13"
14266,commdev-image-keyboard-response,316,938594,learnblock1,474.8999999910593,img/planet1_left.png,1,Community 1,NA,TRUE,f,f,NA,NA,NA,1,6,"10,5,11,1,14,7,12,3,2,15,4,6,8,9,13"
14266,commdev-image-keyboard-response,317,939848,learnblock1,483.79999999701977,img/planet7_left.png,7,Community 2,NA,TRUE,f,f,NA,NA,NA,1,6,"10,5,11,1,14,7,12,3,2,15,4,6,8,9,13"
14266,commdev-image-keyboard-response,318,941109,learnblock1,569.1000000089407,img/planet1_left.png,1,Community 1,NA,TRUE,f,f,NA,NA,NA,1,6,"10,5,11,1,14,7,12,3,2,15,4,6,8,9,13"
14266,commdev-image-keyboard-response,319,942372,learnblock1,567.7999999970198,img/planet11_right.png,11,Community 1,NA,TRUE,j,j,NA,NA,NA,1,6,"10,5,11,1,14,7,12,3,2,15,4,6,8,9,13"
14266,commdev-image-keyboard-response,320,943623,learnblock1,492.3999999910593,img/planet10_left.png,10,Community 1,NA,TRUE,f,f,NA,NA,NA,1,6,"10,5,11,1,14,7,12,3,2,15,4,6,8,9,13"
14266,commdev-image-keyboard-response,321,944874,learnblock1,766.2999999970198,img/planet1_left.png,1,Community 1,NA,TRUE,f,f,NA,NA,NA,1,6,"10,5,11,1,14,7,12,3,2,15,4,6,8,9,13"
14266,commdev-image-keyboard-response,322,946125,learnblock1,580.7999999970198,img/planet11_right.png,11,Community 1,NA,TRUE,j,j,NA,NA,NA,1,6,"10,5,11,1,14,7,12,3,2,15,4,6,8,9,13"
14266,commdev-image-keyboard-response,323,947385,learnblock1,461.40000000596046,img/planet1_left.png,1,Community 1,NA,TRUE,f,f,NA,NA,NA,1,6,"10,5,11,1,14,7,12,3,2,15,4,6,8,9,13"
14266,commdev-image-keyboard-response,324,948637,learnblock1,464.59999999403954,img/planet10_left.png,10,Community 1,NA,TRUE,f,f,NA,NA,NA,1,6,"10,5,11,1,14,7,12,3,2,15,4,6,8,9,13"
14266,commdev-image-keyboard-response,325,949888,learnblock1,406.40000000596046,img/planet11_right.png,11,Community 1,NA,TRUE,j,j,NA,NA,NA,1,6,"10,5,11,1,14,7,12,3,2,15,4,6,8,9,13"
14266,commdev-image-keyboard-response,326,951140,learnblock1,530.8999999910593,img/planet14_left.png,14,Community 1,NA,TRUE,f,f,NA,NA,NA,1,6,"10,5,11,1,14,7,12,3,2,15,4,6,8,9,13"
14266,commdev-image-keyboard-response,327,952390,learnblock1,535.2000000029802,img/planet5_right.png,5,Community 1,NA,TRUE,j,j,NA,NA,NA,1,6,"10,5,11,1,14,7,12,3,2,15,4,6,8,9,13"
14266,commdev-image-keyboard-response,328,953641,learnblock1,523.1000000089407,img/planet14_right.png,14,Community 1,NA,TRUE,j,j,NA,NA,NA,1,6,"10,5,11,1,14,7,12,3,2,15,4,6,8,9,13"
14266,commdev-image-keyboard-response,329,954893,learnblock1,456.70000000298023,img/planet4_right.png,4,Community 3,NA,TRUE,j,j,NA,NA,NA,1,6,"10,5,11,1,14,7,12,3,2,15,4,6,8,9,13"
14266,commdev-image-keyboard-response,330,956144,learnblock1,672.2000000029802,img/planet8_right.png,8,Community 3,NA,TRUE,j,j,NA,NA,NA,1,6,"10,5,11,1,14,7,12,3,2,15,4,6,8,9,13"
14266,commdev-image-keyboard-response,331,957396,learnblock1,474.70000000298023,img/planet9_left.png,9,Community 3,NA,TRUE,f,f,NA,NA,NA,1,6,"10,5,11,1,14,7,12,3,2,15,4,6,8,9,13"
14266,commdev-image-keyboard-response,332,958647,learnblock1,625.1000000089407,img/planet4_left.png,4,Community 3,NA,TRUE,f,f,NA,NA,NA,1,6,"10,5,11,1,14,7,12,3,2,15,4,6,8,9,13"
14266,commdev-image-keyboard-response,333,959898,learnblock1,530.9000000059605,img/planet13_left.png,13,Community 3,NA,TRUE,f,f,NA,NA,NA,1,6,"10,5,11,1,14,7,12,3,2,15,4,6,8,9,13"
14266,commdev-image-keyboard-response,334,961149,learnblock1,1032.6000000089407,img/planet9_left.png,9,Community 3,NA,TRUE,f,f,NA,NA,NA,1,6,"10,5,11,1,14,7,12,3,2,15,4,6,8,9,13"
14266,commdev-image-keyboard-response,335,962400,learnblock1,582.2000000029802,img/planet13_right.png,13,Community 3,NA,TRUE,j,j,NA,NA,NA,1,6,"10,5,11,1,14,7,12,3,2,15,4,6,8,9,13"
14266,commdev-image-keyboard-response,336,963655,learnblock1,407.3999999910593,img/planet8_right.png,8,Community 3,NA,FALSE,f,j,NA,NA,NA,1,6,"10,5,11,1,14,7,12,3,2,15,4,6,8,9,13"
14266,commdev-image-keyboard-response,337,964906,learnblock1,623.2000000029802,img/planet9_right.png,9,Community 3,NA,TRUE,j,j,NA,NA,NA,1,6,"10,5,11,1,14,7,12,3,2,15,4,6,8,9,13"
14266,commdev-image-keyboard-response,338,966157,learnblock1,508,img/planet13_left.png,13,Community 3,NA,TRUE,f,f,NA,NA,NA,1,6,"10,5,11,1,14,7,12,3,2,15,4,6,8,9,13"
14266,commdev-image-keyboard-response,339,967421,learnblock1,488.80000001192093,img/planet6_right.png,6,Community 3,NA,TRUE,j,j,NA,NA,NA,1,6,"10,5,11,1,14,7,12,3,2,15,4,6,8,9,13"
14266,commdev-image-keyboard-response,340,968672,learnblock1,458.59999999403954,img/planet13_left.png,13,Community 3,NA,TRUE,f,f,NA,NA,NA,1,6,"10,5,11,1,14,7,12,3,2,15,4,6,8,9,13"
14266,commdev-image-keyboard-response,341,969923,learnblock1,452.1000000089407,img/planet8_right.png,8,Community 3,NA,TRUE,j,j,NA,NA,NA,1,6,"10,5,11,1,14,7,12,3,2,15,4,6,8,9,13"
14266,commdev-image-keyboard-response,342,971174,learnblock1,832.1000000089407,img/planet6_right.png,6,Community 3,NA,TRUE,j,j,NA,NA,NA,1,6,"10,5,11,1,14,7,12,3,2,15,4,6,8,9,13"
14266,commdev-image-keyboard-response,343,972426,learnblock1,494.09999999403954,img/planet3_left.png,3,Community 2,NA,TRUE,f,f,NA,NA,NA,1,6,"10,5,11,1,14,7,12,3,2,15,4,6,8,9,13"
14266,commdev-image-keyboard-response,344,973677,learnblock1,623.4000000059605,img/planet12_left.png,12,Community 2,NA,TRUE,f,f,NA,NA,NA,1,6,"10,5,11,1,14,7,12,3,2,15,4,6,8,9,13"
14266,commdev-image-keyboard-response,345,974928,learnblock1,475.79999999701977,img/planet3_right.png,3,Community 2,NA,TRUE,j,j,NA,NA,NA,1,6,"10,5,11,1,14,7,12,3,2,15,4,6,8,9,13"
14266,commdev-image-keyboard-response,346,976194,learnblock1,538.9000000059605,img/planet12_left.png,12,Community 2,NA,FALSE,j,f,NA,NA,NA,1,6,"10,5,11,1,14,7,12,3,2,15,4,6,8,9,13"
14266,commdev-image-keyboard-response,347,977455,learnblock1,623.5,img/planet15_right.png,15,Community 2,NA,TRUE,j,j,NA,NA,NA,1,6,"10,5,11,1,14,7,12,3,2,15,4,6,8,9,13"
14266,commdev-image-keyboard-response,348,978706,learnblock1,545.6000000089407,img/planet7_right.png,7,Community 2,NA,TRUE,j,j,NA,NA,NA,1,6,"10,5,11,1,14,7,12,3,2,15,4,6,8,9,13"
14266,commdev-image-keyboard-response,349,979958,learnblock1,783.7000000029802,img/planet2_right.png,2,Community 2,NA,TRUE,j,j,NA,NA,NA,1,6,"10,5,11,1,14,7,12,3,2,15,4,6,8,9,13"
14266,commdev-image-keyboard-response,350,981208,learnblock1,602.4000000059605,img/planet12_right.png,12,Community 2,NA,TRUE,j,j,NA,NA,NA,1,6,"10,5,11,1,14,7,12,3,2,15,4,6,8,9,13"
14266,commdev-image-keyboard-response,351,982469,learnblock1,578.6999999880791,img/planet3_right.png,3,Community 2,NA,TRUE,j,j,NA,NA,NA,1,6,"10,5,11,1,14,7,12,3,2,15,4,6,8,9,13"
14266,commdev-image-keyboard-response,352,983720,learnblock1,591.5,img/planet15_right.png,15,Community 2,NA,TRUE,j,j,NA,NA,NA,1,6,"10,5,11,1,14,7,12,3,2,15,4,6,8,9,13"
14266,commdev-image-keyboard-response,353,984971,learnblock1,521.5999999940395,img/planet3_left.png,3,Community 2,NA,TRUE,f,f,NA,NA,NA,1,6,"10,5,11,1,14,7,12,3,2,15,4,6,8,9,13"
14266,commdev-image-keyboard-response,354,986222,learnblock1,591.2999999970198,img/planet12_right.png,12,Community 2,NA,TRUE,j,j,NA,NA,NA,1,6,"10,5,11,1,14,7,12,3,2,15,4,6,8,9,13"
14266,commdev-image-keyboard-response,355,987473,learnblock1,509,img/planet3_left.png,3,Community 2,NA,TRUE,f,f,NA,NA,NA,1,6,"10,5,11,1,14,7,12,3,2,15,4,6,8,9,13"
14266,commdev-image-keyboard-response,356,988725,learnblock1,697.8999999910593,img/planet15_right.png,15,Community 2,NA,TRUE,j,j,NA,NA,NA,1,6,"10,5,11,1,14,7,12,3,2,15,4,6,8,9,13"
14266,commdev-image-keyboard-response,357,989976,learnblock1,896.2999999970198,img/planet12_left.png,12,Community 2,NA,TRUE,f,f,NA,NA,NA,1,6,"10,5,11,1,14,7,12,3,2,15,4,6,8,9,13"
14266,commdev-image-keyboard-response,358,991227,learnblock1,727.6999999880791,img/planet15_left.png,15,Community 2,NA,TRUE,f,f,NA,NA,NA,1,6,"10,5,11,1,14,7,12,3,2,15,4,6,8,9,13"
14266,commdev-image-keyboard-response,359,992478,learnblock1,601.3999999910593,img/planet2_left.png,2,Community 2,NA,TRUE,f,f,NA,NA,NA,1,6,"10,5,11,1,14,7,12,3,2,15,4,6,8,9,13"
14266,commdev-image-keyboard-response,360,993729,learnblock1,650.6000000089407,img/planet15_left.png,15,Community 2,NA,TRUE,f,f,NA,NA,NA,1,6,"10,5,11,1,14,7,12,3,2,15,4,6,8,9,13"
14266,commdev-image-keyboard-response,361,994981,learnblock1,563.6000000089407,img/planet12_right.png,12,Community 2,NA,TRUE,j,j,NA,NA,NA,1,6,"10,5,11,1,14,7,12,3,2,15,4,6,8,9,13"
14266,commdev-image-keyboard-response,362,996232,learnblock1,702.8999999910593,img/planet2_right.png,2,Community 2,NA,TRUE,j,j,NA,NA,NA,1,6,"10,5,11,1,14,7,12,3,2,15,4,6,8,9,13"
14266,commdev-image-keyboard-response,363,997484,learnblock1,499.40000000596046,img/planet12_right.png,12,Community 2,NA,TRUE,j,j,NA,NA,NA,1,6,"10,5,11,1,14,7,12,3,2,15,4,6,8,9,13"
14266,commdev-image-keyboard-response,364,998735,learnblock1,561.5999999940395,img/planet2_left.png,2,Community 2,NA,TRUE,f,f,NA,NA,NA,1,6,"10,5,11,1,14,7,12,3,2,15,4,6,8,9,13"
14266,commdev-image-keyboard-response,365,999986,learnblock1,540.9000000059605,img/planet3_right.png,3,Community 2,NA,TRUE,j,j,NA,NA,NA,1,6,"10,5,11,1,14,7,12,3,2,15,4,6,8,9,13"
14266,commdev-image-keyboard-response,366,1001237,learnblock1,589.8999999910593,img/planet15_right.png,15,Community 2,NA,TRUE,j,j,NA,NA,NA,1,6,"10,5,11,1,14,7,12,3,2,15,4,6,8,9,13"
14266,commdev-image-keyboard-response,367,1002488,learnblock1,537.5,img/planet12_left.png,12,Community 2,NA,TRUE,f,f,NA,NA,NA,1,6,"10,5,11,1,14,7,12,3,2,15,4,6,8,9,13"
14266,commdev-image-keyboard-response,368,1003739,learnblock1,565.8999999910593,img/planet3_right.png,3,Community 2,NA,TRUE,j,j,NA,NA,NA,1,6,"10,5,11,1,14,7,12,3,2,15,4,6,8,9,13"
14266,commdev-image-keyboard-response,369,1004990,learnblock1,557,img/planet6_right.png,6,Community 3,NA,TRUE,j,j,NA,NA,NA,1,6,"10,5,11,1,14,7,12,3,2,15,4,6,8,9,13"
14266,commdev-image-keyboard-response,370,1006241,learnblock1,550,img/planet3_left.png,3,Community 2,NA,TRUE,f,f,NA,NA,NA,1,6,"10,5,11,1,14,7,12,3,2,15,4,6,8,9,13"
14266,commdev-image-keyboard-response,371,1007492,learnblock1,552.4000000059605,img/planet6_left.png,6,Community 3,NA,TRUE,f,f,NA,NA,NA,1,6,"10,5,11,1,14,7,12,3,2,15,4,6,8,9,13"
14266,commdev-image-keyboard-response,372,1008744,learnblock1,709.5999999940395,img/planet8_left.png,8,Community 3,NA,TRUE,f,f,NA,NA,NA,1,6,"10,5,11,1,14,7,12,3,2,15,4,6,8,9,13"
14266,commdev-image-keyboard-response,373,1009995,learnblock1,546.2999999970198,img/planet6_right.png,6,Community 3,NA,TRUE,j,j,NA,NA,NA,1,6,"10,5,11,1,14,7,12,3,2,15,4,6,8,9,13"
14266,commdev-image-keyboard-response,374,1011246,learnblock1,497.5,img/planet3_left.png,3,Community 2,NA,TRUE,f,f,NA,NA,NA,1,6,"10,5,11,1,14,7,12,3,2,15,4,6,8,9,13"
14266,commdev-image-keyboard-response,375,1012498,learnblock1,469.29999999701977,img/planet12_right.png,12,Community 2,NA,TRUE,j,j,NA,NA,NA,1,6,"10,5,11,1,14,7,12,3,2,15,4,6,8,9,13"
14266,commdev-image-keyboard-response,376,1013749,learnblock1,538.7999999970198,img/planet7_right.png,7,Community 2,NA,TRUE,j,j,NA,NA,NA,1,6,"10,5,11,1,14,7,12,3,2,15,4,6,8,9,13"
14266,commdev-image-keyboard-response,377,1015000,learnblock1,555.5999999940395,img/planet1_right.png,1,Community 1,NA,TRUE,j,j,NA,NA,NA,1,6,"10,5,11,1,14,7,12,3,2,15,4,6,8,9,13"
14266,commdev-image-keyboard-response,378,1016251,learnblock1,572.2000000029802,img/planet11_left.png,11,Community 1,NA,TRUE,f,f,NA,NA,NA,1,6,"10,5,11,1,14,7,12,3,2,15,4,6,8,9,13"
14266,commdev-image-keyboard-response,379,1017502,learnblock1,510.6000000089407,img/planet1_left.png,1,Community 1,NA,TRUE,f,f,NA,NA,NA,1,6,"10,5,11,1,14,7,12,3,2,15,4,6,8,9,13"
14266,commdev-image-keyboard-response,380,1018753,learnblock1,516.0999999940395,img/planet11_left.png,11,Community 1,NA,TRUE,f,f,NA,NA,NA,1,6,"10,5,11,1,14,7,12,3,2,15,4,6,8,9,13"
14266,commdev-image-keyboard-response,381,1020005,learnblock1,494.5,img/planet14_right.png,14,Community 1,NA,TRUE,j,j,NA,NA,NA,1,6,"10,5,11,1,14,7,12,3,2,15,4,6,8,9,13"
14266,commdev-image-keyboard-response,382,1021257,learnblock1,457.90000000596046,img/planet11_right.png,11,Community 1,NA,TRUE,j,j,NA,NA,NA,1,6,"10,5,11,1,14,7,12,3,2,15,4,6,8,9,13"
14266,commdev-image-keyboard-response,383,1022511,learnblock1,649.5,img/planet14_right.png,14,Community 1,NA,TRUE,j,j,NA,NA,NA,1,6,"10,5,11,1,14,7,12,3,2,15,4,6,8,9,13"
14266,commdev-image-keyboard-response,384,1023762,learnblock1,514.5999999940395,img/planet10_left.png,10,Community 1,NA,TRUE,f,f,NA,NA,NA,1,6,"10,5,11,1,14,7,12,3,2,15,4,6,8,9,13"
14266,commdev-image-keyboard-response,385,1025013,learnblock1,500.09999999403954,img/planet5_left.png,5,Community 1,NA,TRUE,f,f,NA,NA,NA,1,6,"10,5,11,1,14,7,12,3,2,15,4,6,8,9,13"
14266,commdev-image-keyboard-response,386,1026264,learnblock1,464.5,img/planet11_right.png,11,Community 1,NA,TRUE,j,j,NA,NA,NA,1,6,"10,5,11,1,14,7,12,3,2,15,4,6,8,9,13"
14266,commdev-image-keyboard-response,387,1027516,learnblock1,450.59999999403954,img/planet5_right.png,5,Community 1,NA,TRUE,j,j,NA,NA,NA,1,6,"10,5,11,1,14,7,12,3,2,15,4,6,8,9,13"
14266,commdev-image-keyboard-response,388,1028767,learnblock1,459.80000001192093,img/planet1_left.png,1,Community 1,NA,TRUE,f,f,NA,NA,NA,1,6,"10,5,11,1,14,7,12,3,2,15,4,6,8,9,13"
14266,commdev-image-keyboard-response,389,1030018,learnblock1,543.9000000059605,img/planet11_left.png,11,Community 1,NA,TRUE,f,f,NA,NA,NA,1,6,"10,5,11,1,14,7,12,3,2,15,4,6,8,9,13"
14266,commdev-image-keyboard-response,390,1031269,learnblock1,439.40000000596046,img/planet1_left.png,1,Community 1,NA,TRUE,f,f,NA,NA,NA,1,6,"10,5,11,1,14,7,12,3,2,15,4,6,8,9,13"
14266,commdev-image-keyboard-response,391,1032521,learnblock1,483.6000000089407,img/planet7_left.png,7,Community 2,NA,TRUE,f,f,NA,NA,NA,1,6,"10,5,11,1,14,7,12,3,2,15,4,6,8,9,13"
14266,commdev-image-keyboard-response,392,1033772,learnblock1,502.69999998807907,img/planet12_left.png,12,Community 2,NA,TRUE,f,f,NA,NA,NA,1,6,"10,5,11,1,14,7,12,3,2,15,4,6,8,9,13"
14266,commdev-image-keyboard-response,393,1035024,learnblock1,508.40000000596046,img/planet3_left.png,3,Community 2,NA,TRUE,f,f,NA,NA,NA,1,6,"10,5,11,1,14,7,12,3,2,15,4,6,8,9,13"
14266,commdev-image-keyboard-response,394,1036275,learnblock1,503.8999999910593,img/planet12_right.png,12,Community 2,NA,TRUE,j,j,NA,NA,NA,1,6,"10,5,11,1,14,7,12,3,2,15,4,6,8,9,13"
14266,commdev-image-keyboard-response,395,1037527,learnblock1,560.6000000089407,img/planet2_right.png,2,Community 2,NA,TRUE,j,j,NA,NA,NA,1,6,"10,5,11,1,14,7,12,3,2,15,4,6,8,9,13"
14266,commdev-image-keyboard-response,396,1038778,learnblock1,448.70000000298023,img/planet7_right.png,7,Community 2,NA,TRUE,j,j,NA,NA,NA,1,6,"10,5,11,1,14,7,12,3,2,15,4,6,8,9,13"
14266,commdev-image-keyboard-response,397,1040029,learnblock1,409,img/planet1_right.png,1,Community 1,NA,TRUE,j,j,NA,NA,NA,1,6,"10,5,11,1,14,7,12,3,2,15,4,6,8,9,13"
14266,commdev-image-keyboard-response,398,1041281,learnblock1,435.59999999403954,img/planet10_left.png,10,Community 1,NA,TRUE,f,f,NA,NA,NA,1,6,"10,5,11,1,14,7,12,3,2,15,4,6,8,9,13"
14266,commdev-image-keyboard-response,399,1042532,learnblock1,579.2000000029802,img/planet5_left.png,5,Community 1,NA,TRUE,f,f,NA,NA,NA,1,6,"10,5,11,1,14,7,12,3,2,15,4,6,8,9,13"
14266,commdev-image-keyboard-response,400,1043784,learnblock1,512.3000000119209,img/planet14_right.png,14,Community 1,NA,TRUE,j,j,NA,NA,NA,1,6,"10,5,11,1,14,7,12,3,2,15,4,6,8,9,13"
14266,commdev-image-keyboard-response,401,1045035,learnblock1,467,img/planet10_right.png,10,Community 1,NA,TRUE,j,j,NA,NA,NA,1,6,"10,5,11,1,14,7,12,3,2,15,4,6,8,9,13"
14266,commdev-image-keyboard-response,402,1046287,learnblock1,514.8999999910593,img/planet11_right.png,11,Community 1,NA,TRUE,j,j,NA,NA,NA,1,6,"10,5,11,1,14,7,12,3,2,15,4,6,8,9,13"
14266,commdev-image-keyboard-response,403,1047539,learnblock1,457.3999999910593,img/planet14_right.png,14,Community 1,NA,TRUE,j,j,NA,NA,NA,1,6,"10,5,11,1,14,7,12,3,2,15,4,6,8,9,13"
14266,commdev-image-keyboard-response,404,1048791,learnblock1,461.3999999910593,img/planet10_right.png,10,Community 1,NA,TRUE,j,j,NA,NA,NA,1,6,"10,5,11,1,14,7,12,3,2,15,4,6,8,9,13"
14266,commdev-image-keyboard-response,405,1050042,learnblock1,458.59999999403954,img/planet5_left.png,5,Community 1,NA,TRUE,f,f,NA,NA,NA,1,6,"10,5,11,1,14,7,12,3,2,15,4,6,8,9,13"
14266,commdev-image-keyboard-response,406,1051293,learnblock1,516.9000000059605,img/planet1_left.png,1,Community 1,NA,TRUE,f,f,NA,NA,NA,1,6,"10,5,11,1,14,7,12,3,2,15,4,6,8,9,13"
14266,commdev-image-keyboard-response,407,1052549,learnblock1,453.40000000596046,img/planet11_right.png,11,Community 1,NA,TRUE,j,j,NA,NA,NA,1,6,"10,5,11,1,14,7,12,3,2,15,4,6,8,9,13"
14266,commdev-image-keyboard-response,408,1053800,learnblock1,520.5,img/planet10_left.png,10,Community 1,NA,TRUE,f,f,NA,NA,NA,1,6,"10,5,11,1,14,7,12,3,2,15,4,6,8,9,13"
14266,commdev-image-keyboard-response,409,1055051,learnblock1,512.3000000119209,img/planet11_right.png,11,Community 1,NA,TRUE,j,j,NA,NA,NA,1,6,"10,5,11,1,14,7,12,3,2,15,4,6,8,9,13"
14266,commdev-image-keyboard-response,410,1056303,learnblock1,503.20000000298023,img/planet1_left.png,1,Community 1,NA,TRUE,f,f,NA,NA,NA,1,6,"10,5,11,1,14,7,12,3,2,15,4,6,8,9,13"
14266,commdev-image-keyboard-response,411,1057554,learnblock1,629.5,img/planet11_left.png,11,Community 1,NA,TRUE,f,f,NA,NA,NA,1,6,"10,5,11,1,14,7,12,3,2,15,4,6,8,9,13"
14266,commdev-image-keyboard-response,412,1058806,learnblock1,530.2000000029802,img/planet5_right.png,5,Community 1,NA,TRUE,j,j,NA,NA,NA,1,6,"10,5,11,1,14,7,12,3,2,15,4,6,8,9,13"
14266,commdev-image-keyboard-response,413,1060057,learnblock1,565.8000000119209,img/planet1_right.png,1,Community 1,NA,TRUE,j,j,NA,NA,NA,1,6,"10,5,11,1,14,7,12,3,2,15,4,6,8,9,13"
14266,commdev-image-keyboard-response,414,1061309,learnblock1,411.29999999701977,img/planet10_left.png,10,Community 1,NA,TRUE,f,f,NA,NA,NA,1,6,"10,5,11,1,14,7,12,3,2,15,4,6,8,9,13"
14266,commdev-image-keyboard-response,415,1062560,learnblock1,402.40000000596046,img/planet11_right.png,11,Community 1,NA,TRUE,j,j,NA,NA,NA,1,6,"10,5,11,1,14,7,12,3,2,15,4,6,8,9,13"
14266,commdev-image-keyboard-response,416,1063812,learnblock1,652.2000000029802,img/planet14_right.png,14,Community 1,NA,TRUE,j,j,NA,NA,NA,1,6,"10,5,11,1,14,7,12,3,2,15,4,6,8,9,13"
14266,commdev-image-keyboard-response,417,1065063,learnblock1,675.8999999910593,img/planet5_right.png,5,Community 1,NA,TRUE,j,j,NA,NA,NA,1,6,"10,5,11,1,14,7,12,3,2,15,4,6,8,9,13"
14266,commdev-image-keyboard-response,418,1066314,learnblock1,500.70000000298023,img/planet1_left.png,1,Community 1,NA,TRUE,f,f,NA,NA,NA,1,6,"10,5,11,1,14,7,12,3,2,15,4,6,8,9,13"
14266,commdev-image-keyboard-response,419,1067565,learnblock1,704.6000000089407,img/planet10_left.png,10,Community 1,NA,TRUE,f,f,NA,NA,NA,1,6,"10,5,11,1,14,7,12,3,2,15,4,6,8,9,13"
14266,commdev-image-keyboard-response,420,1068816,learnblock1,385.6000000089407,img/planet11_right.png,11,Community 1,NA,TRUE,j,j,NA,NA,NA,1,6,"10,5,11,1,14,7,12,3,2,15,4,6,8,9,13"
14266,commdev-image-keyboard-response,421,1070067,learnblock1,734.3999999910593,img/planet1_right.png,1,Community 1,NA,TRUE,j,j,NA,NA,NA,1,6,"10,5,11,1,14,7,12,3,2,15,4,6,8,9,13"
14266,commdev-image-keyboard-response,422,1071319,learnblock1,556.2999999970198,img/planet11_right.png,11,Community 1,NA,TRUE,j,j,NA,NA,NA,1,6,"10,5,11,1,14,7,12,3,2,15,4,6,8,9,13"
14266,commdev-image-keyboard-response,423,1072570,learnblock1,579.2999999970198,img/planet1_right.png,1,Community 1,NA,TRUE,j,j,NA,NA,NA,1,6,"10,5,11,1,14,7,12,3,2,15,4,6,8,9,13"
14266,commdev-image-keyboard-response,424,1073822,learnblock1,451.6000000089407,img/planet11_left.png,11,Community 1,NA,FALSE,j,f,NA,NA,NA,1,6,"10,5,11,1,14,7,12,3,2,15,4,6,8,9,13"
14266,commdev-image-keyboard-response,425,1075072,learnblock1,616.1999999880791,img/planet14_right.png,14,Community 1,NA,TRUE,j,j,NA,NA,NA,1,6,"10,5,11,1,14,7,12,3,2,15,4,6,8,9,13"
14266,commdev-image-keyboard-response,426,1076339,learnblock1,499.30000001192093,img/planet4_left.png,4,Community 3,NA,TRUE,f,f,NA,NA,NA,1,6,"10,5,11,1,14,7,12,3,2,15,4,6,8,9,13"
14266,commdev-image-keyboard-response,427,1077591,learnblock1,486.6000000089407,img/planet14_right.png,14,Community 1,NA,TRUE,j,j,NA,NA,NA,1,6,"10,5,11,1,14,7,12,3,2,15,4,6,8,9,13"
14266,commdev-image-keyboard-response,428,1078843,learnblock1,484.70000000298023,img/planet4_right.png,4,Community 3,NA,TRUE,j,j,NA,NA,NA,1,6,"10,5,11,1,14,7,12,3,2,15,4,6,8,9,13"
14266,commdev-image-keyboard-response,429,1080094,learnblock1,468.90000000596046,img/planet9_left.png,9,Community 3,NA,TRUE,f,f,NA,NA,NA,1,6,"10,5,11,1,14,7,12,3,2,15,4,6,8,9,13"
14266,commdev-image-keyboard-response,430,1081345,learnblock1,505.79999999701977,img/planet13_right.png,13,Community 3,NA,TRUE,j,j,NA,NA,NA,1,6,"10,5,11,1,14,7,12,3,2,15,4,6,8,9,13"
14266,commdev-image-keyboard-response,431,1082596,learnblock1,550.2999999970198,img/planet8_left.png,8,Community 3,NA,TRUE,f,f,NA,NA,NA,1,6,"10,5,11,1,14,7,12,3,2,15,4,6,8,9,13"
14266,commdev-image-keyboard-response,432,1083848,learnblock1,474.20000000298023,img/planet6_right.png,6,Community 3,NA,TRUE,j,j,NA,NA,NA,1,6,"10,5,11,1,14,7,12,3,2,15,4,6,8,9,13"
14266,commdev-image-keyboard-response,433,1085099,learnblock1,532.6000000089407,img/planet3_right.png,3,Community 2,NA,TRUE,j,j,NA,NA,NA,1,6,"10,5,11,1,14,7,12,3,2,15,4,6,8,9,13"
14266,commdev-image-keyboard-response,434,1086350,learnblock1,605.7999999970198,img/planet15_right.png,15,Community 2,NA,TRUE,j,j,NA,NA,NA,1,6,"10,5,11,1,14,7,12,3,2,15,4,6,8,9,13"
14266,commdev-image-keyboard-response,435,1087602,learnblock1,602.3999999910593,img/planet3_left.png,3,Community 2,NA,TRUE,f,f,NA,NA,NA,1,6,"10,5,11,1,14,7,12,3,2,15,4,6,8,9,13"
14266,commdev-image-keyboard-response,436,1088853,learnblock1,523.5999999940395,img/planet2_left.png,2,Community 2,NA,TRUE,f,f,NA,NA,NA,1,6,"10,5,11,1,14,7,12,3,2,15,4,6,8,9,13"
14266,commdev-image-keyboard-response,437,1090104,learnblock1,659.2000000029802,img/planet15_right.png,15,Community 2,NA,TRUE,j,j,NA,NA,NA,1,6,"10,5,11,1,14,7,12,3,2,15,4,6,8,9,13"
14266,commdev-image-keyboard-response,438,1091355,learnblock1,489.20000000298023,img/planet3_left.png,3,Community 2,NA,TRUE,f,f,NA,NA,NA,1,6,"10,5,11,1,14,7,12,3,2,15,4,6,8,9,13"
14266,commdev-image-keyboard-response,439,1092607,learnblock1,497.20000000298023,img/planet15_right.png,15,Community 2,NA,TRUE,j,j,NA,NA,NA,1,6,"10,5,11,1,14,7,12,3,2,15,4,6,8,9,13"
14266,commdev-image-keyboard-response,440,1093858,learnblock1,583.6000000089407,img/planet12_left.png,12,Community 2,NA,TRUE,f,f,NA,NA,NA,1,6,"10,5,11,1,14,7,12,3,2,15,4,6,8,9,13"
14266,commdev-image-keyboard-response,441,1095109,learnblock1,627.2999999970198,img/planet7_right.png,7,Community 2,NA,TRUE,j,j,NA,NA,NA,1,6,"10,5,11,1,14,7,12,3,2,15,4,6,8,9,13"
14266,commdev-image-keyboard-response,442,1096360,learnblock1,496.79999999701977,img/planet1_left.png,1,Community 1,NA,TRUE,f,f,NA,NA,NA,1,6,"10,5,11,1,14,7,12,3,2,15,4,6,8,9,13"
14266,commdev-image-keyboard-response,443,1097611,learnblock1,378.20000000298023,img/planet10_right.png,10,Community 1,NA,TRUE,j,j,NA,NA,NA,1,6,"10,5,11,1,14,7,12,3,2,15,4,6,8,9,13"
14266,commdev-image-keyboard-response,444,1098863,learnblock1,932.7999999970198,img/planet5_left.png,5,Community 1,NA,TRUE,f,f,NA,NA,NA,1,6,"10,5,11,1,14,7,12,3,2,15,4,6,8,9,13"
14266,commdev-image-keyboard-response,445,1100113,learnblock1,457.59999999403954,img/planet10_right.png,10,Community 1,NA,TRUE,j,j,NA,NA,NA,1,6,"10,5,11,1,14,7,12,3,2,15,4,6,8,9,13"
14266,commdev-image-keyboard-response,446,1101365,learnblock1,687.0999999940395,img/planet14_right.png,14,Community 1,NA,TRUE,j,j,NA,NA,NA,1,6,"10,5,11,1,14,7,12,3,2,15,4,6,8,9,13"
14266,commdev-image-keyboard-response,447,1102617,learnblock1,514.1999999880791,img/planet10_left.png,10,Community 1,NA,TRUE,f,f,NA,NA,NA,1,6,"10,5,11,1,14,7,12,3,2,15,4,6,8,9,13"
14266,commdev-image-keyboard-response,448,1103867,learnblock1,664.5999999940395,img/planet11_left.png,11,Community 1,NA,TRUE,f,f,NA,NA,NA,1,6,"10,5,11,1,14,7,12,3,2,15,4,6,8,9,13"
14266,commdev-image-keyboard-response,449,1105119,learnblock1,507.1000000089407,img/planet10_left.png,10,Community 1,NA,TRUE,f,f,NA,NA,NA,1,6,"10,5,11,1,14,7,12,3,2,15,4,6,8,9,13"
14266,commdev-image-keyboard-response,450,1106370,learnblock1,527,img/planet1_left.png,1,Community 1,NA,TRUE,f,f,NA,NA,NA,1,6,"10,5,11,1,14,7,12,3,2,15,4,6,8,9,13"
14266,commdev-image-keyboard-response,451,1107628,learnblock1,496.30000001192093,img/planet10_left.png,10,Community 1,NA,TRUE,f,f,NA,NA,NA,1,6,"10,5,11,1,14,7,12,3,2,15,4,6,8,9,13"
14266,commdev-image-keyboard-response,452,1108879,learnblock1,541.2000000029802,img/planet14_left.png,14,Community 1,NA,TRUE,f,f,NA,NA,NA,1,6,"10,5,11,1,14,7,12,3,2,15,4,6,8,9,13"
14266,commdev-image-keyboard-response,453,1110130,learnblock1,443.90000000596046,img/planet5_right.png,5,Community 1,NA,TRUE,j,j,NA,NA,NA,1,6,"10,5,11,1,14,7,12,3,2,15,4,6,8,9,13"
14266,commdev-image-keyboard-response,454,1111381,learnblock1,512.9000000059605,img/planet1_right.png,1,Community 1,NA,TRUE,j,j,NA,NA,NA,1,6,"10,5,11,1,14,7,12,3,2,15,4,6,8,9,13"
14266,commdev-image-keyboard-response,455,1112633,learnblock1,503,img/planet10_left.png,10,Community 1,NA,TRUE,f,f,NA,NA,NA,1,6,"10,5,11,1,14,7,12,3,2,15,4,6,8,9,13"
14266,commdev-image-keyboard-response,456,1113884,learnblock1,497.5,img/planet14_right.png,14,Community 1,NA,TRUE,j,j,NA,NA,NA,1,6,"10,5,11,1,14,7,12,3,2,15,4,6,8,9,13"
14266,commdev-image-keyboard-response,457,1115135,learnblock1,557,img/planet11_right.png,11,Community 1,NA,TRUE,j,j,NA,NA,NA,1,6,"10,5,11,1,14,7,12,3,2,15,4,6,8,9,13"
14266,commdev-image-keyboard-response,458,1116386,learnblock1,472.90000000596046,img/planet14_left.png,14,Community 1,NA,TRUE,f,f,NA,NA,NA,1,6,"10,5,11,1,14,7,12,3,2,15,4,6,8,9,13"
14266,commdev-image-keyboard-response,459,1117638,learnblock1,459,img/planet4_right.png,4,Community 3,NA,TRUE,j,j,NA,NA,NA,1,6,"10,5,11,1,14,7,12,3,2,15,4,6,8,9,13"
14266,commdev-image-keyboard-response,460,1118889,learnblock1,497.5,img/planet14_left.png,14,Community 1,NA,TRUE,f,f,NA,NA,NA,1,6,"10,5,11,1,14,7,12,3,2,15,4,6,8,9,13"
14266,commdev-image-keyboard-response,461,1120140,learnblock1,607.7000000029802,img/planet11_left.png,11,Community 1,NA,TRUE,f,f,NA,NA,NA,1,6,"10,5,11,1,14,7,12,3,2,15,4,6,8,9,13"
14266,commdev-image-keyboard-response,462,1121391,learnblock1,457.20000000298023,img/planet10_left.png,10,Community 1,NA,TRUE,f,f,NA,NA,NA,1,6,"10,5,11,1,14,7,12,3,2,15,4,6,8,9,13"
14266,commdev-image-keyboard-response,463,1122651,learnblock1,406.40000000596046,img/planet1_left.png,1,Community 1,NA,TRUE,f,f,NA,NA,NA,1,6,"10,5,11,1,14,7,12,3,2,15,4,6,8,9,13"
14266,commdev-image-keyboard-response,464,1123901,learnblock1,522.5999999940395,img/planet7_right.png,7,Community 2,NA,TRUE,j,j,NA,NA,NA,1,6,"10,5,11,1,14,7,12,3,2,15,4,6,8,9,13"
14266,commdev-image-keyboard-response,465,1125153,learnblock1,573,img/planet1_right.png,1,Community 1,NA,TRUE,j,j,NA,NA,NA,1,6,"10,5,11,1,14,7,12,3,2,15,4,6,8,9,13"
14266,commdev-image-keyboard-response,466,1126404,learnblock1,491.5,img/planet7_right.png,7,Community 2,NA,TRUE,j,j,NA,NA,NA,1,6,"10,5,11,1,14,7,12,3,2,15,4,6,8,9,13"
14266,commdev-image-keyboard-response,467,1127667,learnblock1,581.5,img/planet15_left.png,15,Community 2,NA,FALSE,j,f,NA,NA,NA,1,6,"10,5,11,1,14,7,12,3,2,15,4,6,8,9,13"
14266,commdev-image-keyboard-response,468,1128918,learnblock1,662.3999999910593,img/planet3_left.png,3,Community 2,NA,TRUE,f,f,NA,NA,NA,1,6,"10,5,11,1,14,7,12,3,2,15,4,6,8,9,13"
14266,commdev-image-keyboard-response,469,1130169,learnblock1,583.1999999880791,img/planet12_right.png,12,Community 2,NA,TRUE,j,j,NA,NA,NA,1,6,"10,5,11,1,14,7,12,3,2,15,4,6,8,9,13"
14266,commdev-image-keyboard-response,470,1131419,learnblock1,537.5,img/planet3_right.png,3,Community 2,NA,TRUE,j,j,NA,NA,NA,1,6,"10,5,11,1,14,7,12,3,2,15,4,6,8,9,13"
14266,commdev-image-keyboard-response,471,1132671,learnblock1,554.9000000059605,img/planet12_right.png,12,Community 2,NA,TRUE,j,j,NA,NA,NA,1,6,"10,5,11,1,14,7,12,3,2,15,4,6,8,9,13"
14266,commdev-image-keyboard-response,472,1133922,learnblock1,449.40000000596046,img/planet2_left.png,2,Community 2,NA,TRUE,f,f,NA,NA,NA,1,6,"10,5,11,1,14,7,12,3,2,15,4,6,8,9,13"
14266,commdev-image-keyboard-response,473,1135185,learnblock1,465.40000000596046,img/planet3_right.png,3,Community 2,NA,TRUE,j,j,NA,NA,NA,1,6,"10,5,11,1,14,7,12,3,2,15,4,6,8,9,13"
14266,commdev-image-keyboard-response,474,1136436,learnblock1,406.29999999701977,img/planet15_left.png,15,Community 2,NA,TRUE,f,f,NA,NA,NA,1,6,"10,5,11,1,14,7,12,3,2,15,4,6,8,9,13"
14266,commdev-image-keyboard-response,475,1137687,learnblock1,712.0999999940395,img/planet12_left.png,12,Community 2,NA,TRUE,f,f,NA,NA,NA,1,6,"10,5,11,1,14,7,12,3,2,15,4,6,8,9,13"
14266,commdev-image-keyboard-response,476,1138938,learnblock1,509.6000000089407,img/planet3_left.png,3,Community 2,NA,FALSE,j,f,NA,NA,NA,1,6,"10,5,11,1,14,7,12,3,2,15,4,6,8,9,13"
14266,commdev-image-keyboard-response,477,1140189,learnblock1,535.7000000029802,img/planet2_left.png,2,Community 2,NA,TRUE,f,f,NA,NA,NA,1,6,"10,5,11,1,14,7,12,3,2,15,4,6,8,9,13"
14266,commdev-image-keyboard-response,478,1141441,learnblock1,594.8999999910593,img/planet3_left.png,3,Community 2,NA,TRUE,f,f,NA,NA,NA,1,6,"10,5,11,1,14,7,12,3,2,15,4,6,8,9,13"
14266,commdev-image-keyboard-response,479,1142693,learnblock1,491.1000000089407,img/planet2_right.png,2,Community 2,NA,TRUE,j,j,NA,NA,NA,1,6,"10,5,11,1,14,7,12,3,2,15,4,6,8,9,13"
14266,commdev-image-keyboard-response,480,1143945,learnblock1,479.70000000298023,img/planet3_left.png,3,Community 2,NA,TRUE,f,f,NA,NA,NA,1,6,"10,5,11,1,14,7,12,3,2,15,4,6,8,9,13"
14266,commdev-image-keyboard-response,481,1145196,learnblock1,449.40000000596046,img/planet2_right.png,2,Community 2,NA,TRUE,j,j,NA,NA,NA,1,6,"10,5,11,1,14,7,12,3,2,15,4,6,8,9,13"
14266,commdev-image-keyboard-response,482,1146448,learnblock1,532.9000000059605,img/planet7_left.png,7,Community 2,NA,TRUE,f,f,NA,NA,NA,1,6,"10,5,11,1,14,7,12,3,2,15,4,6,8,9,13"
14266,commdev-image-keyboard-response,483,1147699,learnblock1,617.3000000119209,img/planet15_right.png,15,Community 2,NA,TRUE,j,j,NA,NA,NA,1,6,"10,5,11,1,14,7,12,3,2,15,4,6,8,9,13"
14266,commdev-image-keyboard-response,484,1148950,learnblock1,768.7000000029802,img/planet7_right.png,7,Community 2,NA,TRUE,j,j,NA,NA,NA,1,6,"10,5,11,1,14,7,12,3,2,15,4,6,8,9,13"
14266,commdev-image-keyboard-response,485,1150215,learnblock1,526.3999999910593,img/planet12_left.png,12,Community 2,NA,TRUE,f,f,NA,NA,NA,1,6,"10,5,11,1,14,7,12,3,2,15,4,6,8,9,13"
14266,commdev-image-keyboard-response,486,1151467,learnblock1,563.8999999910593,img/planet3_right.png,3,Community 2,NA,TRUE,j,j,NA,NA,NA,1,6,"10,5,11,1,14,7,12,3,2,15,4,6,8,9,13"
14266,commdev-image-keyboard-response,487,1152718,learnblock1,480,img/planet2_left.png,2,Community 2,NA,TRUE,f,f,NA,NA,NA,1,6,"10,5,11,1,14,7,12,3,2,15,4,6,8,9,13"
14266,commdev-image-keyboard-response,488,1153970,learnblock1,588.5999999940395,img/planet15_right.png,15,Community 2,NA,TRUE,j,j,NA,NA,NA,1,6,"10,5,11,1,14,7,12,3,2,15,4,6,8,9,13"
14266,commdev-image-keyboard-response,489,1155221,learnblock1,553.5,img/planet7_left.png,7,Community 2,NA,TRUE,f,f,NA,NA,NA,1,6,"10,5,11,1,14,7,12,3,2,15,4,6,8,9,13"
14266,commdev-image-keyboard-response,490,1156472,learnblock1,540.6999999880791,img/planet12_left.png,12,Community 2,NA,TRUE,f,f,NA,NA,NA,1,6,"10,5,11,1,14,7,12,3,2,15,4,6,8,9,13"
14266,commdev-image-keyboard-response,491,1157723,learnblock1,457.30000001192093,img/planet15_right.png,15,Community 2,NA,TRUE,j,j,NA,NA,NA,1,6,"10,5,11,1,14,7,12,3,2,15,4,6,8,9,13"
14266,commdev-image-keyboard-response,492,1158974,learnblock1,415.19999998807907,img/planet2_left.png,2,Community 2,NA,TRUE,f,f,NA,NA,NA,1,6,"10,5,11,1,14,7,12,3,2,15,4,6,8,9,13"
14266,commdev-image-keyboard-response,493,1160226,learnblock1,487,img/planet3_right.png,3,Community 2,NA,TRUE,j,j,NA,NA,NA,1,6,"10,5,11,1,14,7,12,3,2,15,4,6,8,9,13"
14266,commdev-image-keyboard-response,494,1161477,learnblock1,512.2000000029802,img/planet12_right.png,12,Community 2,NA,TRUE,j,j,NA,NA,NA,1,6,"10,5,11,1,14,7,12,3,2,15,4,6,8,9,13"
14266,commdev-image-keyboard-response,495,1162728,learnblock1,441.90000000596046,img/planet2_right.png,2,Community 2,NA,TRUE,j,j,NA,NA,NA,1,6,"10,5,11,1,14,7,12,3,2,15,4,6,8,9,13"
14266,commdev-image-keyboard-response,496,1163979,learnblock1,465.80000001192093,img/planet12_left.png,12,Community 2,NA,TRUE,f,f,NA,NA,NA,1,6,"10,5,11,1,14,7,12,3,2,15,4,6,8,9,13"
14266,commdev-image-keyboard-response,497,1165231,learnblock1,559.8999999910593,img/planet7_right.png,7,Community 2,NA,TRUE,j,j,NA,NA,NA,1,6,"10,5,11,1,14,7,12,3,2,15,4,6,8,9,13"
14266,commdev-image-keyboard-response,498,1166482,learnblock1,600.4000000059605,img/planet12_right.png,12,Community 2,NA,TRUE,j,j,NA,NA,NA,1,6,"10,5,11,1,14,7,12,3,2,15,4,6,8,9,13"
14266,commdev-image-keyboard-response,499,1167732,learnblock1,497.3999999910593,img/planet3_left.png,3,Community 2,NA,TRUE,f,f,NA,NA,NA,1,6,"10,5,11,1,14,7,12,3,2,15,4,6,8,9,13"
14266,commdev-image-keyboard-response,500,1168984,learnblock1,480.90000000596046,img/planet15_left.png,15,Community 2,NA,TRUE,f,f,NA,NA,NA,1,6,"10,5,11,1,14,7,12,3,2,15,4,6,8,9,13"
14266,commdev-image-keyboard-response,501,1170247,learnblock1,522.7000000029802,img/planet7_right.png,7,Community 2,NA,TRUE,j,j,NA,NA,NA,1,6,"10,5,11,1,14,7,12,3,2,15,4,6,8,9,13"
14266,commdev-image-keyboard-response,502,1171499,learnblock1,548.7000000029802,img/planet15_left.png,15,Community 2,NA,TRUE,f,f,NA,NA,NA,1,6,"10,5,11,1,14,7,12,3,2,15,4,6,8,9,13"
14266,commdev-image-keyboard-response,503,1172750,learnblock1,710.6000000089407,img/planet3_left.png,3,Community 2,NA,TRUE,f,f,NA,NA,NA,1,6,"10,5,11,1,14,7,12,3,2,15,4,6,8,9,13"
14266,commdev-image-keyboard-response,504,1174001,learnblock1,596.2000000029802,img/planet12_left.png,12,Community 2,NA,TRUE,f,f,NA,NA,NA,1,6,"10,5,11,1,14,7,12,3,2,15,4,6,8,9,13"
14266,commdev-image-keyboard-response,505,1175253,learnblock1,457.5,img/planet2_left.png,2,Community 2,NA,TRUE,f,f,NA,NA,NA,1,6,"10,5,11,1,14,7,12,3,2,15,4,6,8,9,13"
14266,commdev-image-keyboard-response,509,1268403,learnblock2,496.5,img/planet5_right.png,5,Community 1,NA,TRUE,j,j,NA,NA,NA,1,6,"10,5,11,1,14,7,12,3,2,15,4,6,8,9,13"
14266,commdev-image-keyboard-response,510,1269655,learnblock2,425,img/planet10_left.png,10,Community 1,NA,TRUE,f,f,NA,NA,NA,1,6,"10,5,11,1,14,7,12,3,2,15,4,6,8,9,13"
14266,commdev-image-keyboard-response,511,1270906,learnblock2,470.20000000298023,img/planet5_right.png,5,Community 1,NA,TRUE,j,j,NA,NA,NA,1,6,"10,5,11,1,14,7,12,3,2,15,4,6,8,9,13"
14266,commdev-image-keyboard-response,512,1272157,learnblock2,433.59999999403954,img/planet10_left.png,10,Community 1,NA,TRUE,f,f,NA,NA,NA,1,6,"10,5,11,1,14,7,12,3,2,15,4,6,8,9,13"
14266,commdev-image-keyboard-response,513,1273408,learnblock2,467.5,img/planet1_right.png,1,Community 1,NA,TRUE,j,j,NA,NA,NA,1,6,"10,5,11,1,14,7,12,3,2,15,4,6,8,9,13"
14266,commdev-image-keyboard-response,514,1274660,learnblock2,400,img/planet10_left.png,10,Community 1,NA,TRUE,f,f,NA,NA,NA,1,6,"10,5,11,1,14,7,12,3,2,15,4,6,8,9,13"
14266,commdev-image-keyboard-response,515,1275911,learnblock2,615.5999999940395,img/planet11_left.png,11,Community 1,NA,TRUE,f,f,NA,NA,NA,1,6,"10,5,11,1,14,7,12,3,2,15,4,6,8,9,13"
14266,commdev-image-keyboard-response,516,1277163,learnblock2,526.9000000059605,img/planet1_left.png,1,Community 1,NA,TRUE,f,f,NA,NA,NA,1,6,"10,5,11,1,14,7,12,3,2,15,4,6,8,9,13"
14266,commdev-image-keyboard-response,517,1278414,learnblock2,489.30000001192093,img/planet7_left.png,7,Community 2,NA,TRUE,f,f,NA,NA,NA,1,6,"10,5,11,1,14,7,12,3,2,15,4,6,8,9,13"
14266,commdev-image-keyboard-response,518,1279666,learnblock2,575,img/planet2_left.png,2,Community 2,NA,TRUE,f,f,NA,NA,NA,1,6,"10,5,11,1,14,7,12,3,2,15,4,6,8,9,13"
14266,commdev-image-keyboard-response,519,1280916,learnblock2,466.79999999701977,img/planet3_right.png,3,Community 2,NA,TRUE,j,j,NA,NA,NA,1,6,"10,5,11,1,14,7,12,3,2,15,4,6,8,9,13"
14266,commdev-image-keyboard-response,520,1282167,learnblock2,412.20000000298023,img/planet15_right.png,15,Community 2,NA,FALSE,f,j,NA,NA,NA,1,6,"10,5,11,1,14,7,12,3,2,15,4,6,8,9,13"
14266,commdev-image-keyboard-response,521,1283418,learnblock2,525.2000000029802,img/planet12_left.png,12,Community 2,NA,TRUE,f,f,NA,NA,NA,1,6,"10,5,11,1,14,7,12,3,2,15,4,6,8,9,13"
14266,commdev-image-keyboard-response,522,1284669,learnblock2,609.8999999910593,img/planet7_right.png,7,Community 2,NA,TRUE,j,j,NA,NA,NA,1,6,"10,5,11,1,14,7,12,3,2,15,4,6,8,9,13"
14266,commdev-image-keyboard-response,523,1285921,learnblock2,484,img/planet15_left.png,15,Community 2,NA,TRUE,f,f,NA,NA,NA,1,6,"10,5,11,1,14,7,12,3,2,15,4,6,8,9,13"
14266,commdev-image-keyboard-response,524,1287172,learnblock2,470.79999999701977,img/planet3_right.png,3,Community 2,NA,TRUE,j,j,NA,NA,NA,1,6,"10,5,11,1,14,7,12,3,2,15,4,6,8,9,13"
14266,commdev-image-keyboard-response,525,1288423,learnblock2,599.1000000089407,img/planet12_right.png,12,Community 2,NA,TRUE,j,j,NA,NA,NA,1,6,"10,5,11,1,14,7,12,3,2,15,4,6,8,9,13"
14266,commdev-image-keyboard-response,526,1289674,learnblock2,548.5999999940395,img/planet2_left.png,2,Community 2,NA,TRUE,f,f,NA,NA,NA,1,6,"10,5,11,1,14,7,12,3,2,15,4,6,8,9,13"
14266,commdev-image-keyboard-response,527,1290927,learnblock2,552.5,img/planet15_right.png,15,Community 2,NA,TRUE,j,j,NA,NA,NA,1,6,"10,5,11,1,14,7,12,3,2,15,4,6,8,9,13"
14266,commdev-image-keyboard-response,528,1292178,learnblock2,597.9000000059605,img/planet12_right.png,12,Community 2,NA,TRUE,j,j,NA,NA,NA,1,6,"10,5,11,1,14,7,12,3,2,15,4,6,8,9,13"
14266,commdev-image-keyboard-response,529,1293429,learnblock2,510,img/planet2_left.png,2,Community 2,NA,TRUE,f,f,NA,NA,NA,1,6,"10,5,11,1,14,7,12,3,2,15,4,6,8,9,13"
14266,commdev-image-keyboard-response,530,1294680,learnblock2,584.4000000059605,img/planet7_left.png,7,Community 2,NA,TRUE,f,f,NA,NA,NA,1,6,"10,5,11,1,14,7,12,3,2,15,4,6,8,9,13"
14266,commdev-image-keyboard-response,531,1295931,learnblock2,474.09999999403954,img/planet12_right.png,12,Community 2,NA,TRUE,j,j,NA,NA,NA,1,6,"10,5,11,1,14,7,12,3,2,15,4,6,8,9,13"
14266,commdev-image-keyboard-response,532,1297182,learnblock2,498.20000000298023,img/planet2_left.png,2,Community 2,NA,TRUE,f,f,NA,NA,NA,1,6,"10,5,11,1,14,7,12,3,2,15,4,6,8,9,13"
14266,commdev-image-keyboard-response,533,1298433,learnblock2,467.29999999701977,img/planet3_right.png,3,Community 2,NA,TRUE,j,j,NA,NA,NA,1,6,"10,5,11,1,14,7,12,3,2,15,4,6,8,9,13"
14266,commdev-image-keyboard-response,534,1299684,learnblock2,678.2999999970198,img/planet6_right.png,6,Community 3,NA,TRUE,j,j,NA,NA,NA,1,6,"10,5,11,1,14,7,12,3,2,15,4,6,8,9,13"
14266,commdev-image-keyboard-response,535,1300935,learnblock2,760,img/planet8_left.png,8,Community 3,NA,TRUE,f,f,NA,NA,NA,1,6,"10,5,11,1,14,7,12,3,2,15,4,6,8,9,13"
14266,commdev-image-keyboard-response,536,1302187,learnblock2,504.3999999910593,img/planet4_right.png,4,Community 3,NA,TRUE,j,j,NA,NA,NA,1,6,"10,5,11,1,14,7,12,3,2,15,4,6,8,9,13"
14266,commdev-image-keyboard-response,537,1303437,learnblock2,836.5999999940395,img/planet8_right.png,8,Community 3,NA,TRUE,j,j,NA,NA,NA,1,6,"10,5,11,1,14,7,12,3,2,15,4,6,8,9,13"
14266,commdev-image-keyboard-response,538,1304689,learnblock2,585.5999999940395,img/planet4_right.png,4,Community 3,NA,TRUE,j,j,NA,NA,NA,1,6,"10,5,11,1,14,7,12,3,2,15,4,6,8,9,13"
14266,commdev-image-keyboard-response,539,1305946,learnblock2,708.6000000089407,img/planet13_right.png,13,Community 3,NA,TRUE,j,j,NA,NA,NA,1,6,"10,5,11,1,14,7,12,3,2,15,4,6,8,9,13"
14266,commdev-image-keyboard-response,540,1307197,learnblock2,503.79999999701977,img/planet9_left.png,9,Community 3,NA,TRUE,f,f,NA,NA,NA,1,6,"10,5,11,1,14,7,12,3,2,15,4,6,8,9,13"
14266,commdev-image-keyboard-response,541,1308448,learnblock2,778.2000000029802,img/planet6_left.png,6,Community 3,NA,TRUE,f,f,NA,NA,NA,1,6,"10,5,11,1,14,7,12,3,2,15,4,6,8,9,13"
14266,commdev-image-keyboard-response,542,1309700,learnblock2,654.5,img/planet13_left.png,13,Community 3,NA,TRUE,f,f,NA,NA,NA,1,6,"10,5,11,1,14,7,12,3,2,15,4,6,8,9,13"
14266,commdev-image-keyboard-response,543,1310951,learnblock2,475.79999999701977,img/planet4_right.png,4,Community 3,NA,TRUE,j,j,NA,NA,NA,1,6,"10,5,11,1,14,7,12,3,2,15,4,6,8,9,13"
14266,commdev-image-keyboard-response,544,1312202,learnblock2,717.3999999910593,img/planet14_left.png,14,Community 1,NA,TRUE,f,f,NA,NA,NA,1,6,"10,5,11,1,14,7,12,3,2,15,4,6,8,9,13"
14266,commdev-image-keyboard-response,545,1313467,learnblock2,484.6000000089407,img/planet4_left.png,4,Community 3,NA,TRUE,f,f,NA,NA,NA,1,6,"10,5,11,1,14,7,12,3,2,15,4,6,8,9,13"
14266,commdev-image-keyboard-response,546,1314718,learnblock2,937.2000000029802,img/planet8_left.png,8,Community 3,NA,TRUE,f,f,NA,NA,NA,1,6,"10,5,11,1,14,7,12,3,2,15,4,6,8,9,13"
14266,commdev-image-keyboard-response,547,1315970,learnblock2,534.2999999970198,img/planet13_right.png,13,Community 3,NA,TRUE,j,j,NA,NA,NA,1,6,"10,5,11,1,14,7,12,3,2,15,4,6,8,9,13"
14266,commdev-image-keyboard-response,548,1317222,learnblock2,506.40000000596046,img/planet4_right.png,4,Community 3,NA,TRUE,j,j,NA,NA,NA,1,6,"10,5,11,1,14,7,12,3,2,15,4,6,8,9,13"
14266,commdev-image-keyboard-response,549,1318474,learnblock2,614.3999999910593,img/planet14_right.png,14,Community 1,NA,TRUE,j,j,NA,NA,NA,1,6,"10,5,11,1,14,7,12,3,2,15,4,6,8,9,13"
14266,commdev-image-keyboard-response,550,1319725,learnblock2,521.2999999970198,img/planet4_left.png,4,Community 3,NA,TRUE,f,f,NA,NA,NA,1,6,"10,5,11,1,14,7,12,3,2,15,4,6,8,9,13"
14266,commdev-image-keyboard-response,551,1320975,learnblock2,701.1999999880791,img/planet9_left.png,9,Community 3,NA,TRUE,f,f,NA,NA,NA,1,6,"10,5,11,1,14,7,12,3,2,15,4,6,8,9,13"
14266,commdev-image-keyboard-response,552,1322227,learnblock2,612.0999999940395,img/planet6_left.png,6,Community 3,NA,TRUE,f,f,NA,NA,NA,1,6,"10,5,11,1,14,7,12,3,2,15,4,6,8,9,13"
14266,commdev-image-keyboard-response,553,1323478,learnblock2,718.2999999970198,img/planet8_left.png,8,Community 3,NA,TRUE,f,f,NA,NA,NA,1,6,"10,5,11,1,14,7,12,3,2,15,4,6,8,9,13"
14266,commdev-image-keyboard-response,554,1324730,learnblock2,770.7999999970198,img/planet9_left.png,9,Community 3,NA,TRUE,f,f,NA,NA,NA,1,6,"10,5,11,1,14,7,12,3,2,15,4,6,8,9,13"
14266,commdev-image-keyboard-response,555,1325981,learnblock2,807.2999999970198,img/planet4_right.png,4,Community 3,NA,TRUE,j,j,NA,NA,NA,1,6,"10,5,11,1,14,7,12,3,2,15,4,6,8,9,13"
14266,commdev-image-keyboard-response,556,1327233,learnblock2,653.4000000059605,img/planet8_left.png,8,Community 3,NA,TRUE,f,f,NA,NA,NA,1,6,"10,5,11,1,14,7,12,3,2,15,4,6,8,9,13"
14266,commdev-image-keyboard-response,557,1328484,learnblock2,586.5,img/planet6_left.png,6,Community 3,NA,TRUE,f,f,NA,NA,NA,1,6,"10,5,11,1,14,7,12,3,2,15,4,6,8,9,13"
14266,commdev-image-keyboard-response,558,1329736,learnblock2,625.2000000029802,img/planet3_left.png,3,Community 2,NA,TRUE,f,f,NA,NA,NA,1,6,"10,5,11,1,14,7,12,3,2,15,4,6,8,9,13"
14266,commdev-image-keyboard-response,559,1330986,learnblock2,706.4000000059605,img/planet12_left.png,12,Community 2,NA,TRUE,f,f,NA,NA,NA,1,6,"10,5,11,1,14,7,12,3,2,15,4,6,8,9,13"
14266,commdev-image-keyboard-response,560,1332238,learnblock2,454.70000000298023,img/planet15_right.png,15,Community 2,NA,TRUE,j,j,NA,NA,NA,1,6,"10,5,11,1,14,7,12,3,2,15,4,6,8,9,13"
14266,commdev-image-keyboard-response,561,1333501,learnblock2,856.5,img/planet3_left.png,3,Community 2,NA,TRUE,f,f,NA,NA,NA,1,6,"10,5,11,1,14,7,12,3,2,15,4,6,8,9,13"
14266,commdev-image-keyboard-response,562,1334752,learnblock2,762.5999999940395,img/planet2_left.png,2,Community 2,NA,TRUE,f,f,NA,NA,NA,1,6,"10,5,11,1,14,7,12,3,2,15,4,6,8,9,13"
14266,commdev-image-keyboard-response,563,1336003,learnblock2,521.1000000089407,img/planet15_left.png,15,Community 2,NA,TRUE,f,f,NA,NA,NA,1,6,"10,5,11,1,14,7,12,3,2,15,4,6,8,9,13"
14266,commdev-image-keyboard-response,564,1337255,learnblock2,551.4000000059605,img/planet7_left.png,7,Community 2,NA,TRUE,f,f,NA,NA,NA,1,6,"10,5,11,1,14,7,12,3,2,15,4,6,8,9,13"
14266,commdev-image-keyboard-response,565,1338505,learnblock2,433.09999999403954,img/planet2_left.png,2,Community 2,NA,TRUE,f,f,NA,NA,NA,1,6,"10,5,11,1,14,7,12,3,2,15,4,6,8,9,13"
14266,commdev-image-keyboard-response,566,1339757,learnblock2,430.90000000596046,img/planet15_left.png,15,Community 2,NA,TRUE,f,f,NA,NA,NA,1,6,"10,5,11,1,14,7,12,3,2,15,4,6,8,9,13"
14266,commdev-image-keyboard-response,567,1341008,learnblock2,447.59999999403954,img/planet3_right.png,3,Community 2,NA,TRUE,j,j,NA,NA,NA,1,6,"10,5,11,1,14,7,12,3,2,15,4,6,8,9,13"
14266,commdev-image-keyboard-response,568,1342259,learnblock2,491,img/planet2_left.png,2,Community 2,NA,TRUE,f,f,NA,NA,NA,1,6,"10,5,11,1,14,7,12,3,2,15,4,6,8,9,13"
14266,commdev-image-keyboard-response,569,1343511,learnblock2,546,img/planet3_left.png,3,Community 2,NA,TRUE,f,f,NA,NA,NA,1,6,"10,5,11,1,14,7,12,3,2,15,4,6,8,9,13"
14266,commdev-image-keyboard-response,570,1344762,learnblock2,504.59999999403954,img/planet2_right.png,2,Community 2,NA,TRUE,j,j,NA,NA,NA,1,6,"10,5,11,1,14,7,12,3,2,15,4,6,8,9,13"
14266,commdev-image-keyboard-response,571,1346023,learnblock2,434.09999999403954,img/planet15_left.png,15,Community 2,NA,TRUE,f,f,NA,NA,NA,1,6,"10,5,11,1,14,7,12,3,2,15,4,6,8,9,13"
14266,commdev-image-keyboard-response,572,1347275,learnblock2,710.8000000119209,img/planet2_right.png,2,Community 2,NA,TRUE,j,j,NA,NA,NA,1,6,"10,5,11,1,14,7,12,3,2,15,4,6,8,9,13"
14266,commdev-image-keyboard-response,573,1348525,learnblock2,469.79999999701977,img/planet3_left.png,3,Community 2,NA,TRUE,f,f,NA,NA,NA,1,6,"10,5,11,1,14,7,12,3,2,15,4,6,8,9,13"
14266,commdev-image-keyboard-response,574,1349776,learnblock2,498.90000000596046,img/planet2_left.png,2,Community 2,NA,TRUE,f,f,NA,NA,NA,1,6,"10,5,11,1,14,7,12,3,2,15,4,6,8,9,13"
14266,commdev-image-keyboard-response,575,1351028,learnblock2,552.9000000059605,img/planet12_left.png,12,Community 2,NA,TRUE,f,f,NA,NA,NA,1,6,"10,5,11,1,14,7,12,3,2,15,4,6,8,9,13"
14266,commdev-image-keyboard-response,576,1352279,learnblock2,514.0999999940395,img/planet15_right.png,15,Community 2,NA,TRUE,j,j,NA,NA,NA,1,6,"10,5,11,1,14,7,12,3,2,15,4,6,8,9,13"
14266,commdev-image-keyboard-response,577,1353530,learnblock2,686.5999999940395,img/planet7_right.png,7,Community 2,NA,TRUE,j,j,NA,NA,NA,1,6,"10,5,11,1,14,7,12,3,2,15,4,6,8,9,13"
14266,commdev-image-keyboard-response,578,1354781,learnblock2,461.19999998807907,img/planet15_left.png,15,Community 2,NA,TRUE,f,f,NA,NA,NA,1,6,"10,5,11,1,14,7,12,3,2,15,4,6,8,9,13"
14266,commdev-image-keyboard-response,579,1356032,learnblock2,642.1000000089407,img/planet3_left.png,3,Community 2,NA,TRUE,f,f,NA,NA,NA,1,6,"10,5,11,1,14,7,12,3,2,15,4,6,8,9,13"
14266,commdev-image-keyboard-response,580,1357283,learnblock2,482.09999999403954,img/planet6_left.png,6,Community 3,NA,TRUE,f,f,NA,NA,NA,1,6,"10,5,11,1,14,7,12,3,2,15,4,6,8,9,13"
14266,commdev-image-keyboard-response,581,1358534,learnblock2,499.79999999701977,img/planet8_right.png,8,Community 3,NA,TRUE,j,j,NA,NA,NA,1,6,"10,5,11,1,14,7,12,3,2,15,4,6,8,9,13"
14266,commdev-image-keyboard-response,582,1359785,learnblock2,747.1999999880791,img/planet13_left.png,13,Community 3,NA,TRUE,f,f,NA,NA,NA,1,6,"10,5,11,1,14,7,12,3,2,15,4,6,8,9,13"
14266,commdev-image-keyboard-response,583,1361036,learnblock2,484,img/planet9_right.png,9,Community 3,NA,TRUE,j,j,NA,NA,NA,1,6,"10,5,11,1,14,7,12,3,2,15,4,6,8,9,13"
14266,commdev-image-keyboard-response,584,1362287,learnblock2,549.1999999880791,img/planet4_right.png,4,Community 3,NA,TRUE,j,j,NA,NA,NA,1,6,"10,5,11,1,14,7,12,3,2,15,4,6,8,9,13"
14266,commdev-image-keyboard-response,585,1363538,learnblock2,691,img/planet8_right.png,8,Community 3,NA,TRUE,j,j,NA,NA,NA,1,6,"10,5,11,1,14,7,12,3,2,15,4,6,8,9,13"
14266,commdev-image-keyboard-response,586,1364790,learnblock2,460.90000000596046,img/planet9_left.png,9,Community 3,NA,TRUE,f,f,NA,NA,NA,1,6,"10,5,11,1,14,7,12,3,2,15,4,6,8,9,13"
14266,commdev-image-keyboard-response,587,1366041,learnblock2,527.2000000029802,img/planet13_left.png,13,Community 3,NA,TRUE,f,f,NA,NA,NA,1,6,"10,5,11,1,14,7,12,3,2,15,4,6,8,9,13"
14266,commdev-image-keyboard-response,588,1367292,learnblock2,573.3999999910593,img/planet6_right.png,6,Community 3,NA,TRUE,j,j,NA,NA,NA,1,6,"10,5,11,1,14,7,12,3,2,15,4,6,8,9,13"
14266,commdev-image-keyboard-response,589,1368544,learnblock2,586.7000000029802,img/planet9_right.png,9,Community 3,NA,TRUE,j,j,NA,NA,NA,1,6,"10,5,11,1,14,7,12,3,2,15,4,6,8,9,13"
14266,commdev-image-keyboard-response,590,1369794,learnblock2,591.5,img/planet8_right.png,8,Community 3,NA,TRUE,j,j,NA,NA,NA,1,6,"10,5,11,1,14,7,12,3,2,15,4,6,8,9,13"
14266,commdev-image-keyboard-response,591,1371046,learnblock2,492.6000000089407,img/planet4_left.png,4,Community 3,NA,TRUE,f,f,NA,NA,NA,1,6,"10,5,11,1,14,7,12,3,2,15,4,6,8,9,13"
14266,commdev-image-keyboard-response,592,1372297,learnblock2,583.2000000029802,img/planet14_right.png,14,Community 1,NA,TRUE,j,j,NA,NA,NA,1,6,"10,5,11,1,14,7,12,3,2,15,4,6,8,9,13"
14266,commdev-image-keyboard-response,593,1373549,learnblock2,456.70000000298023,img/planet4_right.png,4,Community 3,NA,TRUE,j,j,NA,NA,NA,1,6,"10,5,11,1,14,7,12,3,2,15,4,6,8,9,13"
14266,commdev-image-keyboard-response,594,1374800,learnblock2,532.5,img/planet8_left.png,8,Community 3,NA,TRUE,f,f,NA,NA,NA,1,6,"10,5,11,1,14,7,12,3,2,15,4,6,8,9,13"
14266,commdev-image-keyboard-response,595,1376051,learnblock2,580.4000000059605,img/planet13_right.png,13,Community 3,NA,TRUE,j,j,NA,NA,NA,1,6,"10,5,11,1,14,7,12,3,2,15,4,6,8,9,13"
14266,commdev-image-keyboard-response,596,1377302,learnblock2,581.2000000029802,img/planet8_right.png,8,Community 3,NA,TRUE,j,j,NA,NA,NA,1,6,"10,5,11,1,14,7,12,3,2,15,4,6,8,9,13"
14266,commdev-image-keyboard-response,597,1378563,learnblock2,535.1000000089407,img/planet4_left.png,4,Community 3,NA,TRUE,f,f,NA,NA,NA,1,6,"10,5,11,1,14,7,12,3,2,15,4,6,8,9,13"
14266,commdev-image-keyboard-response,598,1379815,learnblock2,475.20000000298023,img/planet9_right.png,9,Community 3,NA,TRUE,j,j,NA,NA,NA,1,6,"10,5,11,1,14,7,12,3,2,15,4,6,8,9,13"
14266,commdev-image-keyboard-response,599,1381067,learnblock2,501,img/planet8_right.png,8,Community 3,NA,FALSE,f,j,NA,NA,NA,1,6,"10,5,11,1,14,7,12,3,2,15,4,6,8,9,13"
14266,commdev-image-keyboard-response,600,1382329,learnblock2,434.30000001192093,img/planet4_left.png,4,Community 3,NA,TRUE,f,f,NA,NA,NA,1,6,"10,5,11,1,14,7,12,3,2,15,4,6,8,9,13"
14266,commdev-image-keyboard-response,601,1383580,learnblock2,528.8999999910593,img/planet14_left.png,14,Community 1,NA,TRUE,f,f,NA,NA,NA,1,6,"10,5,11,1,14,7,12,3,2,15,4,6,8,9,13"
14266,commdev-image-keyboard-response,602,1384832,learnblock2,499.70000000298023,img/planet11_right.png,11,Community 1,NA,TRUE,j,j,NA,NA,NA,1,6,"10,5,11,1,14,7,12,3,2,15,4,6,8,9,13"
14266,commdev-image-keyboard-response,603,1386083,learnblock2,754.3999999910593,img/planet1_right.png,1,Community 1,NA,TRUE,j,j,NA,NA,NA,1,6,"10,5,11,1,14,7,12,3,2,15,4,6,8,9,13"
14266,commdev-image-keyboard-response,604,1387334,learnblock2,582.2999999970198,img/planet5_right.png,5,Community 1,NA,TRUE,j,j,NA,NA,NA,1,6,"10,5,11,1,14,7,12,3,2,15,4,6,8,9,13"
14266,commdev-image-keyboard-response,605,1388585,learnblock2,612.1999999880791,img/planet14_right.png,14,Community 1,NA,TRUE,j,j,NA,NA,NA,1,6,"10,5,11,1,14,7,12,3,2,15,4,6,8,9,13"
14266,commdev-image-keyboard-response,606,1389836,learnblock2,530.2999999970198,img/planet11_right.png,11,Community 1,NA,TRUE,j,j,NA,NA,NA,1,6,"10,5,11,1,14,7,12,3,2,15,4,6,8,9,13"
14266,commdev-image-keyboard-response,607,1391087,learnblock2,523.5,img/planet14_left.png,14,Community 1,NA,FALSE,j,f,NA,NA,NA,1,6,"10,5,11,1,14,7,12,3,2,15,4,6,8,9,13"
14266,commdev-image-keyboard-response,608,1392339,learnblock2,543.8999999910593,img/planet5_left.png,5,Community 1,NA,TRUE,f,f,NA,NA,NA,1,6,"10,5,11,1,14,7,12,3,2,15,4,6,8,9,13"
14266,commdev-image-keyboard-response,609,1393590,learnblock2,592.3999999910593,img/planet10_right.png,10,Community 1,NA,TRUE,j,j,NA,NA,NA,1,6,"10,5,11,1,14,7,12,3,2,15,4,6,8,9,13"
14266,commdev-image-keyboard-response,610,1394842,learnblock2,477.59999999403954,img/planet5_left.png,5,Community 1,NA,TRUE,f,f,NA,NA,NA,1,6,"10,5,11,1,14,7,12,3,2,15,4,6,8,9,13"
14266,commdev-image-keyboard-response,611,1396093,learnblock2,696.5,img/planet11_left.png,11,Community 1,NA,TRUE,f,f,NA,NA,NA,1,6,"10,5,11,1,14,7,12,3,2,15,4,6,8,9,13"
14266,commdev-image-keyboard-response,612,1397345,learnblock2,649.2000000029802,img/planet5_right.png,5,Community 1,NA,TRUE,j,j,NA,NA,NA,1,6,"10,5,11,1,14,7,12,3,2,15,4,6,8,9,13"
14266,commdev-image-keyboard-response,613,1398597,learnblock2,612.2999999970198,img/planet11_right.png,11,Community 1,NA,TRUE,j,j,NA,NA,NA,1,6,"10,5,11,1,14,7,12,3,2,15,4,6,8,9,13"
14266,commdev-image-keyboard-response,614,1399848,learnblock2,463.40000000596046,img/planet10_left.png,10,Community 1,NA,TRUE,f,f,NA,NA,NA,1,6,"10,5,11,1,14,7,12,3,2,15,4,6,8,9,13"
14266,commdev-image-keyboard-response,615,1401102,learnblock2,472.20000000298023,img/planet5_right.png,5,Community 1,NA,TRUE,j,j,NA,NA,NA,1,6,"10,5,11,1,14,7,12,3,2,15,4,6,8,9,13"
14266,commdev-image-keyboard-response,616,1402358,learnblock2,543.7000000029802,img/planet14_right.png,14,Community 1,NA,TRUE,j,j,NA,NA,NA,1,6,"10,5,11,1,14,7,12,3,2,15,4,6,8,9,13"
14266,commdev-image-keyboard-response,617,1403609,learnblock2,510.79999999701977,img/planet10_left.png,10,Community 1,NA,TRUE,f,f,NA,NA,NA,1,6,"10,5,11,1,14,7,12,3,2,15,4,6,8,9,13"
14266,commdev-image-keyboard-response,618,1404860,learnblock2,536.5,img/planet11_left.png,11,Community 1,NA,TRUE,f,f,NA,NA,NA,1,6,"10,5,11,1,14,7,12,3,2,15,4,6,8,9,13"
14266,commdev-image-keyboard-response,619,1406112,learnblock2,420.70000000298023,img/planet10_left.png,10,Community 1,NA,TRUE,f,f,NA,NA,NA,1,6,"10,5,11,1,14,7,12,3,2,15,4,6,8,9,13"
14266,commdev-image-keyboard-response,620,1407363,learnblock2,518,img/planet1_left.png,1,Community 1,NA,TRUE,f,f,NA,NA,NA,1,6,"10,5,11,1,14,7,12,3,2,15,4,6,8,9,13"
14266,commdev-image-keyboard-response,621,1408613,learnblock2,478.3999999910593,img/planet5_right.png,5,Community 1,NA,TRUE,j,j,NA,NA,NA,1,6,"10,5,11,1,14,7,12,3,2,15,4,6,8,9,13"
14266,commdev-image-keyboard-response,622,1409865,learnblock2,603.6000000089407,img/planet14_right.png,14,Community 1,NA,TRUE,j,j,NA,NA,NA,1,6,"10,5,11,1,14,7,12,3,2,15,4,6,8,9,13"
14266,commdev-image-keyboard-response,623,1411115,learnblock2,485.20000000298023,img/planet11_left.png,11,Community 1,NA,TRUE,f,f,NA,NA,NA,1,6,"10,5,11,1,14,7,12,3,2,15,4,6,8,9,13"
14266,commdev-image-keyboard-response,624,1412367,learnblock2,704.5,img/planet10_right.png,10,Community 1,NA,TRUE,j,j,NA,NA,NA,1,6,"10,5,11,1,14,7,12,3,2,15,4,6,8,9,13"
14266,commdev-image-keyboard-response,625,1413618,learnblock2,474,img/planet11_right.png,11,Community 1,NA,TRUE,j,j,NA,NA,NA,1,6,"10,5,11,1,14,7,12,3,2,15,4,6,8,9,13"
14266,commdev-image-keyboard-response,626,1414870,learnblock2,471.1000000089407,img/planet10_left.png,10,Community 1,NA,TRUE,f,f,NA,NA,NA,1,6,"10,5,11,1,14,7,12,3,2,15,4,6,8,9,13"
14266,commdev-image-keyboard-response,627,1416121,learnblock2,491.09999999403954,img/planet5_right.png,5,Community 1,NA,TRUE,j,j,NA,NA,NA,1,6,"10,5,11,1,14,7,12,3,2,15,4,6,8,9,13"
14266,commdev-image-keyboard-response,628,1417372,learnblock2,426.8999999910593,img/planet10_left.png,10,Community 1,NA,TRUE,f,f,NA,NA,NA,1,6,"10,5,11,1,14,7,12,3,2,15,4,6,8,9,13"
14266,commdev-image-keyboard-response,629,1418624,learnblock2,504.20000000298023,img/planet1_right.png,1,Community 1,NA,TRUE,j,j,NA,NA,NA,1,6,"10,5,11,1,14,7,12,3,2,15,4,6,8,9,13"
14266,commdev-image-keyboard-response,630,1419875,learnblock2,492.20000000298023,img/planet5_right.png,5,Community 1,NA,TRUE,j,j,NA,NA,NA,1,6,"10,5,11,1,14,7,12,3,2,15,4,6,8,9,13"
14266,commdev-image-keyboard-response,631,1421126,learnblock2,443.5,img/planet1_left.png,1,Community 1,NA,TRUE,f,f,NA,NA,NA,1,6,"10,5,11,1,14,7,12,3,2,15,4,6,8,9,13"
14266,commdev-image-keyboard-response,632,1422378,learnblock2,497.29999999701977,img/planet5_right.png,5,Community 1,NA,TRUE,j,j,NA,NA,NA,1,6,"10,5,11,1,14,7,12,3,2,15,4,6,8,9,13"
14266,commdev-image-keyboard-response,633,1423628,learnblock2,526.2000000029802,img/planet11_right.png,11,Community 1,NA,TRUE,j,j,NA,NA,NA,1,6,"10,5,11,1,14,7,12,3,2,15,4,6,8,9,13"
14266,commdev-image-keyboard-response,634,1424880,learnblock2,439.5,img/planet14_left.png,14,Community 1,NA,TRUE,f,f,NA,NA,NA,1,6,"10,5,11,1,14,7,12,3,2,15,4,6,8,9,13"
14266,commdev-image-keyboard-response,635,1426132,learnblock2,437.8999999910593,img/planet5_right.png,5,Community 1,NA,TRUE,j,j,NA,NA,NA,1,6,"10,5,11,1,14,7,12,3,2,15,4,6,8,9,13"
14266,commdev-image-keyboard-response,636,1427384,learnblock2,357.90000000596046,img/planet1_left.png,1,Community 1,NA,TRUE,f,f,NA,NA,NA,1,6,"10,5,11,1,14,7,12,3,2,15,4,6,8,9,13"
14266,commdev-image-keyboard-response,637,1428634,learnblock2,377.40000000596046,img/planet7_right.png,7,Community 2,NA,TRUE,j,j,NA,NA,NA,1,6,"10,5,11,1,14,7,12,3,2,15,4,6,8,9,13"
14266,commdev-image-keyboard-response,638,1429885,learnblock2,539.2000000029802,img/planet1_left.png,1,Community 1,NA,TRUE,f,f,NA,NA,NA,1,6,"10,5,11,1,14,7,12,3,2,15,4,6,8,9,13"
14266,commdev-image-keyboard-response,639,1431137,learnblock2,477.70000000298023,img/planet10_left.png,10,Community 1,NA,TRUE,f,f,NA,NA,NA,1,6,"10,5,11,1,14,7,12,3,2,15,4,6,8,9,13"
14266,commdev-image-keyboard-response,640,1432391,learnblock2,433.69999998807907,img/planet14_right.png,14,Community 1,NA,TRUE,j,j,NA,NA,NA,1,6,"10,5,11,1,14,7,12,3,2,15,4,6,8,9,13"
14266,commdev-image-keyboard-response,641,1433642,learnblock2,502.29999999701977,img/planet5_right.png,5,Community 1,NA,TRUE,j,j,NA,NA,NA,1,6,"10,5,11,1,14,7,12,3,2,15,4,6,8,9,13"
14266,commdev-image-keyboard-response,642,1434894,learnblock2,501.59999999403954,img/planet1_right.png,1,Community 1,NA,FALSE,f,j,NA,NA,NA,1,6,"10,5,11,1,14,7,12,3,2,15,4,6,8,9,13"
14266,commdev-image-keyboard-response,643,1436145,learnblock2,562,img/planet7_right.png,7,Community 2,NA,TRUE,j,j,NA,NA,NA,1,6,"10,5,11,1,14,7,12,3,2,15,4,6,8,9,13"
14266,commdev-image-keyboard-response,644,1437396,learnblock2,489.5,img/planet15_right.png,15,Community 2,NA,FALSE,f,j,NA,NA,NA,1,6,"10,5,11,1,14,7,12,3,2,15,4,6,8,9,13"
14266,commdev-image-keyboard-response,645,1438647,learnblock2,515.3999999910593,img/planet12_left.png,12,Community 2,NA,TRUE,f,f,NA,NA,NA,1,6,"10,5,11,1,14,7,12,3,2,15,4,6,8,9,13"
14266,commdev-image-keyboard-response,646,1439910,learnblock2,472.69999998807907,img/planet7_right.png,7,Community 2,NA,FALSE,f,j,NA,NA,NA,1,6,"10,5,11,1,14,7,12,3,2,15,4,6,8,9,13"
14266,commdev-image-keyboard-response,647,1441160,learnblock2,646.4000000059605,img/planet2_right.png,2,Community 2,NA,TRUE,j,j,NA,NA,NA,1,6,"10,5,11,1,14,7,12,3,2,15,4,6,8,9,13"
14266,commdev-image-keyboard-response,648,1442412,learnblock2,551.2999999970198,img/planet3_right.png,3,Community 2,NA,TRUE,j,j,NA,NA,NA,1,6,"10,5,11,1,14,7,12,3,2,15,4,6,8,9,13"
14266,commdev-image-keyboard-response,649,1443663,learnblock2,415.40000000596046,img/planet15_left.png,15,Community 2,NA,TRUE,f,f,NA,NA,NA,1,6,"10,5,11,1,14,7,12,3,2,15,4,6,8,9,13"
14266,commdev-image-keyboard-response,650,1444914,learnblock2,564.3999999910593,img/planet7_left.png,7,Community 2,NA,TRUE,f,f,NA,NA,NA,1,6,"10,5,11,1,14,7,12,3,2,15,4,6,8,9,13"
14266,commdev-image-keyboard-response,651,1446165,learnblock2,455.79999999701977,img/planet2_left.png,2,Community 2,NA,TRUE,f,f,NA,NA,NA,1,6,"10,5,11,1,14,7,12,3,2,15,4,6,8,9,13"
14266,commdev-image-keyboard-response,652,1447416,learnblock2,675.6000000089407,img/planet3_left.png,3,Community 2,NA,TRUE,f,f,NA,NA,NA,1,6,"10,5,11,1,14,7,12,3,2,15,4,6,8,9,13"
14266,commdev-image-keyboard-response,653,1448667,learnblock2,528.2000000029802,img/planet2_right.png,2,Community 2,NA,TRUE,j,j,NA,NA,NA,1,6,"10,5,11,1,14,7,12,3,2,15,4,6,8,9,13"
14266,commdev-image-keyboard-response,654,1449918,learnblock2,520.7999999970198,img/planet7_right.png,7,Community 2,NA,TRUE,j,j,NA,NA,NA,1,6,"10,5,11,1,14,7,12,3,2,15,4,6,8,9,13"
14266,commdev-image-keyboard-response,655,1451169,learnblock2,492.8999999910593,img/planet12_left.png,12,Community 2,NA,FALSE,j,f,NA,NA,NA,1,6,"10,5,11,1,14,7,12,3,2,15,4,6,8,9,13"
14266,commdev-image-keyboard-response,656,1452420,learnblock2,464.59999999403954,img/planet2_right.png,2,Community 2,NA,FALSE,f,j,NA,NA,NA,1,6,"10,5,11,1,14,7,12,3,2,15,4,6,8,9,13"
14266,commdev-image-keyboard-response,657,1453671,learnblock2,null,img/planet15_right.png,15,Community 2,NA,FALSE,null,j,NA,NA,NA,1,6,"10,5,11,1,14,7,12,3,2,15,4,6,8,9,13"
14266,commdev-image-keyboard-response,658,1454921,learnblock2,72.79999999701977,img/planet7_right.png,7,Community 2,NA,TRUE,j,j,NA,NA,NA,1,6,"10,5,11,1,14,7,12,3,2,15,4,6,8,9,13"
14266,commdev-image-keyboard-response,659,1456173,learnblock2,484.20000000298023,img/planet2_left.png,2,Community 2,NA,TRUE,f,f,NA,NA,NA,1,6,"10,5,11,1,14,7,12,3,2,15,4,6,8,9,13"
14266,commdev-image-keyboard-response,660,1457425,learnblock2,579.7000000029802,img/planet3_left.png,3,Community 2,NA,TRUE,f,f,NA,NA,NA,1,6,"10,5,11,1,14,7,12,3,2,15,4,6,8,9,13"
14266,commdev-image-keyboard-response,661,1458675,learnblock2,481,img/planet12_right.png,12,Community 2,NA,TRUE,j,j,NA,NA,NA,1,6,"10,5,11,1,14,7,12,3,2,15,4,6,8,9,13"
14266,commdev-image-keyboard-response,662,1459927,learnblock2,431.20000000298023,img/planet3_left.png,3,Community 2,NA,TRUE,f,f,NA,NA,NA,1,6,"10,5,11,1,14,7,12,3,2,15,4,6,8,9,13"
14266,commdev-image-keyboard-response,663,1461179,learnblock2,450,img/planet2_right.png,2,Community 2,NA,TRUE,j,j,NA,NA,NA,1,6,"10,5,11,1,14,7,12,3,2,15,4,6,8,9,13"
14266,commdev-image-keyboard-response,664,1462430,learnblock2,480.70000000298023,img/planet7_left.png,7,Community 2,NA,TRUE,f,f,NA,NA,NA,1,6,"10,5,11,1,14,7,12,3,2,15,4,6,8,9,13"
14266,commdev-image-keyboard-response,665,1463681,learnblock2,502.19999998807907,img/planet15_left.png,15,Community 2,NA,TRUE,f,f,NA,NA,NA,1,6,"10,5,11,1,14,7,12,3,2,15,4,6,8,9,13"
14266,commdev-image-keyboard-response,666,1464932,learnblock2,467.3999999910593,img/planet12_right.png,12,Community 2,NA,TRUE,j,j,NA,NA,NA,1,6,"10,5,11,1,14,7,12,3,2,15,4,6,8,9,13"
14266,commdev-image-keyboard-response,667,1466183,learnblock2,596.5999999940395,img/planet7_right.png,7,Community 2,NA,TRUE,j,j,NA,NA,NA,1,6,"10,5,11,1,14,7,12,3,2,15,4,6,8,9,13"
14266,commdev-image-keyboard-response,668,1467435,learnblock2,556.4000000059605,img/planet1_right.png,1,Community 1,NA,TRUE,j,j,NA,NA,NA,1,6,"10,5,11,1,14,7,12,3,2,15,4,6,8,9,13"
14266,commdev-image-keyboard-response,669,1468687,learnblock2,497.6000000089407,img/planet10_left.png,10,Community 1,NA,TRUE,f,f,NA,NA,NA,1,6,"10,5,11,1,14,7,12,3,2,15,4,6,8,9,13"
14266,commdev-image-keyboard-response,670,1469938,learnblock2,529.1000000089407,img/planet14_left.png,14,Community 1,NA,TRUE,f,f,NA,NA,NA,1,6,"10,5,11,1,14,7,12,3,2,15,4,6,8,9,13"
14266,commdev-image-keyboard-response,671,1471189,learnblock2,546.8000000119209,img/planet5_left.png,5,Community 1,NA,TRUE,f,f,NA,NA,NA,1,6,"10,5,11,1,14,7,12,3,2,15,4,6,8,9,13"
14266,commdev-image-keyboard-response,672,1472440,learnblock2,421.5,img/planet10_left.png,10,Community 1,NA,TRUE,f,f,NA,NA,NA,1,6,"10,5,11,1,14,7,12,3,2,15,4,6,8,9,13"
14266,commdev-image-keyboard-response,673,1473692,learnblock2,513.2000000029802,img/planet14_left.png,14,Community 1,NA,TRUE,f,f,NA,NA,NA,1,6,"10,5,11,1,14,7,12,3,2,15,4,6,8,9,13"
14266,commdev-image-keyboard-response,674,1474944,learnblock2,472.70000000298023,img/planet4_right.png,4,Community 3,NA,TRUE,j,j,NA,NA,NA,1,6,"10,5,11,1,14,7,12,3,2,15,4,6,8,9,13"
14266,commdev-image-keyboard-response,675,1476195,learnblock2,560.8000000119209,img/planet8_left.png,8,Community 3,NA,TRUE,f,f,NA,NA,NA,1,6,"10,5,11,1,14,7,12,3,2,15,4,6,8,9,13"
14266,commdev-image-keyboard-response,676,1477445,learnblock2,466.40000000596046,img/planet13_right.png,13,Community 3,NA,TRUE,j,j,NA,NA,NA,1,6,"10,5,11,1,14,7,12,3,2,15,4,6,8,9,13"
14266,commdev-image-keyboard-response,677,1478697,learnblock2,435.40000000596046,img/planet6_left.png,6,Community 3,NA,TRUE,f,f,NA,NA,NA,1,6,"10,5,11,1,14,7,12,3,2,15,4,6,8,9,13"
14266,commdev-image-keyboard-response,678,1479950,learnblock2,469.80000001192093,img/planet13_left.png,13,Community 3,NA,TRUE,f,f,NA,NA,NA,1,6,"10,5,11,1,14,7,12,3,2,15,4,6,8,9,13"
14266,commdev-image-keyboard-response,679,1481201,learnblock2,474,img/planet9_right.png,9,Community 3,NA,TRUE,j,j,NA,NA,NA,1,6,"10,5,11,1,14,7,12,3,2,15,4,6,8,9,13"
14266,commdev-image-keyboard-response,680,1482453,learnblock2,510.90000000596046,img/planet13_right.png,13,Community 3,NA,TRUE,j,j,NA,NA,NA,1,6,"10,5,11,1,14,7,12,3,2,15,4,6,8,9,13"
14266,commdev-image-keyboard-response,681,1483704,learnblock2,486.90000000596046,img/planet8_right.png,8,Community 3,NA,TRUE,j,j,NA,NA,NA,1,6,"10,5,11,1,14,7,12,3,2,15,4,6,8,9,13"
14266,commdev-image-keyboard-response,682,1484956,learnblock2,399.6000000089407,img/planet13_right.png,13,Community 3,NA,TRUE,j,j,NA,NA,NA,1,6,"10,5,11,1,14,7,12,3,2,15,4,6,8,9,13"
14266,commdev-image-keyboard-response,683,1486207,learnblock2,475,img/planet6_left.png,6,Community 3,NA,TRUE,f,f,NA,NA,NA,1,6,"10,5,11,1,14,7,12,3,2,15,4,6,8,9,13"
14266,commdev-image-keyboard-response,684,1487458,learnblock2,572.8000000119209,img/planet8_right.png,8,Community 3,NA,FALSE,f,j,NA,NA,NA,1,6,"10,5,11,1,14,7,12,3,2,15,4,6,8,9,13"
14266,commdev-image-keyboard-response,685,1488709,learnblock2,691.6000000089407,img/planet13_left.png,13,Community 3,NA,TRUE,f,f,NA,NA,NA,1,6,"10,5,11,1,14,7,12,3,2,15,4,6,8,9,13"
14266,commdev-image-keyboard-response,686,1489960,learnblock2,456.6000000089407,img/planet9_right.png,9,Community 3,NA,TRUE,j,j,NA,NA,NA,1,6,"10,5,11,1,14,7,12,3,2,15,4,6,8,9,13"
14266,commdev-image-keyboard-response,687,1491211,learnblock2,520.3000000119209,img/planet4_right.png,4,Community 3,NA,TRUE,j,j,NA,NA,NA,1,6,"10,5,11,1,14,7,12,3,2,15,4,6,8,9,13"
14266,commdev-image-keyboard-response,688,1492463,learnblock2,513.2000000029802,img/planet9_left.png,9,Community 3,NA,TRUE,f,f,NA,NA,NA,1,6,"10,5,11,1,14,7,12,3,2,15,4,6,8,9,13"
14266,commdev-image-keyboard-response,689,1493715,learnblock2,467.40000000596046,img/planet8_right.png,8,Community 3,NA,TRUE,j,j,NA,NA,NA,1,6,"10,5,11,1,14,7,12,3,2,15,4,6,8,9,13"
14266,commdev-image-keyboard-response,690,1494967,learnblock2,509.79999999701977,img/planet4_right.png,4,Community 3,NA,TRUE,j,j,NA,NA,NA,1,6,"10,5,11,1,14,7,12,3,2,15,4,6,8,9,13"
14266,commdev-image-keyboard-response,691,1496218,learnblock2,556.2000000029802,img/planet8_left.png,8,Community 3,NA,TRUE,f,f,NA,NA,NA,1,6,"10,5,11,1,14,7,12,3,2,15,4,6,8,9,13"
14266,commdev-image-keyboard-response,692,1497469,learnblock2,858.6000000089407,img/planet6_left.png,6,Community 3,NA,TRUE,f,f,NA,NA,NA,1,6,"10,5,11,1,14,7,12,3,2,15,4,6,8,9,13"
14266,commdev-image-keyboard-response,693,1498721,learnblock2,753.2000000029802,img/planet9_left.png,9,Community 3,NA,TRUE,f,f,NA,NA,NA,1,6,"10,5,11,1,14,7,12,3,2,15,4,6,8,9,13"
14266,commdev-image-keyboard-response,694,1499972,learnblock2,692.9000000059605,img/planet13_left.png,13,Community 3,NA,TRUE,f,f,NA,NA,NA,1,6,"10,5,11,1,14,7,12,3,2,15,4,6,8,9,13"
14266,commdev-image-keyboard-response,695,1501231,learnblock2,435,img/planet8_right.png,8,Community 3,NA,TRUE,j,j,NA,NA,NA,1,6,"10,5,11,1,14,7,12,3,2,15,4,6,8,9,13"
14266,commdev-image-keyboard-response,696,1502482,learnblock2,484.29999999701977,img/planet13_right.png,13,Community 3,NA,FALSE,f,j,NA,NA,NA,1,6,"10,5,11,1,14,7,12,3,2,15,4,6,8,9,13"
14266,commdev-image-keyboard-response,697,1503734,learnblock2,544.5,img/planet9_right.png,9,Community 3,NA,TRUE,j,j,NA,NA,NA,1,6,"10,5,11,1,14,7,12,3,2,15,4,6,8,9,13"
14266,commdev-image-keyboard-response,698,1504985,learnblock2,609.7999999970198,img/planet8_right.png,8,Community 3,NA,TRUE,j,j,NA,NA,NA,1,6,"10,5,11,1,14,7,12,3,2,15,4,6,8,9,13"
14266,commdev-image-keyboard-response,699,1506251,learnblock2,760.5999999940395,img/planet9_right.png,9,Community 3,NA,TRUE,j,j,NA,NA,NA,1,6,"10,5,11,1,14,7,12,3,2,15,4,6,8,9,13"
14266,commdev-image-keyboard-response,700,1507502,learnblock2,624,img/planet13_right.png,13,Community 3,NA,TRUE,j,j,NA,NA,NA,1,6,"10,5,11,1,14,7,12,3,2,15,4,6,8,9,13"
14266,commdev-image-keyboard-response,701,1508753,learnblock2,492.20000000298023,img/planet6_right.png,6,Community 3,NA,TRUE,j,j,NA,NA,NA,1,6,"10,5,11,1,14,7,12,3,2,15,4,6,8,9,13"
14266,commdev-image-keyboard-response,702,1510005,learnblock2,482,img/planet3_left.png,3,Community 2,NA,TRUE,f,f,NA,NA,NA,1,6,"10,5,11,1,14,7,12,3,2,15,4,6,8,9,13"
14266,commdev-image-keyboard-response,703,1511256,learnblock2,539.5,img/planet2_left.png,2,Community 2,NA,TRUE,f,f,NA,NA,NA,1,6,"10,5,11,1,14,7,12,3,2,15,4,6,8,9,13"
14266,commdev-image-keyboard-response,704,1512507,learnblock2,489.6000000089407,img/planet3_right.png,3,Community 2,NA,TRUE,j,j,NA,NA,NA,1,6,"10,5,11,1,14,7,12,3,2,15,4,6,8,9,13"
14266,commdev-image-keyboard-response,705,1513758,learnblock2,557.3999999910593,img/planet15_right.png,15,Community 2,NA,TRUE,j,j,NA,NA,NA,1,6,"10,5,11,1,14,7,12,3,2,15,4,6,8,9,13"
14266,commdev-image-keyboard-response,706,1515010,learnblock2,498.79999999701977,img/planet2_left.png,2,Community 2,NA,TRUE,f,f,NA,NA,NA,1,6,"10,5,11,1,14,7,12,3,2,15,4,6,8,9,13"
14266,commdev-image-keyboard-response,707,1516261,learnblock2,492.59999999403954,img/planet12_left.png,12,Community 2,NA,TRUE,f,f,NA,NA,NA,1,6,"10,5,11,1,14,7,12,3,2,15,4,6,8,9,13"
14266,commdev-image-keyboard-response,708,1517512,learnblock2,482.5,img/planet7_left.png,7,Community 2,NA,TRUE,f,f,NA,NA,NA,1,6,"10,5,11,1,14,7,12,3,2,15,4,6,8,9,13"
14266,commdev-image-keyboard-response,709,1518763,learnblock2,408.40000000596046,img/planet1_left.png,1,Community 1,NA,TRUE,f,f,NA,NA,NA,1,6,"10,5,11,1,14,7,12,3,2,15,4,6,8,9,13"
14266,commdev-image-keyboard-response,710,1520014,learnblock2,435.3999999910593,img/planet5_right.png,5,Community 1,NA,TRUE,j,j,NA,NA,NA,1,6,"10,5,11,1,14,7,12,3,2,15,4,6,8,9,13"
14266,commdev-image-keyboard-response,711,1521265,learnblock2,683.3999999910593,img/planet11_left.png,11,Community 1,NA,TRUE,f,f,NA,NA,NA,1,6,"10,5,11,1,14,7,12,3,2,15,4,6,8,9,13"
14266,commdev-image-keyboard-response,712,1522516,learnblock2,418.70000000298023,img/planet1_right.png,1,Community 1,NA,TRUE,j,j,NA,NA,NA,1,6,"10,5,11,1,14,7,12,3,2,15,4,6,8,9,13"
14266,commdev-image-keyboard-response,713,1523780,learnblock2,531.6000000089407,img/planet10_right.png,10,Community 1,NA,TRUE,j,j,NA,NA,NA,1,6,"10,5,11,1,14,7,12,3,2,15,4,6,8,9,13"
14266,commdev-image-keyboard-response,714,1525031,learnblock2,500.90000000596046,img/planet14_right.png,14,Community 1,NA,TRUE,j,j,NA,NA,NA,1,6,"10,5,11,1,14,7,12,3,2,15,4,6,8,9,13"
14266,commdev-image-keyboard-response,715,1526283,learnblock2,478,img/planet10_left.png,10,Community 1,NA,FALSE,j,f,NA,NA,NA,1,6,"10,5,11,1,14,7,12,3,2,15,4,6,8,9,13"
14266,commdev-image-keyboard-response,716,1527534,learnblock2,812.5999999940395,img/planet5_right.png,5,Community 1,NA,TRUE,j,j,NA,NA,NA,1,6,"10,5,11,1,14,7,12,3,2,15,4,6,8,9,13"
14266,commdev-image-keyboard-response,717,1528786,learnblock2,553.2999999970198,img/planet14_right.png,14,Community 1,NA,TRUE,j,j,NA,NA,NA,1,6,"10,5,11,1,14,7,12,3,2,15,4,6,8,9,13"
14266,commdev-image-keyboard-response,718,1530038,learnblock2,415.5,img/planet4_right.png,4,Community 3,NA,TRUE,j,j,NA,NA,NA,1,6,"10,5,11,1,14,7,12,3,2,15,4,6,8,9,13"
14266,commdev-image-keyboard-response,719,1531289,learnblock2,524.7000000029802,img/planet9_left.png,9,Community 3,NA,TRUE,f,f,NA,NA,NA,1,6,"10,5,11,1,14,7,12,3,2,15,4,6,8,9,13"
14266,commdev-image-keyboard-response,720,1532540,learnblock2,540,img/planet6_left.png,6,Community 3,NA,FALSE,j,f,NA,NA,NA,1,6,"10,5,11,1,14,7,12,3,2,15,4,6,8,9,13"
14266,commdev-image-keyboard-response,721,1533792,learnblock2,542,img/planet13_right.png,13,Community 3,NA,FALSE,f,j,NA,NA,NA,1,6,"10,5,11,1,14,7,12,3,2,15,4,6,8,9,13"
14266,commdev-image-keyboard-response,722,1535045,learnblock2,604.7000000029802,img/planet9_right.png,9,Community 3,NA,TRUE,j,j,NA,NA,NA,1,6,"10,5,11,1,14,7,12,3,2,15,4,6,8,9,13"
14266,commdev-image-keyboard-response,723,1536296,learnblock2,413.1000000089407,img/planet13_right.png,13,Community 3,NA,TRUE,j,j,NA,NA,NA,1,6,"10,5,11,1,14,7,12,3,2,15,4,6,8,9,13"
14266,commdev-image-keyboard-response,724,1537548,learnblock2,517.8999999910593,img/planet8_right.png,8,Community 3,NA,TRUE,j,j,NA,NA,NA,1,6,"10,5,11,1,14,7,12,3,2,15,4,6,8,9,13"
14266,commdev-image-keyboard-response,725,1538811,learnblock2,507.29999999701977,img/planet13_right.png,13,Community 3,NA,TRUE,j,j,NA,NA,NA,1,6,"10,5,11,1,14,7,12,3,2,15,4,6,8,9,13"
14266,commdev-image-keyboard-response,726,1540063,learnblock2,462.19999998807907,img/planet4_right.png,4,Community 3,NA,TRUE,j,j,NA,NA,NA,1,6,"10,5,11,1,14,7,12,3,2,15,4,6,8,9,13"
14266,commdev-image-keyboard-response,727,1541314,learnblock2,586.7000000029802,img/planet8_left.png,8,Community 3,NA,TRUE,f,f,NA,NA,NA,1,6,"10,5,11,1,14,7,12,3,2,15,4,6,8,9,13"
14266,commdev-image-keyboard-response,728,1542565,learnblock2,454.09999999403954,img/planet13_left.png,13,Community 3,NA,TRUE,f,f,NA,NA,NA,1,6,"10,5,11,1,14,7,12,3,2,15,4,6,8,9,13"
14266,commdev-image-keyboard-response,729,1543819,learnblock2,360.90000000596046,img/planet6_right.png,6,Community 3,NA,FALSE,f,j,NA,NA,NA,1,6,"10,5,11,1,14,7,12,3,2,15,4,6,8,9,13"
14266,commdev-image-keyboard-response,730,1545084,learnblock2,556.2999999970198,img/planet13_left.png,13,Community 3,NA,TRUE,f,f,NA,NA,NA,1,6,"10,5,11,1,14,7,12,3,2,15,4,6,8,9,13"
14266,commdev-image-keyboard-response,731,1546335,learnblock2,494.29999999701977,img/planet9_right.png,9,Community 3,NA,TRUE,j,j,NA,NA,NA,1,6,"10,5,11,1,14,7,12,3,2,15,4,6,8,9,13"
14266,commdev-image-keyboard-response,732,1547586,learnblock2,543.4000000059605,img/planet13_left.png,13,Community 3,NA,FALSE,j,f,NA,NA,NA,1,6,"10,5,11,1,14,7,12,3,2,15,4,6,8,9,13"
