subject_id,trial_type,trial_index,time_elapsed,block,rt,stimulus,planet,community,response,correct,key_press,learning_correct_response,parse,init_locations,final_locations,browser_interactions,num_comp,planet_map
15455,commdev-instructions,7,30198,NA,1098.300000011921,"<p>In this game, you will be shown a 3x3 grid of patterns.</p> <p>The last one in the bottom right-hand corner, <strong>will be missing:</strong></p> <div style='width: 700px;'><div style='float: top;'><img style='width: 200px;' src='practice/p1_M1.png'></img><p class='small'>You need to select<strong> which of the four possible patterns </strong>along the bottom<strong> fits into the gap:</strong></p></div><div style='float: top;'><img style='width: 300px;' src='practice/p1_T1.png'></img></div><br>",NA,NA,NA,NA,NA,NA,NA,NA,NA,2,6,"3,6,14,4,15,10,11,1,8,12,5,9,7,13,2"
15455,commdev-instructions,8,49509,NA,1384.800000011921,"<p>Try to be as fast and as accurate as you can be.</p> <p>If you cannot solve the puzzle then you should guess - you will not be penalised for an incorrect answer.</p> <p>The task contains a shuffled mix of easy, medium and hard puzzles.</p> <p>You will have <strong>30 seconds</strong> to complete each puzzle.</p><br>",NA,NA,NA,NA,NA,NA,NA,NA,NA,2,6,"3,6,14,4,15,10,11,1,8,12,5,9,7,13,2"
15455,commdev-instructions,15,79106,NA,1341.699999988079,<p><strong>Success!</strong></p> <p>You seem to be getting the hang of this...</p> <p>Let's move on to the real trials.</p><br>,NA,NA,NA,NA,NA,NA,NA,NA,NA,2,6,"3,6,14,4,15,10,11,1,8,12,5,9,7,13,2"
15455,commdev-instructions,178,421407,NA,1458,"<p>In this game, you are a scientist on board a space shuttle. </p><p> On each mission, you will visit planets all across the universe.</p><img src=""img/controlroom.jpg"" width=300vw>",NA,NA,NA,NA,NA,NA,NA,NA,NA,2,6,"3,6,14,4,15,10,11,1,8,12,5,9,7,13,2"
15455,commdev-instructions,179,423959,NA,479.5,"<p>Here are a few planets you might see:</p><img src=""img/practice1.png"" width=200vw><img src=""img/practice2.png"" width=200vw><img src=""img/practice3.png"" width=200vw>",NA,NA,NA,NA,NA,NA,NA,NA,NA,2,6,"3,6,14,4,15,10,11,1,8,12,5,9,7,13,2"
15455,commdev-instructions,180,431784,NA,421.80000001192093,"<p>Your job as a scientist is to record which direction the winds are moving on each planet.</p><p>There are two types of wind directions:</p><img src=""img/practice1_left.png"" width=200vw><img src=""img/practice1_right.png"" width=200vw>",NA,NA,NA,NA,NA,NA,NA,NA,NA,2,6,"3,6,14,4,15,10,11,1,8,12,5,9,7,13,2"
15455,commdev-instructions,181,438124,NA,1457.300000011921,"<p>If the winds are moving this way, press the letter <strong>F</strong> on the keyboard as fast as you can.</p><img src=""img/leftwind.png"" width=250vw>",NA,NA,NA,NA,NA,NA,NA,NA,NA,2,6,"3,6,14,4,15,10,11,1,8,12,5,9,7,13,2"
15455,commdev-instructions,182,445288,NA,2663.899999976158,"<p>If the winds are moving this way, press the letter <strong>J</strong> on the keyboard as fast as you can.</p><img src=""img/rightwind.png"" width=350vw>",NA,NA,NA,NA,NA,NA,NA,NA,NA,2,6,"3,6,14,4,15,10,11,1,8,12,5,9,7,13,2"
15455,commdev-instructions,183,503906,NA,54192.69999998808,<p>You will have 1 second to respond. Try to respond before the time runs out!,NA,NA,NA,NA,NA,NA,NA,NA,NA,2,6,"3,6,14,4,15,10,11,1,8,12,5,9,7,13,2"
15455,commdev-instructions,184,510000,NA,635,<p>The planets you will visit will look different from each other.</p><p>You should respond <strong>only</strong> based on wind direction.,NA,NA,NA,NA,NA,NA,NA,NA,NA,2,6,"3,6,14,4,15,10,11,1,8,12,5,9,7,13,2"
15455,commdev-instructions,185,516157,NA,989.1000000238419,"<p> Ready to start the practice round? </p><p> Remember, press <strong>F</strong> or <strong>J</strong> depending on the wind direction.<br><img src=""img/categorize_planet_example.png""",NA,NA,NA,NA,NA,NA,NA,NA,NA,2,6,"3,6,14,4,15,10,11,1,8,12,5,9,7,13,2"
15455,commdev-instructions,197,559210,NA,NA,NA,NA,NA,NA,NA,NA,NA,NA,NA,NA,2,6,"3,6,14,4,15,10,11,1,8,12,5,9,7,13,2"
15455,commdev-image-keyboard-response,198,560565,practice,null,img/practice1_left.png,NA,Number not found in mappings,NA,FALSE,null,f,NA,NA,NA,2,6,"3,6,14,4,15,10,11,1,8,12,5,9,7,13,2"
15455,commdev-image-keyboard-response,199,561819,practice,0.5,img/practice2_right.png,NA,Number not found in mappings,NA,FALSE,f,j,NA,NA,NA,2,6,"3,6,14,4,15,10,11,1,8,12,5,9,7,13,2"
15455,commdev-image-keyboard-response,200,563073,practice,null,img/practice4_left.png,NA,Number not found in mappings,NA,FALSE,null,f,NA,NA,NA,2,6,"3,6,14,4,15,10,11,1,8,12,5,9,7,13,2"
15455,commdev-image-keyboard-response,201,564325,practice,799.6999999880791,img/practice2_left.png,NA,Number not found in mappings,NA,TRUE,f,f,NA,NA,NA,2,6,"3,6,14,4,15,10,11,1,8,12,5,9,7,13,2"
15455,commdev-image-keyboard-response,202,565578,practice,null,img/practice1_right.png,NA,Number not found in mappings,NA,FALSE,null,j,NA,NA,NA,2,6,"3,6,14,4,15,10,11,1,8,12,5,9,7,13,2"
15455,commdev-image-keyboard-response,203,566832,practice,148.10000002384186,img/practice2_right.png,NA,Number not found in mappings,NA,TRUE,j,j,NA,NA,NA,2,6,"3,6,14,4,15,10,11,1,8,12,5,9,7,13,2"
15455,commdev-image-keyboard-response,204,568085,practice,null,img/practice3_right.png,NA,Number not found in mappings,NA,FALSE,null,j,NA,NA,NA,2,6,"3,6,14,4,15,10,11,1,8,12,5,9,7,13,2"
15455,commdev-image-keyboard-response,205,569337,practice,1203.2000000476837,img/practice2_left.png,NA,Number not found in mappings,NA,TRUE,f,f,NA,NA,NA,2,6,"3,6,14,4,15,10,11,1,8,12,5,9,7,13,2"
15455,commdev-instructions,206,580222,NA,1330.699999988079,"<p>Great job with the practice round.</p><p>During real missions, you won't know whether you pressed the right or wrong key for each planet.</p><p>But between missions, we will tell you how you did overall.</p>",NA,NA,NA,NA,NA,NA,NA,NA,NA,2,6,"3,6,14,4,15,10,11,1,8,12,5,9,7,13,2"
15455,commdev-instructions,207,590355,NA,1890.9000000357628,<p>Try your best! You will be paid a bonus based on how many correct responses you make!</p><p>Responses that are too slow will not count toward your bonus.</p>,NA,NA,NA,NA,NA,NA,NA,NA,NA,2,6,"3,6,14,4,15,10,11,1,8,12,5,9,7,13,2"
15455,commdev-instructions,208,597277,NA,721.7000000476837,"<p>You are almost ready to start the real game.</p><p> First, we are going to ask you some questions about how the game works.</p>",NA,NA,NA,NA,NA,NA,NA,NA,NA,2,6,"3,6,14,4,15,10,11,1,8,12,5,9,7,13,2"
15455,commdev-instructions,217,673861,NA,1670.1000000238419,"<p> Nice work! It is now time to start the real game.<p></p>You will go on two missions to record wind directions of different planets.<p></p>Each one will take about 5 minutes. You will get to take a break between missions.<p><p> Remember, press <strong>F</strong> or <strong>J</strong> depending on the wind direction. Good luck!<br><img src=""img/categorize_planet_example.png""",NA,NA,NA,NA,NA,NA,NA,NA,NA,2,6,"3,6,14,4,15,10,11,1,8,12,5,9,7,13,2"
15455,commdev-image-keyboard-response,219,676898,learnblock1,1016.6000000238419,img/planet8_left.png,8,Community 2,NA,TRUE,f,f,NA,NA,NA,2,6,"3,6,14,4,15,10,11,1,8,12,5,9,7,13,2"
15455,commdev-image-keyboard-response,220,678151,learnblock1,631.8000000119209,img/planet10_left.png,10,Community 2,NA,TRUE,f,f,NA,NA,NA,2,6,"3,6,14,4,15,10,11,1,8,12,5,9,7,13,2"
15455,commdev-image-keyboard-response,221,679404,learnblock1,663,img/planet12_left.png,12,Community 2,NA,TRUE,f,f,NA,NA,NA,2,6,"3,6,14,4,15,10,11,1,8,12,5,9,7,13,2"
15455,commdev-image-keyboard-response,222,680657,learnblock1,987.6000000238419,img/planet10_left.png,10,Community 2,NA,TRUE,f,f,NA,NA,NA,2,6,"3,6,14,4,15,10,11,1,8,12,5,9,7,13,2"
15455,commdev-image-keyboard-response,223,681911,learnblock1,602.8000000119209,img/planet8_left.png,8,Community 2,NA,TRUE,f,f,NA,NA,NA,2,6,"3,6,14,4,15,10,11,1,8,12,5,9,7,13,2"
15455,commdev-image-keyboard-response,224,683164,learnblock1,609.1000000238419,img/planet10_left.png,10,Community 2,NA,TRUE,f,f,NA,NA,NA,2,6,"3,6,14,4,15,10,11,1,8,12,5,9,7,13,2"
15455,commdev-image-keyboard-response,225,684418,learnblock1,673.6000000238419,img/planet4_right.png,4,Community 1,NA,TRUE,j,j,NA,NA,NA,2,6,"3,6,14,4,15,10,11,1,8,12,5,9,7,13,2"
15455,commdev-image-keyboard-response,226,685670,learnblock1,653.8000000119209,img/planet6_right.png,6,Community 1,NA,TRUE,j,j,NA,NA,NA,2,6,"3,6,14,4,15,10,11,1,8,12,5,9,7,13,2"
15455,commdev-image-keyboard-response,227,686923,learnblock1,755.6999999880791,img/planet15_right.png,15,Community 1,NA,TRUE,j,j,NA,NA,NA,2,6,"3,6,14,4,15,10,11,1,8,12,5,9,7,13,2"
15455,commdev-image-keyboard-response,228,688176,learnblock1,747.6000000238419,img/planet6_left.png,6,Community 1,NA,TRUE,f,f,NA,NA,NA,2,6,"3,6,14,4,15,10,11,1,8,12,5,9,7,13,2"
15455,commdev-image-keyboard-response,229,689430,learnblock1,567.8000000119209,img/planet4_left.png,4,Community 1,NA,TRUE,f,f,NA,NA,NA,2,6,"3,6,14,4,15,10,11,1,8,12,5,9,7,13,2"
15455,commdev-image-keyboard-response,230,690682,learnblock1,802.9000000357628,img/planet14_right.png,14,Community 1,NA,TRUE,j,j,NA,NA,NA,2,6,"3,6,14,4,15,10,11,1,8,12,5,9,7,13,2"
15455,commdev-image-keyboard-response,231,691935,learnblock1,1046.3999999761581,img/planet15_left.png,15,Community 1,NA,TRUE,f,f,NA,NA,NA,2,6,"3,6,14,4,15,10,11,1,8,12,5,9,7,13,2"
15455,commdev-image-keyboard-response,232,693189,learnblock1,1004,img/planet6_right.png,6,Community 1,NA,TRUE,j,j,NA,NA,NA,2,6,"3,6,14,4,15,10,11,1,8,12,5,9,7,13,2"
15455,commdev-image-keyboard-response,233,694442,learnblock1,930.3000000119209,img/planet14_right.png,14,Community 1,NA,FALSE,f,j,NA,NA,NA,2,6,"3,6,14,4,15,10,11,1,8,12,5,9,7,13,2"
15455,commdev-image-keyboard-response,234,695694,learnblock1,658,img/planet4_right.png,4,Community 1,NA,TRUE,j,j,NA,NA,NA,2,6,"3,6,14,4,15,10,11,1,8,12,5,9,7,13,2"
15455,commdev-image-keyboard-response,235,696947,learnblock1,709.6999999880791,img/planet3_left.png,3,Community 1,NA,TRUE,f,f,NA,NA,NA,2,6,"3,6,14,4,15,10,11,1,8,12,5,9,7,13,2"
15455,commdev-image-keyboard-response,236,698201,learnblock1,600.5999999642372,img/planet4_right.png,4,Community 1,NA,TRUE,j,j,NA,NA,NA,2,6,"3,6,14,4,15,10,11,1,8,12,5,9,7,13,2"
15455,commdev-image-keyboard-response,237,699454,learnblock1,624.1999999880791,img/planet14_left.png,14,Community 1,NA,TRUE,f,f,NA,NA,NA,2,6,"3,6,14,4,15,10,11,1,8,12,5,9,7,13,2"
15455,commdev-image-keyboard-response,238,700707,learnblock1,614.1999999880791,img/planet6_right.png,6,Community 1,NA,TRUE,j,j,NA,NA,NA,2,6,"3,6,14,4,15,10,11,1,8,12,5,9,7,13,2"
15455,commdev-image-keyboard-response,239,701959,learnblock1,628.5,img/planet4_left.png,4,Community 1,NA,TRUE,f,f,NA,NA,NA,2,6,"3,6,14,4,15,10,11,1,8,12,5,9,7,13,2"
15455,commdev-image-keyboard-response,240,703212,learnblock1,654.3999999761581,img/planet3_right.png,3,Community 1,NA,TRUE,j,j,NA,NA,NA,2,6,"3,6,14,4,15,10,11,1,8,12,5,9,7,13,2"
15455,commdev-image-keyboard-response,241,704465,learnblock1,702.5999999642372,img/planet4_right.png,4,Community 1,NA,TRUE,j,j,NA,NA,NA,2,6,"3,6,14,4,15,10,11,1,8,12,5,9,7,13,2"
15455,commdev-image-keyboard-response,242,705717,learnblock1,612.6999999880791,img/planet14_right.png,14,Community 1,NA,TRUE,j,j,NA,NA,NA,2,6,"3,6,14,4,15,10,11,1,8,12,5,9,7,13,2"
15455,commdev-image-keyboard-response,243,706970,learnblock1,640,img/planet6_left.png,6,Community 1,NA,TRUE,f,f,NA,NA,NA,2,6,"3,6,14,4,15,10,11,1,8,12,5,9,7,13,2"
15455,commdev-image-keyboard-response,244,708223,learnblock1,597.8999999761581,img/planet15_right.png,15,Community 1,NA,TRUE,j,j,NA,NA,NA,2,6,"3,6,14,4,15,10,11,1,8,12,5,9,7,13,2"
15455,commdev-image-keyboard-response,245,709476,learnblock1,580.4000000357628,img/planet3_right.png,3,Community 1,NA,TRUE,j,j,NA,NA,NA,2,6,"3,6,14,4,15,10,11,1,8,12,5,9,7,13,2"
15455,commdev-image-keyboard-response,246,710729,learnblock1,647.8999999761581,img/planet6_left.png,6,Community 1,NA,TRUE,f,f,NA,NA,NA,2,6,"3,6,14,4,15,10,11,1,8,12,5,9,7,13,2"
15455,commdev-image-keyboard-response,247,711983,learnblock1,568.1999999880791,img/planet3_right.png,3,Community 1,NA,TRUE,j,j,NA,NA,NA,2,6,"3,6,14,4,15,10,11,1,8,12,5,9,7,13,2"
15455,commdev-image-keyboard-response,248,713236,learnblock1,761.7999999523163,img/planet6_right.png,6,Community 1,NA,TRUE,j,j,NA,NA,NA,2,6,"3,6,14,4,15,10,11,1,8,12,5,9,7,13,2"
15455,commdev-image-keyboard-response,249,714488,learnblock1,744.1000000238419,img/planet3_left.png,3,Community 1,NA,TRUE,f,f,NA,NA,NA,2,6,"3,6,14,4,15,10,11,1,8,12,5,9,7,13,2"
15455,commdev-image-keyboard-response,250,715740,learnblock1,664.1999999880791,img/planet14_right.png,14,Community 1,NA,TRUE,j,j,NA,NA,NA,2,6,"3,6,14,4,15,10,11,1,8,12,5,9,7,13,2"
15455,commdev-image-keyboard-response,251,716993,learnblock1,684.8999999761581,img/planet6_left.png,6,Community 1,NA,TRUE,f,f,NA,NA,NA,2,6,"3,6,14,4,15,10,11,1,8,12,5,9,7,13,2"
15455,commdev-image-keyboard-response,252,718246,learnblock1,603.5999999642372,img/planet3_right.png,3,Community 1,NA,TRUE,j,j,NA,NA,NA,2,6,"3,6,14,4,15,10,11,1,8,12,5,9,7,13,2"
15455,commdev-image-keyboard-response,253,719499,learnblock1,616.3999999761581,img/planet6_right.png,6,Community 1,NA,TRUE,j,j,NA,NA,NA,2,6,"3,6,14,4,15,10,11,1,8,12,5,9,7,13,2"
15455,commdev-image-keyboard-response,254,720752,learnblock1,538.1999999880791,img/planet4_right.png,4,Community 1,NA,TRUE,j,j,NA,NA,NA,2,6,"3,6,14,4,15,10,11,1,8,12,5,9,7,13,2"
15455,commdev-image-keyboard-response,255,722005,learnblock1,670.3999999761581,img/planet10_right.png,10,Community 2,NA,TRUE,j,j,NA,NA,NA,2,6,"3,6,14,4,15,10,11,1,8,12,5,9,7,13,2"
15455,commdev-image-keyboard-response,256,723258,learnblock1,541.0999999642372,img/planet11_right.png,11,Community 2,NA,TRUE,j,j,NA,NA,NA,2,6,"3,6,14,4,15,10,11,1,8,12,5,9,7,13,2"
15455,commdev-image-keyboard-response,257,724511,learnblock1,525.3000000119209,img/planet1_left.png,1,Community 2,NA,TRUE,f,f,NA,NA,NA,2,6,"3,6,14,4,15,10,11,1,8,12,5,9,7,13,2"
15455,commdev-image-keyboard-response,258,725764,learnblock1,546.5,img/planet9_right.png,9,Community 3,NA,TRUE,j,j,NA,NA,NA,2,6,"3,6,14,4,15,10,11,1,8,12,5,9,7,13,2"
15455,commdev-image-keyboard-response,259,727017,learnblock1,621.8000000119209,img/planet7_right.png,7,Community 3,NA,TRUE,j,j,NA,NA,NA,2,6,"3,6,14,4,15,10,11,1,8,12,5,9,7,13,2"
15455,commdev-image-keyboard-response,260,728270,learnblock1,625.1000000238419,img/planet2_left.png,2,Community 3,NA,TRUE,f,f,NA,NA,NA,2,6,"3,6,14,4,15,10,11,1,8,12,5,9,7,13,2"
15455,commdev-image-keyboard-response,261,729523,learnblock1,574.4000000357628,img/planet5_left.png,5,Community 3,NA,TRUE,f,f,NA,NA,NA,2,6,"3,6,14,4,15,10,11,1,8,12,5,9,7,13,2"
15455,commdev-image-keyboard-response,262,730776,learnblock1,623.5999999642372,img/planet7_left.png,7,Community 3,NA,TRUE,f,f,NA,NA,NA,2,6,"3,6,14,4,15,10,11,1,8,12,5,9,7,13,2"
15455,commdev-image-keyboard-response,263,732029,learnblock1,523.9000000357628,img/planet5_left.png,5,Community 3,NA,TRUE,f,f,NA,NA,NA,2,6,"3,6,14,4,15,10,11,1,8,12,5,9,7,13,2"
15455,commdev-image-keyboard-response,264,733282,learnblock1,600.5999999642372,img/planet7_left.png,7,Community 3,NA,TRUE,f,f,NA,NA,NA,2,6,"3,6,14,4,15,10,11,1,8,12,5,9,7,13,2"
15455,commdev-image-keyboard-response,265,734535,learnblock1,640.3000000119209,img/planet13_left.png,13,Community 3,NA,TRUE,f,f,NA,NA,NA,2,6,"3,6,14,4,15,10,11,1,8,12,5,9,7,13,2"
15455,commdev-image-keyboard-response,266,735788,learnblock1,567.2000000476837,img/planet9_left.png,9,Community 3,NA,TRUE,f,f,NA,NA,NA,2,6,"3,6,14,4,15,10,11,1,8,12,5,9,7,13,2"
15455,commdev-image-keyboard-response,267,737040,learnblock1,626.1999999880791,img/planet1_right.png,1,Community 2,NA,TRUE,j,j,NA,NA,NA,2,6,"3,6,14,4,15,10,11,1,8,12,5,9,7,13,2"
15455,commdev-image-keyboard-response,268,738292,learnblock1,594.5,img/planet8_left.png,8,Community 2,NA,TRUE,f,f,NA,NA,NA,2,6,"3,6,14,4,15,10,11,1,8,12,5,9,7,13,2"
15455,commdev-image-keyboard-response,269,739546,learnblock1,670.1999999880791,img/planet11_left.png,11,Community 2,NA,TRUE,f,f,NA,NA,NA,2,6,"3,6,14,4,15,10,11,1,8,12,5,9,7,13,2"
15455,commdev-image-keyboard-response,270,740799,learnblock1,609.2000000476837,img/planet8_right.png,8,Community 2,NA,TRUE,j,j,NA,NA,NA,2,6,"3,6,14,4,15,10,11,1,8,12,5,9,7,13,2"
15455,commdev-image-keyboard-response,271,742051,learnblock1,571.0999999642372,img/planet11_left.png,11,Community 2,NA,TRUE,f,f,NA,NA,NA,2,6,"3,6,14,4,15,10,11,1,8,12,5,9,7,13,2"
15455,commdev-image-keyboard-response,272,743304,learnblock1,557.5,img/planet1_right.png,1,Community 2,NA,TRUE,j,j,NA,NA,NA,2,6,"3,6,14,4,15,10,11,1,8,12,5,9,7,13,2"
15455,commdev-image-keyboard-response,273,744558,learnblock1,597.3999999761581,img/planet12_right.png,12,Community 2,NA,TRUE,j,j,NA,NA,NA,2,6,"3,6,14,4,15,10,11,1,8,12,5,9,7,13,2"
15455,commdev-image-keyboard-response,274,745810,learnblock1,583,img/planet1_right.png,1,Community 2,NA,TRUE,j,j,NA,NA,NA,2,6,"3,6,14,4,15,10,11,1,8,12,5,9,7,13,2"
15455,commdev-image-keyboard-response,275,747063,learnblock1,618.8999999761581,img/planet8_left.png,8,Community 2,NA,TRUE,f,f,NA,NA,NA,2,6,"3,6,14,4,15,10,11,1,8,12,5,9,7,13,2"
15455,commdev-image-keyboard-response,276,748315,learnblock1,690.5999999642372,img/planet1_left.png,1,Community 2,NA,TRUE,f,f,NA,NA,NA,2,6,"3,6,14,4,15,10,11,1,8,12,5,9,7,13,2"
15455,commdev-image-keyboard-response,277,749568,learnblock1,620.6999999880791,img/planet11_right.png,11,Community 2,NA,TRUE,j,j,NA,NA,NA,2,6,"3,6,14,4,15,10,11,1,8,12,5,9,7,13,2"
15455,commdev-image-keyboard-response,278,750821,learnblock1,572,img/planet10_left.png,10,Community 2,NA,TRUE,f,f,NA,NA,NA,2,6,"3,6,14,4,15,10,11,1,8,12,5,9,7,13,2"
15455,commdev-image-keyboard-response,279,752075,learnblock1,567.5999999642372,img/planet11_left.png,11,Community 2,NA,TRUE,f,f,NA,NA,NA,2,6,"3,6,14,4,15,10,11,1,8,12,5,9,7,13,2"
15455,commdev-image-keyboard-response,280,753328,learnblock1,525.3000000119209,img/planet12_right.png,12,Community 2,NA,TRUE,j,j,NA,NA,NA,2,6,"3,6,14,4,15,10,11,1,8,12,5,9,7,13,2"
15455,commdev-image-keyboard-response,281,754581,learnblock1,660.3000000119209,img/planet8_left.png,8,Community 2,NA,TRUE,f,f,NA,NA,NA,2,6,"3,6,14,4,15,10,11,1,8,12,5,9,7,13,2"
15455,commdev-image-keyboard-response,282,755833,learnblock1,576,img/planet11_right.png,11,Community 2,NA,TRUE,j,j,NA,NA,NA,2,6,"3,6,14,4,15,10,11,1,8,12,5,9,7,13,2"
15455,commdev-image-keyboard-response,283,757087,learnblock1,760.5999999642372,img/planet12_right.png,12,Community 2,NA,TRUE,j,j,NA,NA,NA,2,6,"3,6,14,4,15,10,11,1,8,12,5,9,7,13,2"
15455,commdev-image-keyboard-response,284,758340,learnblock1,646.6000000238419,img/planet10_left.png,10,Community 2,NA,TRUE,f,f,NA,NA,NA,2,6,"3,6,14,4,15,10,11,1,8,12,5,9,7,13,2"
15455,commdev-image-keyboard-response,285,759594,learnblock1,546.8999999761581,img/planet11_right.png,11,Community 2,NA,TRUE,j,j,NA,NA,NA,2,6,"3,6,14,4,15,10,11,1,8,12,5,9,7,13,2"
15455,commdev-image-keyboard-response,286,760847,learnblock1,903,img/planet1_right.png,1,Community 2,NA,TRUE,j,j,NA,NA,NA,2,6,"3,6,14,4,15,10,11,1,8,12,5,9,7,13,2"
15455,commdev-image-keyboard-response,287,762099,learnblock1,689.1000000238419,img/planet8_right.png,8,Community 2,NA,TRUE,j,j,NA,NA,NA,2,6,"3,6,14,4,15,10,11,1,8,12,5,9,7,13,2"
15455,commdev-image-keyboard-response,288,763352,learnblock1,545.1999999880791,img/planet12_right.png,12,Community 2,NA,TRUE,j,j,NA,NA,NA,2,6,"3,6,14,4,15,10,11,1,8,12,5,9,7,13,2"
15455,commdev-image-keyboard-response,289,764605,learnblock1,548,img/planet1_right.png,1,Community 2,NA,TRUE,j,j,NA,NA,NA,2,6,"3,6,14,4,15,10,11,1,8,12,5,9,7,13,2"
15455,commdev-image-keyboard-response,290,765858,learnblock1,585.0999999642372,img/planet12_left.png,12,Community 2,NA,TRUE,f,f,NA,NA,NA,2,6,"3,6,14,4,15,10,11,1,8,12,5,9,7,13,2"
15455,commdev-image-keyboard-response,291,767111,learnblock1,633.4000000357628,img/planet8_left.png,8,Community 2,NA,TRUE,f,f,NA,NA,NA,2,6,"3,6,14,4,15,10,11,1,8,12,5,9,7,13,2"
15455,commdev-image-keyboard-response,292,768364,learnblock1,625.6999999880791,img/planet12_right.png,12,Community 2,NA,TRUE,j,j,NA,NA,NA,2,6,"3,6,14,4,15,10,11,1,8,12,5,9,7,13,2"
15455,commdev-image-keyboard-response,293,769617,learnblock1,814.1999999880791,img/planet10_right.png,10,Community 2,NA,TRUE,j,j,NA,NA,NA,2,6,"3,6,14,4,15,10,11,1,8,12,5,9,7,13,2"
15455,commdev-image-keyboard-response,294,770869,learnblock1,580,img/planet12_left.png,12,Community 2,NA,TRUE,f,f,NA,NA,NA,2,6,"3,6,14,4,15,10,11,1,8,12,5,9,7,13,2"
15455,commdev-image-keyboard-response,295,772122,learnblock1,567.6999999880791,img/planet8_right.png,8,Community 2,NA,TRUE,j,j,NA,NA,NA,2,6,"3,6,14,4,15,10,11,1,8,12,5,9,7,13,2"
15455,commdev-image-keyboard-response,296,773375,learnblock1,644.8000000119209,img/planet11_left.png,11,Community 2,NA,TRUE,f,f,NA,NA,NA,2,6,"3,6,14,4,15,10,11,1,8,12,5,9,7,13,2"
15455,commdev-image-keyboard-response,297,774627,learnblock1,576.5,img/planet1_left.png,1,Community 2,NA,TRUE,f,f,NA,NA,NA,2,6,"3,6,14,4,15,10,11,1,8,12,5,9,7,13,2"
15455,commdev-image-keyboard-response,298,775880,learnblock1,639.3999999761581,img/planet9_right.png,9,Community 3,NA,TRUE,j,j,NA,NA,NA,2,6,"3,6,14,4,15,10,11,1,8,12,5,9,7,13,2"
15455,commdev-image-keyboard-response,299,777133,learnblock1,589.8999999761581,img/planet2_right.png,2,Community 3,NA,TRUE,j,j,NA,NA,NA,2,6,"3,6,14,4,15,10,11,1,8,12,5,9,7,13,2"
15455,commdev-image-keyboard-response,300,778386,learnblock1,634.3999999761581,img/planet13_right.png,13,Community 3,NA,TRUE,j,j,NA,NA,NA,2,6,"3,6,14,4,15,10,11,1,8,12,5,9,7,13,2"
15455,commdev-image-keyboard-response,301,779639,learnblock1,659.5,img/planet5_left.png,5,Community 3,NA,TRUE,f,f,NA,NA,NA,2,6,"3,6,14,4,15,10,11,1,8,12,5,9,7,13,2"
15455,commdev-image-keyboard-response,302,780892,learnblock1,655.3000000119209,img/planet7_right.png,7,Community 3,NA,TRUE,j,j,NA,NA,NA,2,6,"3,6,14,4,15,10,11,1,8,12,5,9,7,13,2"
15455,commdev-image-keyboard-response,303,782145,learnblock1,567.8999999761581,img/planet2_right.png,2,Community 3,NA,TRUE,j,j,NA,NA,NA,2,6,"3,6,14,4,15,10,11,1,8,12,5,9,7,13,2"
15455,commdev-image-keyboard-response,304,783398,learnblock1,635.1000000238419,img/planet7_left.png,7,Community 3,NA,TRUE,f,f,NA,NA,NA,2,6,"3,6,14,4,15,10,11,1,8,12,5,9,7,13,2"
15455,commdev-image-keyboard-response,305,784651,learnblock1,572.8999999761581,img/planet5_left.png,5,Community 3,NA,TRUE,f,f,NA,NA,NA,2,6,"3,6,14,4,15,10,11,1,8,12,5,9,7,13,2"
15455,commdev-image-keyboard-response,306,785904,learnblock1,607.5,img/planet7_right.png,7,Community 3,NA,TRUE,j,j,NA,NA,NA,2,6,"3,6,14,4,15,10,11,1,8,12,5,9,7,13,2"
15455,commdev-image-keyboard-response,307,787158,learnblock1,529.4000000357628,img/planet2_right.png,2,Community 3,NA,TRUE,j,j,NA,NA,NA,2,6,"3,6,14,4,15,10,11,1,8,12,5,9,7,13,2"
15455,commdev-image-keyboard-response,308,788411,learnblock1,566.4000000357628,img/planet9_right.png,9,Community 3,NA,TRUE,j,j,NA,NA,NA,2,6,"3,6,14,4,15,10,11,1,8,12,5,9,7,13,2"
15455,commdev-image-keyboard-response,309,789664,learnblock1,575,img/planet1_right.png,1,Community 2,NA,TRUE,j,j,NA,NA,NA,2,6,"3,6,14,4,15,10,11,1,8,12,5,9,7,13,2"
15455,commdev-image-keyboard-response,310,790917,learnblock1,541.3000000119209,img/planet9_right.png,9,Community 3,NA,TRUE,j,j,NA,NA,NA,2,6,"3,6,14,4,15,10,11,1,8,12,5,9,7,13,2"
15455,commdev-image-keyboard-response,311,792170,learnblock1,622.8000000119209,img/planet1_left.png,1,Community 2,NA,TRUE,f,f,NA,NA,NA,2,6,"3,6,14,4,15,10,11,1,8,12,5,9,7,13,2"
15455,commdev-image-keyboard-response,312,793422,learnblock1,616.8000000119209,img/planet8_right.png,8,Community 2,NA,TRUE,j,j,NA,NA,NA,2,6,"3,6,14,4,15,10,11,1,8,12,5,9,7,13,2"
15455,commdev-image-keyboard-response,313,794674,learnblock1,650.4000000357628,img/planet11_right.png,11,Community 2,NA,TRUE,j,j,NA,NA,NA,2,6,"3,6,14,4,15,10,11,1,8,12,5,9,7,13,2"
15455,commdev-image-keyboard-response,314,795927,learnblock1,578.5,img/planet1_left.png,1,Community 2,NA,TRUE,f,f,NA,NA,NA,2,6,"3,6,14,4,15,10,11,1,8,12,5,9,7,13,2"
15455,commdev-image-keyboard-response,315,797180,learnblock1,643.0999999642372,img/planet8_left.png,8,Community 2,NA,TRUE,f,f,NA,NA,NA,2,6,"3,6,14,4,15,10,11,1,8,12,5,9,7,13,2"
15455,commdev-image-keyboard-response,316,798432,learnblock1,593.9000000357628,img/planet11_left.png,11,Community 2,NA,TRUE,f,f,NA,NA,NA,2,6,"3,6,14,4,15,10,11,1,8,12,5,9,7,13,2"
15455,commdev-image-keyboard-response,317,799686,learnblock1,564.1999999880791,img/planet12_left.png,12,Community 2,NA,TRUE,f,f,NA,NA,NA,2,6,"3,6,14,4,15,10,11,1,8,12,5,9,7,13,2"
15455,commdev-image-keyboard-response,318,800938,learnblock1,539,img/planet1_left.png,1,Community 2,NA,TRUE,f,f,NA,NA,NA,2,6,"3,6,14,4,15,10,11,1,8,12,5,9,7,13,2"
15455,commdev-image-keyboard-response,319,802191,learnblock1,558.8999999761581,img/planet11_left.png,11,Community 2,NA,TRUE,f,f,NA,NA,NA,2,6,"3,6,14,4,15,10,11,1,8,12,5,9,7,13,2"
15455,commdev-image-keyboard-response,320,803444,learnblock1,537.6999999880791,img/planet10_left.png,10,Community 2,NA,TRUE,f,f,NA,NA,NA,2,6,"3,6,14,4,15,10,11,1,8,12,5,9,7,13,2"
15455,commdev-image-keyboard-response,321,804696,learnblock1,462.2999999523163,img/planet8_right.png,8,Community 2,NA,FALSE,f,j,NA,NA,NA,2,6,"3,6,14,4,15,10,11,1,8,12,5,9,7,13,2"
15455,commdev-image-keyboard-response,322,805949,learnblock1,651.1999999880791,img/planet12_left.png,12,Community 2,NA,TRUE,f,f,NA,NA,NA,2,6,"3,6,14,4,15,10,11,1,8,12,5,9,7,13,2"
15455,commdev-image-keyboard-response,323,807202,learnblock1,726,img/planet1_left.png,1,Community 2,NA,TRUE,f,f,NA,NA,NA,2,6,"3,6,14,4,15,10,11,1,8,12,5,9,7,13,2"
15455,commdev-image-keyboard-response,324,808455,learnblock1,567.3000000119209,img/planet8_right.png,8,Community 2,NA,TRUE,j,j,NA,NA,NA,2,6,"3,6,14,4,15,10,11,1,8,12,5,9,7,13,2"
15455,commdev-image-keyboard-response,325,809708,learnblock1,469.10000002384186,img/planet10_left.png,10,Community 2,NA,TRUE,f,f,NA,NA,NA,2,6,"3,6,14,4,15,10,11,1,8,12,5,9,7,13,2"
15455,commdev-image-keyboard-response,326,810961,learnblock1,534.1999999880791,img/planet12_right.png,12,Community 2,NA,TRUE,j,j,NA,NA,NA,2,6,"3,6,14,4,15,10,11,1,8,12,5,9,7,13,2"
15455,commdev-image-keyboard-response,327,812214,learnblock1,614.1999999880791,img/planet8_right.png,8,Community 2,NA,TRUE,j,j,NA,NA,NA,2,6,"3,6,14,4,15,10,11,1,8,12,5,9,7,13,2"
15455,commdev-image-keyboard-response,328,813467,learnblock1,635.1000000238419,img/planet11_right.png,11,Community 2,NA,TRUE,j,j,NA,NA,NA,2,6,"3,6,14,4,15,10,11,1,8,12,5,9,7,13,2"
15455,commdev-image-keyboard-response,329,814719,learnblock1,570.8999999761581,img/planet1_right.png,1,Community 2,NA,TRUE,j,j,NA,NA,NA,2,6,"3,6,14,4,15,10,11,1,8,12,5,9,7,13,2"
15455,commdev-image-keyboard-response,330,815972,learnblock1,626.1999999880791,img/planet9_right.png,9,Community 3,NA,TRUE,j,j,NA,NA,NA,2,6,"3,6,14,4,15,10,11,1,8,12,5,9,7,13,2"
15455,commdev-image-keyboard-response,331,817225,learnblock1,600.8999999761581,img/planet13_left.png,13,Community 3,NA,TRUE,f,f,NA,NA,NA,2,6,"3,6,14,4,15,10,11,1,8,12,5,9,7,13,2"
15455,commdev-image-keyboard-response,332,818478,learnblock1,506.69999998807907,img/planet2_right.png,2,Community 3,NA,TRUE,j,j,NA,NA,NA,2,6,"3,6,14,4,15,10,11,1,8,12,5,9,7,13,2"
15455,commdev-image-keyboard-response,333,819731,learnblock1,588.3999999761581,img/planet5_left.png,5,Community 3,NA,TRUE,f,f,NA,NA,NA,2,6,"3,6,14,4,15,10,11,1,8,12,5,9,7,13,2"
15455,commdev-image-keyboard-response,334,820983,learnblock1,542,img/planet7_right.png,7,Community 3,NA,TRUE,j,j,NA,NA,NA,2,6,"3,6,14,4,15,10,11,1,8,12,5,9,7,13,2"
15455,commdev-image-keyboard-response,335,822236,learnblock1,710.1999999880791,img/planet9_right.png,9,Community 3,NA,TRUE,j,j,NA,NA,NA,2,6,"3,6,14,4,15,10,11,1,8,12,5,9,7,13,2"
15455,commdev-image-keyboard-response,336,823489,learnblock1,556.5,img/planet13_left.png,13,Community 3,NA,TRUE,f,f,NA,NA,NA,2,6,"3,6,14,4,15,10,11,1,8,12,5,9,7,13,2"
15455,commdev-image-keyboard-response,337,824742,learnblock1,561.3999999761581,img/planet7_right.png,7,Community 3,NA,TRUE,j,j,NA,NA,NA,2,6,"3,6,14,4,15,10,11,1,8,12,5,9,7,13,2"
15455,commdev-image-keyboard-response,338,825995,learnblock1,671,img/planet2_right.png,2,Community 3,NA,TRUE,j,j,NA,NA,NA,2,6,"3,6,14,4,15,10,11,1,8,12,5,9,7,13,2"
15455,commdev-image-keyboard-response,339,827248,learnblock1,641.3999999761581,img/planet13_left.png,13,Community 3,NA,TRUE,f,f,NA,NA,NA,2,6,"3,6,14,4,15,10,11,1,8,12,5,9,7,13,2"
15455,commdev-image-keyboard-response,340,828502,learnblock1,682.5999999642372,img/planet9_right.png,9,Community 3,NA,TRUE,j,j,NA,NA,NA,2,6,"3,6,14,4,15,10,11,1,8,12,5,9,7,13,2"
15455,commdev-image-keyboard-response,341,829754,learnblock1,808.3000000119209,img/planet1_left.png,1,Community 2,NA,TRUE,f,f,NA,NA,NA,2,6,"3,6,14,4,15,10,11,1,8,12,5,9,7,13,2"
15455,commdev-image-keyboard-response,342,831006,learnblock1,655.7999999523163,img/planet9_right.png,9,Community 3,NA,TRUE,j,j,NA,NA,NA,2,6,"3,6,14,4,15,10,11,1,8,12,5,9,7,13,2"
15455,commdev-image-keyboard-response,343,832259,learnblock1,750.3000000119209,img/planet7_left.png,7,Community 3,NA,TRUE,f,f,NA,NA,NA,2,6,"3,6,14,4,15,10,11,1,8,12,5,9,7,13,2"
15455,commdev-image-keyboard-response,344,833512,learnblock1,642.1999999880791,img/planet5_left.png,5,Community 3,NA,TRUE,f,f,NA,NA,NA,2,6,"3,6,14,4,15,10,11,1,8,12,5,9,7,13,2"
15455,commdev-image-keyboard-response,345,834765,learnblock1,526.3000000119209,img/planet2_left.png,2,Community 3,NA,TRUE,f,f,NA,NA,NA,2,6,"3,6,14,4,15,10,11,1,8,12,5,9,7,13,2"
15455,commdev-image-keyboard-response,346,836017,learnblock1,521.2000000476837,img/planet5_left.png,5,Community 3,NA,TRUE,f,f,NA,NA,NA,2,6,"3,6,14,4,15,10,11,1,8,12,5,9,7,13,2"
15455,commdev-image-keyboard-response,347,837269,learnblock1,636.2000000476837,img/planet7_right.png,7,Community 3,NA,TRUE,j,j,NA,NA,NA,2,6,"3,6,14,4,15,10,11,1,8,12,5,9,7,13,2"
15455,commdev-image-keyboard-response,348,838522,learnblock1,619.6000000238419,img/planet2_left.png,2,Community 3,NA,FALSE,j,f,NA,NA,NA,2,6,"3,6,14,4,15,10,11,1,8,12,5,9,7,13,2"
15455,commdev-image-keyboard-response,349,839774,learnblock1,529.3000000119209,img/planet7_right.png,7,Community 3,NA,TRUE,j,j,NA,NA,NA,2,6,"3,6,14,4,15,10,11,1,8,12,5,9,7,13,2"
15455,commdev-image-keyboard-response,350,841027,learnblock1,531.8000000119209,img/planet13_right.png,13,Community 3,NA,TRUE,j,j,NA,NA,NA,2,6,"3,6,14,4,15,10,11,1,8,12,5,9,7,13,2"
15455,commdev-image-keyboard-response,351,842280,learnblock1,658.5,img/planet7_left.png,7,Community 3,NA,TRUE,f,f,NA,NA,NA,2,6,"3,6,14,4,15,10,11,1,8,12,5,9,7,13,2"
15455,commdev-image-keyboard-response,352,843533,learnblock1,684.3000000119209,img/planet9_left.png,9,Community 3,NA,TRUE,f,f,NA,NA,NA,2,6,"3,6,14,4,15,10,11,1,8,12,5,9,7,13,2"
15455,commdev-image-keyboard-response,353,844786,learnblock1,587.3000000119209,img/planet1_right.png,1,Community 2,NA,TRUE,j,j,NA,NA,NA,2,6,"3,6,14,4,15,10,11,1,8,12,5,9,7,13,2"
15455,commdev-image-keyboard-response,354,846040,learnblock1,815.3999999761581,img/planet12_left.png,12,Community 2,NA,TRUE,f,f,NA,NA,NA,2,6,"3,6,14,4,15,10,11,1,8,12,5,9,7,13,2"
15455,commdev-image-keyboard-response,355,847293,learnblock1,563.3999999761581,img/planet8_right.png,8,Community 2,NA,TRUE,j,j,NA,NA,NA,2,6,"3,6,14,4,15,10,11,1,8,12,5,9,7,13,2"
15455,commdev-image-keyboard-response,356,848547,learnblock1,626.3999999761581,img/planet1_right.png,1,Community 2,NA,TRUE,j,j,NA,NA,NA,2,6,"3,6,14,4,15,10,11,1,8,12,5,9,7,13,2"
15455,commdev-image-keyboard-response,357,849800,learnblock1,709.3000000119209,img/planet8_left.png,8,Community 2,NA,TRUE,f,f,NA,NA,NA,2,6,"3,6,14,4,15,10,11,1,8,12,5,9,7,13,2"
15455,commdev-image-keyboard-response,358,851052,learnblock1,707.6999999880791,img/planet11_right.png,11,Community 2,NA,TRUE,j,j,NA,NA,NA,2,6,"3,6,14,4,15,10,11,1,8,12,5,9,7,13,2"
15455,commdev-image-keyboard-response,359,852305,learnblock1,661.2999999523163,img/planet1_right.png,1,Community 2,NA,TRUE,j,j,NA,NA,NA,2,6,"3,6,14,4,15,10,11,1,8,12,5,9,7,13,2"
15455,commdev-image-keyboard-response,360,853558,learnblock1,703.8000000119209,img/planet11_right.png,11,Community 2,NA,TRUE,j,j,NA,NA,NA,2,6,"3,6,14,4,15,10,11,1,8,12,5,9,7,13,2"
15455,commdev-image-keyboard-response,361,854811,learnblock1,728.8000000119209,img/planet8_right.png,8,Community 2,NA,TRUE,j,j,NA,NA,NA,2,6,"3,6,14,4,15,10,11,1,8,12,5,9,7,13,2"
15455,commdev-image-keyboard-response,362,856064,learnblock1,688.1999999880791,img/planet11_right.png,11,Community 2,NA,TRUE,j,j,NA,NA,NA,2,6,"3,6,14,4,15,10,11,1,8,12,5,9,7,13,2"
15455,commdev-image-keyboard-response,363,857317,learnblock1,688.5,img/planet12_left.png,12,Community 2,NA,TRUE,f,f,NA,NA,NA,2,6,"3,6,14,4,15,10,11,1,8,12,5,9,7,13,2"
15455,commdev-image-keyboard-response,364,858570,learnblock1,594.5,img/planet1_right.png,1,Community 2,NA,TRUE,j,j,NA,NA,NA,2,6,"3,6,14,4,15,10,11,1,8,12,5,9,7,13,2"
15455,commdev-image-keyboard-response,365,859823,learnblock1,689.6000000238419,img/planet11_left.png,11,Community 2,NA,TRUE,f,f,NA,NA,NA,2,6,"3,6,14,4,15,10,11,1,8,12,5,9,7,13,2"
15455,commdev-image-keyboard-response,366,861076,learnblock1,654.1999999880791,img/planet8_left.png,8,Community 2,NA,TRUE,f,f,NA,NA,NA,2,6,"3,6,14,4,15,10,11,1,8,12,5,9,7,13,2"
15455,commdev-image-keyboard-response,367,862329,learnblock1,703.1000000238419,img/planet11_right.png,11,Community 2,NA,TRUE,j,j,NA,NA,NA,2,6,"3,6,14,4,15,10,11,1,8,12,5,9,7,13,2"
15455,commdev-image-keyboard-response,368,863583,learnblock1,697.8000000119209,img/planet12_right.png,12,Community 2,NA,TRUE,j,j,NA,NA,NA,2,6,"3,6,14,4,15,10,11,1,8,12,5,9,7,13,2"
15455,commdev-image-keyboard-response,369,864835,learnblock1,680.2999999523163,img/planet1_left.png,1,Community 2,NA,TRUE,f,f,NA,NA,NA,2,6,"3,6,14,4,15,10,11,1,8,12,5,9,7,13,2"
15455,commdev-image-keyboard-response,370,866088,learnblock1,619.2000000476837,img/planet12_left.png,12,Community 2,NA,TRUE,f,f,NA,NA,NA,2,6,"3,6,14,4,15,10,11,1,8,12,5,9,7,13,2"
15455,commdev-image-keyboard-response,371,867341,learnblock1,689.0999999642372,img/planet8_right.png,8,Community 2,NA,TRUE,j,j,NA,NA,NA,2,6,"3,6,14,4,15,10,11,1,8,12,5,9,7,13,2"
15455,commdev-image-keyboard-response,372,868594,learnblock1,779.9000000357628,img/planet12_right.png,12,Community 2,NA,TRUE,j,j,NA,NA,NA,2,6,"3,6,14,4,15,10,11,1,8,12,5,9,7,13,2"
15455,commdev-image-keyboard-response,373,869848,learnblock1,659.1000000238419,img/planet8_right.png,8,Community 2,NA,TRUE,j,j,NA,NA,NA,2,6,"3,6,14,4,15,10,11,1,8,12,5,9,7,13,2"
15455,commdev-image-keyboard-response,374,871101,learnblock1,718.1000000238419,img/planet12_left.png,12,Community 2,NA,TRUE,f,f,NA,NA,NA,2,6,"3,6,14,4,15,10,11,1,8,12,5,9,7,13,2"
15455,commdev-image-keyboard-response,375,872354,learnblock1,655,img/planet11_left.png,11,Community 2,NA,TRUE,f,f,NA,NA,NA,2,6,"3,6,14,4,15,10,11,1,8,12,5,9,7,13,2"
15455,commdev-image-keyboard-response,376,873607,learnblock1,569.7999999523163,img/planet1_right.png,1,Community 2,NA,TRUE,j,j,NA,NA,NA,2,6,"3,6,14,4,15,10,11,1,8,12,5,9,7,13,2"
15455,commdev-image-keyboard-response,377,874859,learnblock1,824.8000000119209,img/planet11_right.png,11,Community 2,NA,TRUE,j,j,NA,NA,NA,2,6,"3,6,14,4,15,10,11,1,8,12,5,9,7,13,2"
15455,commdev-image-keyboard-response,378,876111,learnblock1,581.6999999880791,img/planet10_left.png,10,Community 2,NA,TRUE,f,f,NA,NA,NA,2,6,"3,6,14,4,15,10,11,1,8,12,5,9,7,13,2"
15455,commdev-image-keyboard-response,379,877364,learnblock1,549.3999999761581,img/planet4_right.png,4,Community 1,NA,TRUE,j,j,NA,NA,NA,2,6,"3,6,14,4,15,10,11,1,8,12,5,9,7,13,2"
15455,commdev-image-keyboard-response,380,878618,learnblock1,713.6000000238419,img/planet6_right.png,6,Community 1,NA,TRUE,j,j,NA,NA,NA,2,6,"3,6,14,4,15,10,11,1,8,12,5,9,7,13,2"
15455,commdev-image-keyboard-response,381,879871,learnblock1,786.5,img/planet3_left.png,3,Community 1,NA,TRUE,f,f,NA,NA,NA,2,6,"3,6,14,4,15,10,11,1,8,12,5,9,7,13,2"
15455,commdev-image-keyboard-response,382,881124,learnblock1,546.5,img/planet14_left.png,14,Community 1,NA,TRUE,f,f,NA,NA,NA,2,6,"3,6,14,4,15,10,11,1,8,12,5,9,7,13,2"
15455,commdev-image-keyboard-response,383,882377,learnblock1,611.5,img/planet4_right.png,4,Community 1,NA,TRUE,j,j,NA,NA,NA,2,6,"3,6,14,4,15,10,11,1,8,12,5,9,7,13,2"
15455,commdev-image-keyboard-response,384,883629,learnblock1,601.1999999880791,img/planet10_left.png,10,Community 2,NA,TRUE,f,f,NA,NA,NA,2,6,"3,6,14,4,15,10,11,1,8,12,5,9,7,13,2"
15455,commdev-image-keyboard-response,385,884883,learnblock1,609.5999999642372,img/planet11_left.png,11,Community 2,NA,TRUE,f,f,NA,NA,NA,2,6,"3,6,14,4,15,10,11,1,8,12,5,9,7,13,2"
15455,commdev-image-keyboard-response,386,886135,learnblock1,564.0999999642372,img/planet1_right.png,1,Community 2,NA,TRUE,j,j,NA,NA,NA,2,6,"3,6,14,4,15,10,11,1,8,12,5,9,7,13,2"
15455,commdev-image-keyboard-response,387,887387,learnblock1,591.7999999523163,img/planet11_right.png,11,Community 2,NA,TRUE,j,j,NA,NA,NA,2,6,"3,6,14,4,15,10,11,1,8,12,5,9,7,13,2"
15455,commdev-image-keyboard-response,388,888641,learnblock1,596.5999999642372,img/planet1_right.png,1,Community 2,NA,TRUE,j,j,NA,NA,NA,2,6,"3,6,14,4,15,10,11,1,8,12,5,9,7,13,2"
15455,commdev-image-keyboard-response,389,889894,learnblock1,642.3999999761581,img/planet8_left.png,8,Community 2,NA,TRUE,f,f,NA,NA,NA,2,6,"3,6,14,4,15,10,11,1,8,12,5,9,7,13,2"
15455,commdev-image-keyboard-response,390,891146,learnblock1,564.3999999761581,img/planet11_left.png,11,Community 2,NA,TRUE,f,f,NA,NA,NA,2,6,"3,6,14,4,15,10,11,1,8,12,5,9,7,13,2"
15455,commdev-image-keyboard-response,391,892398,learnblock1,526.5999999642372,img/planet12_left.png,12,Community 2,NA,TRUE,f,f,NA,NA,NA,2,6,"3,6,14,4,15,10,11,1,8,12,5,9,7,13,2"
15455,commdev-image-keyboard-response,392,893651,learnblock1,628,img/planet11_right.png,11,Community 2,NA,TRUE,j,j,NA,NA,NA,2,6,"3,6,14,4,15,10,11,1,8,12,5,9,7,13,2"
15455,commdev-image-keyboard-response,393,894904,learnblock1,597,img/planet10_left.png,10,Community 2,NA,TRUE,f,f,NA,NA,NA,2,6,"3,6,14,4,15,10,11,1,8,12,5,9,7,13,2"
15455,commdev-image-keyboard-response,394,896156,learnblock1,530.5,img/planet4_right.png,4,Community 1,NA,TRUE,j,j,NA,NA,NA,2,6,"3,6,14,4,15,10,11,1,8,12,5,9,7,13,2"
15455,commdev-image-keyboard-response,395,897409,learnblock1,818.3999999761581,img/planet14_left.png,14,Community 1,NA,TRUE,f,f,NA,NA,NA,2,6,"3,6,14,4,15,10,11,1,8,12,5,9,7,13,2"
15455,commdev-image-keyboard-response,396,898663,learnblock1,641.0999999642372,img/planet3_right.png,3,Community 1,NA,TRUE,j,j,NA,NA,NA,2,6,"3,6,14,4,15,10,11,1,8,12,5,9,7,13,2"
15455,commdev-image-keyboard-response,397,899916,learnblock1,701.8999999761581,img/planet14_right.png,14,Community 1,NA,FALSE,f,j,NA,NA,NA,2,6,"3,6,14,4,15,10,11,1,8,12,5,9,7,13,2"
15455,commdev-image-keyboard-response,398,901169,learnblock1,636.9000000357628,img/planet6_left.png,6,Community 1,NA,FALSE,j,f,NA,NA,NA,2,6,"3,6,14,4,15,10,11,1,8,12,5,9,7,13,2"
15455,commdev-image-keyboard-response,399,902422,learnblock1,543.5999999642372,img/planet4_left.png,4,Community 1,NA,TRUE,f,f,NA,NA,NA,2,6,"3,6,14,4,15,10,11,1,8,12,5,9,7,13,2"
15455,commdev-image-keyboard-response,400,903675,learnblock1,516.3000000119209,img/planet14_right.png,14,Community 1,NA,TRUE,j,j,NA,NA,NA,2,6,"3,6,14,4,15,10,11,1,8,12,5,9,7,13,2"
15455,commdev-image-keyboard-response,401,904928,learnblock1,598.6999999880791,img/planet3_left.png,3,Community 1,NA,TRUE,f,f,NA,NA,NA,2,6,"3,6,14,4,15,10,11,1,8,12,5,9,7,13,2"
15455,commdev-image-keyboard-response,402,906182,learnblock1,643.8000000119209,img/planet14_left.png,14,Community 1,NA,FALSE,j,f,NA,NA,NA,2,6,"3,6,14,4,15,10,11,1,8,12,5,9,7,13,2"
15455,commdev-image-keyboard-response,403,907434,learnblock1,744,img/planet4_left.png,4,Community 1,NA,TRUE,f,f,NA,NA,NA,2,6,"3,6,14,4,15,10,11,1,8,12,5,9,7,13,2"
15455,commdev-image-keyboard-response,404,908687,learnblock1,543.3999999761581,img/planet10_right.png,10,Community 2,NA,TRUE,j,j,NA,NA,NA,2,6,"3,6,14,4,15,10,11,1,8,12,5,9,7,13,2"
15455,commdev-image-keyboard-response,405,909940,learnblock1,570.9000000357628,img/planet11_right.png,11,Community 2,NA,TRUE,j,j,NA,NA,NA,2,6,"3,6,14,4,15,10,11,1,8,12,5,9,7,13,2"
15455,commdev-image-keyboard-response,406,911194,learnblock1,476.89999997615814,img/planet1_right.png,1,Community 2,NA,TRUE,j,j,NA,NA,NA,2,6,"3,6,14,4,15,10,11,1,8,12,5,9,7,13,2"
15455,commdev-image-keyboard-response,407,912447,learnblock1,644,img/planet11_left.png,11,Community 2,NA,TRUE,f,f,NA,NA,NA,2,6,"3,6,14,4,15,10,11,1,8,12,5,9,7,13,2"
15455,commdev-image-keyboard-response,408,913700,learnblock1,576.2999999523163,img/planet1_right.png,1,Community 2,NA,TRUE,j,j,NA,NA,NA,2,6,"3,6,14,4,15,10,11,1,8,12,5,9,7,13,2"
15455,commdev-image-keyboard-response,409,914953,learnblock1,560.8999999761581,img/planet9_left.png,9,Community 3,NA,TRUE,f,f,NA,NA,NA,2,6,"3,6,14,4,15,10,11,1,8,12,5,9,7,13,2"
15455,commdev-image-keyboard-response,410,916206,learnblock1,574.5,img/planet1_right.png,1,Community 2,NA,TRUE,j,j,NA,NA,NA,2,6,"3,6,14,4,15,10,11,1,8,12,5,9,7,13,2"
15455,commdev-image-keyboard-response,411,917459,learnblock1,642.1999999880791,img/planet11_right.png,11,Community 2,NA,TRUE,j,j,NA,NA,NA,2,6,"3,6,14,4,15,10,11,1,8,12,5,9,7,13,2"
15455,commdev-image-keyboard-response,412,918712,learnblock1,581.8999999761581,img/planet8_right.png,8,Community 2,NA,TRUE,j,j,NA,NA,NA,2,6,"3,6,14,4,15,10,11,1,8,12,5,9,7,13,2"
15455,commdev-image-keyboard-response,413,919966,learnblock1,568.1999999880791,img/planet12_right.png,12,Community 2,NA,TRUE,j,j,NA,NA,NA,2,6,"3,6,14,4,15,10,11,1,8,12,5,9,7,13,2"
15455,commdev-image-keyboard-response,414,921218,learnblock1,619,img/planet8_left.png,8,Community 2,NA,TRUE,f,f,NA,NA,NA,2,6,"3,6,14,4,15,10,11,1,8,12,5,9,7,13,2"
15455,commdev-image-keyboard-response,415,922471,learnblock1,547.6000000238419,img/planet10_right.png,10,Community 2,NA,TRUE,j,j,NA,NA,NA,2,6,"3,6,14,4,15,10,11,1,8,12,5,9,7,13,2"
15455,commdev-image-keyboard-response,416,923723,learnblock1,660.8000000119209,img/planet4_left.png,4,Community 1,NA,TRUE,f,f,NA,NA,NA,2,6,"3,6,14,4,15,10,11,1,8,12,5,9,7,13,2"
15455,commdev-image-keyboard-response,417,924976,learnblock1,660.3000000119209,img/planet14_left.png,14,Community 1,NA,TRUE,f,f,NA,NA,NA,2,6,"3,6,14,4,15,10,11,1,8,12,5,9,7,13,2"
15455,commdev-image-keyboard-response,418,926228,learnblock1,648.2000000476837,img/planet4_right.png,4,Community 1,NA,TRUE,j,j,NA,NA,NA,2,6,"3,6,14,4,15,10,11,1,8,12,5,9,7,13,2"
15455,commdev-image-keyboard-response,419,927481,learnblock1,604.6000000238419,img/planet3_right.png,3,Community 1,NA,TRUE,j,j,NA,NA,NA,2,6,"3,6,14,4,15,10,11,1,8,12,5,9,7,13,2"
15455,commdev-image-keyboard-response,420,928735,learnblock1,596.3000000119209,img/planet6_left.png,6,Community 1,NA,TRUE,f,f,NA,NA,NA,2,6,"3,6,14,4,15,10,11,1,8,12,5,9,7,13,2"
15455,commdev-image-keyboard-response,421,929988,learnblock1,592.5,img/planet14_left.png,14,Community 1,NA,TRUE,f,f,NA,NA,NA,2,6,"3,6,14,4,15,10,11,1,8,12,5,9,7,13,2"
15455,commdev-image-keyboard-response,422,931241,learnblock1,599.6000000238419,img/planet3_left.png,3,Community 1,NA,TRUE,f,f,NA,NA,NA,2,6,"3,6,14,4,15,10,11,1,8,12,5,9,7,13,2"
15455,commdev-image-keyboard-response,423,932493,learnblock1,576.3000000119209,img/planet6_left.png,6,Community 1,NA,TRUE,f,f,NA,NA,NA,2,6,"3,6,14,4,15,10,11,1,8,12,5,9,7,13,2"
15455,commdev-image-keyboard-response,424,933746,learnblock1,616.5,img/planet3_right.png,3,Community 1,NA,TRUE,j,j,NA,NA,NA,2,6,"3,6,14,4,15,10,11,1,8,12,5,9,7,13,2"
15455,commdev-image-keyboard-response,425,934999,learnblock1,671.3999999761581,img/planet4_left.png,4,Community 1,NA,TRUE,f,f,NA,NA,NA,2,6,"3,6,14,4,15,10,11,1,8,12,5,9,7,13,2"
15455,commdev-image-keyboard-response,426,936252,learnblock1,663.8000000119209,img/planet10_right.png,10,Community 2,NA,FALSE,f,j,NA,NA,NA,2,6,"3,6,14,4,15,10,11,1,8,12,5,9,7,13,2"
15455,commdev-image-keyboard-response,427,937505,learnblock1,598,img/planet12_right.png,12,Community 2,NA,TRUE,j,j,NA,NA,NA,2,6,"3,6,14,4,15,10,11,1,8,12,5,9,7,13,2"
15455,commdev-image-keyboard-response,428,938759,learnblock1,590.8000000119209,img/planet11_left.png,11,Community 2,NA,TRUE,f,f,NA,NA,NA,2,6,"3,6,14,4,15,10,11,1,8,12,5,9,7,13,2"
15455,commdev-image-keyboard-response,429,940011,learnblock1,592,img/planet8_right.png,8,Community 2,NA,TRUE,j,j,NA,NA,NA,2,6,"3,6,14,4,15,10,11,1,8,12,5,9,7,13,2"
15455,commdev-image-keyboard-response,430,941264,learnblock1,594.9000000357628,img/planet11_left.png,11,Community 2,NA,TRUE,f,f,NA,NA,NA,2,6,"3,6,14,4,15,10,11,1,8,12,5,9,7,13,2"
15455,commdev-image-keyboard-response,431,942517,learnblock1,636.7000000476837,img/planet8_left.png,8,Community 2,NA,TRUE,f,f,NA,NA,NA,2,6,"3,6,14,4,15,10,11,1,8,12,5,9,7,13,2"
15455,commdev-image-keyboard-response,432,943770,learnblock1,616.2000000476837,img/planet12_right.png,12,Community 2,NA,TRUE,j,j,NA,NA,NA,2,6,"3,6,14,4,15,10,11,1,8,12,5,9,7,13,2"
15455,commdev-image-keyboard-response,433,945023,learnblock1,556.5999999642372,img/planet11_left.png,11,Community 2,NA,TRUE,f,f,NA,NA,NA,2,6,"3,6,14,4,15,10,11,1,8,12,5,9,7,13,2"
15455,commdev-image-keyboard-response,434,946276,learnblock1,477.30000001192093,img/planet8_right.png,8,Community 2,NA,TRUE,j,j,NA,NA,NA,2,6,"3,6,14,4,15,10,11,1,8,12,5,9,7,13,2"
15455,commdev-image-keyboard-response,435,947530,learnblock1,411.69999998807907,img/planet11_right.png,11,Community 2,NA,FALSE,f,j,NA,NA,NA,2,6,"3,6,14,4,15,10,11,1,8,12,5,9,7,13,2"
15455,commdev-image-keyboard-response,436,948783,learnblock1,546.1999999880791,img/planet1_left.png,1,Community 2,NA,TRUE,f,f,NA,NA,NA,2,6,"3,6,14,4,15,10,11,1,8,12,5,9,7,13,2"
15455,commdev-image-keyboard-response,437,950036,learnblock1,670.8000000119209,img/planet8_left.png,8,Community 2,NA,TRUE,f,f,NA,NA,NA,2,6,"3,6,14,4,15,10,11,1,8,12,5,9,7,13,2"
15455,commdev-image-keyboard-response,438,951289,learnblock1,606.3999999761581,img/planet12_right.png,12,Community 2,NA,TRUE,j,j,NA,NA,NA,2,6,"3,6,14,4,15,10,11,1,8,12,5,9,7,13,2"
15455,commdev-image-keyboard-response,439,952543,learnblock1,622.5,img/planet8_left.png,8,Community 2,NA,TRUE,f,f,NA,NA,NA,2,6,"3,6,14,4,15,10,11,1,8,12,5,9,7,13,2"
15455,commdev-image-keyboard-response,440,953796,learnblock1,591.5999999642372,img/planet1_right.png,1,Community 2,NA,TRUE,j,j,NA,NA,NA,2,6,"3,6,14,4,15,10,11,1,8,12,5,9,7,13,2"
15455,commdev-image-keyboard-response,441,955049,learnblock1,634.8000000119209,img/planet12_left.png,12,Community 2,NA,TRUE,f,f,NA,NA,NA,2,6,"3,6,14,4,15,10,11,1,8,12,5,9,7,13,2"
15455,commdev-image-keyboard-response,442,956302,learnblock1,553.8000000119209,img/planet10_left.png,10,Community 2,NA,TRUE,f,f,NA,NA,NA,2,6,"3,6,14,4,15,10,11,1,8,12,5,9,7,13,2"
15455,commdev-image-keyboard-response,443,957554,learnblock1,580.8000000119209,img/planet12_right.png,12,Community 2,NA,TRUE,j,j,NA,NA,NA,2,6,"3,6,14,4,15,10,11,1,8,12,5,9,7,13,2"
15455,commdev-image-keyboard-response,444,958808,learnblock1,683.0999999642372,img/planet10_left.png,10,Community 2,NA,TRUE,f,f,NA,NA,NA,2,6,"3,6,14,4,15,10,11,1,8,12,5,9,7,13,2"
15455,commdev-image-keyboard-response,445,960060,learnblock1,773.3000000119209,img/planet11_left.png,11,Community 2,NA,TRUE,f,f,NA,NA,NA,2,6,"3,6,14,4,15,10,11,1,8,12,5,9,7,13,2"
15455,commdev-image-keyboard-response,446,961312,learnblock1,718.5999999642372,img/planet10_left.png,10,Community 2,NA,TRUE,f,f,NA,NA,NA,2,6,"3,6,14,4,15,10,11,1,8,12,5,9,7,13,2"
15455,commdev-image-keyboard-response,447,962565,learnblock1,614.5999999642372,img/planet4_right.png,4,Community 1,NA,TRUE,j,j,NA,NA,NA,2,6,"3,6,14,4,15,10,11,1,8,12,5,9,7,13,2"
15455,commdev-image-keyboard-response,448,963818,learnblock1,620.8000000119209,img/planet14_right.png,14,Community 1,NA,TRUE,j,j,NA,NA,NA,2,6,"3,6,14,4,15,10,11,1,8,12,5,9,7,13,2"
15455,commdev-image-keyboard-response,449,965071,learnblock1,582.3999999761581,img/planet6_right.png,6,Community 1,NA,TRUE,j,j,NA,NA,NA,2,6,"3,6,14,4,15,10,11,1,8,12,5,9,7,13,2"
15455,commdev-image-keyboard-response,450,966325,learnblock1,757.3000000119209,img/planet15_left.png,15,Community 1,NA,FALSE,j,f,NA,NA,NA,2,6,"3,6,14,4,15,10,11,1,8,12,5,9,7,13,2"
15455,commdev-image-keyboard-response,451,967579,learnblock1,704.8999999761581,img/planet3_right.png,3,Community 1,NA,TRUE,j,j,NA,NA,NA,2,6,"3,6,14,4,15,10,11,1,8,12,5,9,7,13,2"
15455,commdev-image-keyboard-response,452,968832,learnblock1,655.1000000238419,img/planet14_right.png,14,Community 1,NA,TRUE,j,j,NA,NA,NA,2,6,"3,6,14,4,15,10,11,1,8,12,5,9,7,13,2"
15455,commdev-image-keyboard-response,453,970085,learnblock1,657.8000000119209,img/planet15_right.png,15,Community 1,NA,TRUE,j,j,NA,NA,NA,2,6,"3,6,14,4,15,10,11,1,8,12,5,9,7,13,2"
15455,commdev-image-keyboard-response,454,971337,learnblock1,595.3000000119209,img/planet6_right.png,6,Community 1,NA,TRUE,j,j,NA,NA,NA,2,6,"3,6,14,4,15,10,11,1,8,12,5,9,7,13,2"
15455,commdev-image-keyboard-response,455,972590,learnblock1,617.7000000476837,img/planet3_right.png,3,Community 1,NA,TRUE,j,j,NA,NA,NA,2,6,"3,6,14,4,15,10,11,1,8,12,5,9,7,13,2"
15455,commdev-image-keyboard-response,456,973843,learnblock1,538.8000000119209,img/planet6_left.png,6,Community 1,NA,TRUE,f,f,NA,NA,NA,2,6,"3,6,14,4,15,10,11,1,8,12,5,9,7,13,2"
15455,commdev-image-keyboard-response,457,975097,learnblock1,640.5999999642372,img/planet14_left.png,14,Community 1,NA,TRUE,f,f,NA,NA,NA,2,6,"3,6,14,4,15,10,11,1,8,12,5,9,7,13,2"
15455,commdev-image-keyboard-response,458,976349,learnblock1,674.8000000119209,img/planet3_right.png,3,Community 1,NA,TRUE,j,j,NA,NA,NA,2,6,"3,6,14,4,15,10,11,1,8,12,5,9,7,13,2"
15455,commdev-image-keyboard-response,459,977603,learnblock1,621.8000000119209,img/planet15_right.png,15,Community 1,NA,TRUE,j,j,NA,NA,NA,2,6,"3,6,14,4,15,10,11,1,8,12,5,9,7,13,2"
15455,commdev-image-keyboard-response,460,978856,learnblock1,778.6000000238419,img/planet6_left.png,6,Community 1,NA,TRUE,f,f,NA,NA,NA,2,6,"3,6,14,4,15,10,11,1,8,12,5,9,7,13,2"
15455,commdev-image-keyboard-response,461,980108,learnblock1,806.8000000119209,img/planet14_left.png,14,Community 1,NA,TRUE,f,f,NA,NA,NA,2,6,"3,6,14,4,15,10,11,1,8,12,5,9,7,13,2"
15455,commdev-image-keyboard-response,462,981361,learnblock1,750.9000000357628,img/planet15_left.png,15,Community 1,NA,TRUE,f,f,NA,NA,NA,2,6,"3,6,14,4,15,10,11,1,8,12,5,9,7,13,2"
15455,commdev-image-keyboard-response,463,982614,learnblock1,656.6999999880791,img/planet3_left.png,3,Community 1,NA,TRUE,f,f,NA,NA,NA,2,6,"3,6,14,4,15,10,11,1,8,12,5,9,7,13,2"
15455,commdev-image-keyboard-response,464,983867,learnblock1,581.8000000119209,img/planet6_left.png,6,Community 1,NA,TRUE,f,f,NA,NA,NA,2,6,"3,6,14,4,15,10,11,1,8,12,5,9,7,13,2"
15455,commdev-image-keyboard-response,465,985121,learnblock1,1022.5,img/planet15_left.png,15,Community 1,NA,TRUE,f,f,NA,NA,NA,2,6,"3,6,14,4,15,10,11,1,8,12,5,9,7,13,2"
15455,commdev-image-keyboard-response,466,986373,learnblock1,998.3999999761581,img/planet3_left.png,3,Community 1,NA,TRUE,f,f,NA,NA,NA,2,6,"3,6,14,4,15,10,11,1,8,12,5,9,7,13,2"
15455,commdev-image-keyboard-response,467,987627,learnblock1,757.4000000357628,img/planet15_right.png,15,Community 1,NA,TRUE,j,j,NA,NA,NA,2,6,"3,6,14,4,15,10,11,1,8,12,5,9,7,13,2"
15455,commdev-image-keyboard-response,468,988880,learnblock1,675.6999999880791,img/planet6_right.png,6,Community 1,NA,TRUE,j,j,NA,NA,NA,2,6,"3,6,14,4,15,10,11,1,8,12,5,9,7,13,2"
15455,commdev-image-keyboard-response,469,990134,learnblock1,564.8000000119209,img/planet14_right.png,14,Community 1,NA,TRUE,j,j,NA,NA,NA,2,6,"3,6,14,4,15,10,11,1,8,12,5,9,7,13,2"
15455,commdev-image-keyboard-response,470,991387,learnblock1,705.3999999761581,img/planet6_left.png,6,Community 1,NA,TRUE,f,f,NA,NA,NA,2,6,"3,6,14,4,15,10,11,1,8,12,5,9,7,13,2"
15455,commdev-image-keyboard-response,471,992640,learnblock1,852.6000000238419,img/planet3_left.png,3,Community 1,NA,TRUE,f,f,NA,NA,NA,2,6,"3,6,14,4,15,10,11,1,8,12,5,9,7,13,2"
15455,commdev-image-keyboard-response,472,993893,learnblock1,770.1000000238419,img/planet4_left.png,4,Community 1,NA,TRUE,f,f,NA,NA,NA,2,6,"3,6,14,4,15,10,11,1,8,12,5,9,7,13,2"
15455,commdev-image-keyboard-response,473,995146,learnblock1,754.8999999761581,img/planet3_right.png,3,Community 1,NA,TRUE,j,j,NA,NA,NA,2,6,"3,6,14,4,15,10,11,1,8,12,5,9,7,13,2"
15455,commdev-image-keyboard-response,474,996398,learnblock1,708.3999999761581,img/planet14_left.png,14,Community 1,NA,TRUE,f,f,NA,NA,NA,2,6,"3,6,14,4,15,10,11,1,8,12,5,9,7,13,2"
15455,commdev-image-keyboard-response,475,997651,learnblock1,672.8000000119209,img/planet6_left.png,6,Community 1,NA,TRUE,f,f,NA,NA,NA,2,6,"3,6,14,4,15,10,11,1,8,12,5,9,7,13,2"
15455,commdev-image-keyboard-response,476,998903,learnblock1,564.1000000238419,img/planet14_right.png,14,Community 1,NA,TRUE,j,j,NA,NA,NA,2,6,"3,6,14,4,15,10,11,1,8,12,5,9,7,13,2"
15455,commdev-image-keyboard-response,477,1000156,learnblock1,657.6000000238419,img/planet15_right.png,15,Community 1,NA,TRUE,j,j,NA,NA,NA,2,6,"3,6,14,4,15,10,11,1,8,12,5,9,7,13,2"
15455,commdev-image-keyboard-response,478,1001408,learnblock1,566.8000000119209,img/planet6_right.png,6,Community 1,NA,TRUE,j,j,NA,NA,NA,2,6,"3,6,14,4,15,10,11,1,8,12,5,9,7,13,2"
15455,commdev-image-keyboard-response,479,1002661,learnblock1,509.80000001192093,img/planet4_left.png,4,Community 1,NA,FALSE,j,f,NA,NA,NA,2,6,"3,6,14,4,15,10,11,1,8,12,5,9,7,13,2"
15455,commdev-image-keyboard-response,480,1003915,learnblock1,619.1999999880791,img/planet10_right.png,10,Community 2,NA,TRUE,j,j,NA,NA,NA,2,6,"3,6,14,4,15,10,11,1,8,12,5,9,7,13,2"
15455,commdev-image-keyboard-response,481,1005169,learnblock1,606.6999999880791,img/planet8_right.png,8,Community 2,NA,TRUE,j,j,NA,NA,NA,2,6,"3,6,14,4,15,10,11,1,8,12,5,9,7,13,2"
15455,commdev-image-keyboard-response,482,1006421,learnblock1,597.0999999642372,img/planet1_left.png,1,Community 2,NA,FALSE,j,f,NA,NA,NA,2,6,"3,6,14,4,15,10,11,1,8,12,5,9,7,13,2"
15455,commdev-image-keyboard-response,483,1007675,learnblock1,762.3000000119209,img/planet11_left.png,11,Community 2,NA,TRUE,f,f,NA,NA,NA,2,6,"3,6,14,4,15,10,11,1,8,12,5,9,7,13,2"
15455,commdev-image-keyboard-response,484,1008928,learnblock1,689.1000000238419,img/planet1_right.png,1,Community 2,NA,TRUE,j,j,NA,NA,NA,2,6,"3,6,14,4,15,10,11,1,8,12,5,9,7,13,2"
15455,commdev-image-keyboard-response,485,1010181,learnblock1,660.5,img/planet8_left.png,8,Community 2,NA,TRUE,f,f,NA,NA,NA,2,6,"3,6,14,4,15,10,11,1,8,12,5,9,7,13,2"
15455,commdev-image-keyboard-response,486,1011434,learnblock1,703.8999999761581,img/planet12_left.png,12,Community 2,NA,TRUE,f,f,NA,NA,NA,2,6,"3,6,14,4,15,10,11,1,8,12,5,9,7,13,2"
15455,commdev-image-keyboard-response,487,1012687,learnblock1,781.5999999642372,img/planet10_left.png,10,Community 2,NA,TRUE,f,f,NA,NA,NA,2,6,"3,6,14,4,15,10,11,1,8,12,5,9,7,13,2"
15455,commdev-image-keyboard-response,488,1013940,learnblock1,618.6000000238419,img/planet12_right.png,12,Community 2,NA,TRUE,j,j,NA,NA,NA,2,6,"3,6,14,4,15,10,11,1,8,12,5,9,7,13,2"
15455,commdev-image-keyboard-response,489,1015192,learnblock1,833.1999999880791,img/planet10_right.png,10,Community 2,NA,TRUE,j,j,NA,NA,NA,2,6,"3,6,14,4,15,10,11,1,8,12,5,9,7,13,2"
15455,commdev-image-keyboard-response,490,1016444,learnblock1,657.8999999761581,img/planet8_left.png,8,Community 2,NA,FALSE,j,f,NA,NA,NA,2,6,"3,6,14,4,15,10,11,1,8,12,5,9,7,13,2"
15455,commdev-image-keyboard-response,491,1017696,learnblock1,678.8000000119209,img/planet12_left.png,12,Community 2,NA,TRUE,f,f,NA,NA,NA,2,6,"3,6,14,4,15,10,11,1,8,12,5,9,7,13,2"
15455,commdev-image-keyboard-response,492,1018949,learnblock1,752.5,img/planet1_right.png,1,Community 2,NA,TRUE,j,j,NA,NA,NA,2,6,"3,6,14,4,15,10,11,1,8,12,5,9,7,13,2"
15455,commdev-image-keyboard-response,493,1020203,learnblock1,844.5999999642372,img/planet11_right.png,11,Community 2,NA,TRUE,j,j,NA,NA,NA,2,6,"3,6,14,4,15,10,11,1,8,12,5,9,7,13,2"
15455,commdev-image-keyboard-response,494,1021455,learnblock1,679.4000000357628,img/planet8_left.png,8,Community 2,NA,TRUE,f,f,NA,NA,NA,2,6,"3,6,14,4,15,10,11,1,8,12,5,9,7,13,2"
15455,commdev-image-keyboard-response,495,1022707,learnblock1,646.5,img/planet10_left.png,10,Community 2,NA,TRUE,f,f,NA,NA,NA,2,6,"3,6,14,4,15,10,11,1,8,12,5,9,7,13,2"
15455,commdev-image-keyboard-response,496,1023961,learnblock1,637.3999999761581,img/planet8_left.png,8,Community 2,NA,TRUE,f,f,NA,NA,NA,2,6,"3,6,14,4,15,10,11,1,8,12,5,9,7,13,2"
15455,commdev-image-keyboard-response,497,1025214,learnblock1,575.2999999523163,img/planet12_right.png,12,Community 2,NA,TRUE,j,j,NA,NA,NA,2,6,"3,6,14,4,15,10,11,1,8,12,5,9,7,13,2"
15455,commdev-image-keyboard-response,498,1026467,learnblock1,654.1999999880791,img/planet8_right.png,8,Community 2,NA,TRUE,j,j,NA,NA,NA,2,6,"3,6,14,4,15,10,11,1,8,12,5,9,7,13,2"
15455,commdev-image-keyboard-response,499,1027720,learnblock1,647.4000000357628,img/planet12_right.png,12,Community 2,NA,TRUE,j,j,NA,NA,NA,2,6,"3,6,14,4,15,10,11,1,8,12,5,9,7,13,2"
15455,commdev-image-keyboard-response,500,1028973,learnblock1,691.8000000119209,img/planet1_left.png,1,Community 2,NA,TRUE,f,f,NA,NA,NA,2,6,"3,6,14,4,15,10,11,1,8,12,5,9,7,13,2"
15455,commdev-image-keyboard-response,501,1030226,learnblock1,647.5,img/planet8_right.png,8,Community 2,NA,TRUE,j,j,NA,NA,NA,2,6,"3,6,14,4,15,10,11,1,8,12,5,9,7,13,2"
15455,commdev-image-keyboard-response,502,1031479,learnblock1,638.6999999880791,img/planet11_left.png,11,Community 2,NA,TRUE,f,f,NA,NA,NA,2,6,"3,6,14,4,15,10,11,1,8,12,5,9,7,13,2"
15455,commdev-image-keyboard-response,503,1032733,learnblock1,482.5,img/planet8_right.png,8,Community 2,NA,TRUE,j,j,NA,NA,NA,2,6,"3,6,14,4,15,10,11,1,8,12,5,9,7,13,2"
15455,commdev-image-keyboard-response,504,1033986,learnblock1,644.6999999880791,img/planet11_left.png,11,Community 2,NA,TRUE,f,f,NA,NA,NA,2,6,"3,6,14,4,15,10,11,1,8,12,5,9,7,13,2"
15455,commdev-image-keyboard-response,505,1035239,learnblock1,767,img/planet10_left.png,10,Community 2,NA,FALSE,j,f,NA,NA,NA,2,6,"3,6,14,4,15,10,11,1,8,12,5,9,7,13,2"
15455,commdev-image-keyboard-response,506,1036491,learnblock1,39.59999996423721,img/planet12_right.png,12,Community 2,NA,FALSE,f,j,NA,NA,NA,2,6,"3,6,14,4,15,10,11,1,8,12,5,9,7,13,2"
15455,commdev-image-keyboard-response,507,1037745,learnblock1,636.6999999880791,img/planet11_right.png,11,Community 2,NA,TRUE,j,j,NA,NA,NA,2,6,"3,6,14,4,15,10,11,1,8,12,5,9,7,13,2"
15455,commdev-image-keyboard-response,508,1038998,learnblock1,810.6999999880791,img/planet10_left.png,10,Community 2,NA,TRUE,f,f,NA,NA,NA,2,6,"3,6,14,4,15,10,11,1,8,12,5,9,7,13,2"
15455,commdev-image-keyboard-response,509,1040251,learnblock1,667.4000000357628,img/planet4_right.png,4,Community 1,NA,TRUE,j,j,NA,NA,NA,2,6,"3,6,14,4,15,10,11,1,8,12,5,9,7,13,2"
15455,commdev-image-keyboard-response,510,1041503,learnblock1,992.5999999642372,img/planet6_left.png,6,Community 1,NA,TRUE,f,f,NA,NA,NA,2,6,"3,6,14,4,15,10,11,1,8,12,5,9,7,13,2"
15455,commdev-image-keyboard-response,511,1042757,learnblock1,558.8000000119209,img/planet14_right.png,14,Community 1,NA,TRUE,j,j,NA,NA,NA,2,6,"3,6,14,4,15,10,11,1,8,12,5,9,7,13,2"
15455,commdev-image-keyboard-response,512,1044010,learnblock1,649.1999999880791,img/planet3_right.png,3,Community 1,NA,TRUE,j,j,NA,NA,NA,2,6,"3,6,14,4,15,10,11,1,8,12,5,9,7,13,2"
15455,commdev-image-keyboard-response,513,1045263,learnblock1,653.1999999880791,img/planet14_right.png,14,Community 1,NA,TRUE,j,j,NA,NA,NA,2,6,"3,6,14,4,15,10,11,1,8,12,5,9,7,13,2"
15455,commdev-image-keyboard-response,514,1046516,learnblock1,571.3000000119209,img/planet4_left.png,4,Community 1,NA,TRUE,f,f,NA,NA,NA,2,6,"3,6,14,4,15,10,11,1,8,12,5,9,7,13,2"
15455,commdev-image-keyboard-response,515,1047769,learnblock1,605.1000000238419,img/planet3_right.png,3,Community 1,NA,TRUE,j,j,NA,NA,NA,2,6,"3,6,14,4,15,10,11,1,8,12,5,9,7,13,2"
15455,commdev-image-keyboard-response,516,1049022,learnblock1,585.8999999761581,img/planet4_left.png,4,Community 1,NA,TRUE,f,f,NA,NA,NA,2,6,"3,6,14,4,15,10,11,1,8,12,5,9,7,13,2"
15455,commdev-image-keyboard-response,517,1050275,learnblock1,428,img/planet3_right.png,3,Community 1,NA,TRUE,j,j,NA,NA,NA,2,6,"3,6,14,4,15,10,11,1,8,12,5,9,7,13,2"
15455,commdev-image-keyboard-response,518,1051527,learnblock1,462.5,img/planet4_right.png,4,Community 1,NA,FALSE,f,j,NA,NA,NA,2,6,"3,6,14,4,15,10,11,1,8,12,5,9,7,13,2"
15455,commdev-image-keyboard-response,522,3145248,learnblock2,696.3999999761581,img/planet9_left.png,9,Community 3,NA,TRUE,f,f,NA,NA,NA,2,6,"3,6,14,4,15,10,11,1,8,12,5,9,7,13,2"
15455,commdev-image-keyboard-response,523,3146501,learnblock2,1044.300000011921,img/planet1_left.png,1,Community 2,NA,TRUE,f,f,NA,NA,NA,2,6,"3,6,14,4,15,10,11,1,8,12,5,9,7,13,2"
15455,commdev-image-keyboard-response,524,3147754,learnblock2,666.3999999761581,img/planet9_left.png,9,Community 3,NA,TRUE,f,f,NA,NA,NA,2,6,"3,6,14,4,15,10,11,1,8,12,5,9,7,13,2"
15455,commdev-image-keyboard-response,525,3149007,learnblock2,791.1000000238419,img/planet13_right.png,13,Community 3,NA,FALSE,f,j,NA,NA,NA,2,6,"3,6,14,4,15,10,11,1,8,12,5,9,7,13,2"
15455,commdev-image-keyboard-response,526,3150260,learnblock2,41.90000003576279,img/planet5_left.png,5,Community 3,NA,FALSE,j,f,NA,NA,NA,2,6,"3,6,14,4,15,10,11,1,8,12,5,9,7,13,2"
15455,commdev-image-keyboard-response,527,3151513,learnblock2,763.3999999761581,img/planet15_left.png,15,Community 1,NA,TRUE,f,f,NA,NA,NA,2,6,"3,6,14,4,15,10,11,1,8,12,5,9,7,13,2"
15455,commdev-image-keyboard-response,528,3152766,learnblock2,678,img/planet14_right.png,14,Community 1,NA,TRUE,j,j,NA,NA,NA,2,6,"3,6,14,4,15,10,11,1,8,12,5,9,7,13,2"
15455,commdev-image-keyboard-response,529,3154019,learnblock2,627.0999999642372,img/planet4_left.png,4,Community 1,NA,TRUE,f,f,NA,NA,NA,2,6,"3,6,14,4,15,10,11,1,8,12,5,9,7,13,2"
15455,commdev-image-keyboard-response,530,3155271,learnblock2,605.7999999523163,img/planet6_left.png,6,Community 1,NA,TRUE,f,f,NA,NA,NA,2,6,"3,6,14,4,15,10,11,1,8,12,5,9,7,13,2"
15455,commdev-image-keyboard-response,531,3156524,learnblock2,617.9000000357628,img/planet3_left.png,3,Community 1,NA,TRUE,f,f,NA,NA,NA,2,6,"3,6,14,4,15,10,11,1,8,12,5,9,7,13,2"
15455,commdev-image-keyboard-response,532,3157777,learnblock2,608.6999999880791,img/planet6_left.png,6,Community 1,NA,TRUE,f,f,NA,NA,NA,2,6,"3,6,14,4,15,10,11,1,8,12,5,9,7,13,2"
15455,commdev-image-keyboard-response,533,3159029,learnblock2,607.1000000238419,img/planet15_left.png,15,Community 1,NA,TRUE,f,f,NA,NA,NA,2,6,"3,6,14,4,15,10,11,1,8,12,5,9,7,13,2"
15455,commdev-image-keyboard-response,534,3160282,learnblock2,846.6999999880791,img/planet3_right.png,3,Community 1,NA,TRUE,j,j,NA,NA,NA,2,6,"3,6,14,4,15,10,11,1,8,12,5,9,7,13,2"
15455,commdev-image-keyboard-response,535,3161535,learnblock2,542.6000000238419,img/planet4_right.png,4,Community 1,NA,TRUE,j,j,NA,NA,NA,2,6,"3,6,14,4,15,10,11,1,8,12,5,9,7,13,2"
15455,commdev-image-keyboard-response,536,3162788,learnblock2,561.7000000476837,img/planet6_right.png,6,Community 1,NA,TRUE,j,j,NA,NA,NA,2,6,"3,6,14,4,15,10,11,1,8,12,5,9,7,13,2"
15455,commdev-image-keyboard-response,537,3164042,learnblock2,586.4000000357628,img/planet3_right.png,3,Community 1,NA,TRUE,j,j,NA,NA,NA,2,6,"3,6,14,4,15,10,11,1,8,12,5,9,7,13,2"
15455,commdev-image-keyboard-response,538,3165294,learnblock2,561.0999999642372,img/planet4_left.png,4,Community 1,NA,TRUE,f,f,NA,NA,NA,2,6,"3,6,14,4,15,10,11,1,8,12,5,9,7,13,2"
15455,commdev-image-keyboard-response,539,3166548,learnblock2,684.8000000119209,img/planet3_left.png,3,Community 1,NA,TRUE,f,f,NA,NA,NA,2,6,"3,6,14,4,15,10,11,1,8,12,5,9,7,13,2"
15455,commdev-image-keyboard-response,540,3167801,learnblock2,732.5,img/planet14_left.png,14,Community 1,NA,TRUE,f,f,NA,NA,NA,2,6,"3,6,14,4,15,10,11,1,8,12,5,9,7,13,2"
15455,commdev-image-keyboard-response,541,3169054,learnblock2,708.5999999642372,img/planet3_right.png,3,Community 1,NA,TRUE,j,j,NA,NA,NA,2,6,"3,6,14,4,15,10,11,1,8,12,5,9,7,13,2"
15455,commdev-image-keyboard-response,542,3170306,learnblock2,714.1999999880791,img/planet6_left.png,6,Community 1,NA,TRUE,f,f,NA,NA,NA,2,6,"3,6,14,4,15,10,11,1,8,12,5,9,7,13,2"
15455,commdev-image-keyboard-response,543,3171560,learnblock2,837.2000000476837,img/planet14_left.png,14,Community 1,NA,TRUE,f,f,NA,NA,NA,2,6,"3,6,14,4,15,10,11,1,8,12,5,9,7,13,2"
15455,commdev-image-keyboard-response,544,3172814,learnblock2,863.6000000238419,img/planet4_left.png,4,Community 1,NA,TRUE,f,f,NA,NA,NA,2,6,"3,6,14,4,15,10,11,1,8,12,5,9,7,13,2"
15455,commdev-image-keyboard-response,545,3174066,learnblock2,749.3999999761581,img/planet10_left.png,10,Community 2,NA,TRUE,f,f,NA,NA,NA,2,6,"3,6,14,4,15,10,11,1,8,12,5,9,7,13,2"
15455,commdev-image-keyboard-response,546,3175318,learnblock2,637.6000000238419,img/planet8_right.png,8,Community 2,NA,TRUE,j,j,NA,NA,NA,2,6,"3,6,14,4,15,10,11,1,8,12,5,9,7,13,2"
15455,commdev-image-keyboard-response,547,3176570,learnblock2,662,img/planet12_left.png,12,Community 2,NA,TRUE,f,f,NA,NA,NA,2,6,"3,6,14,4,15,10,11,1,8,12,5,9,7,13,2"
15455,commdev-image-keyboard-response,548,3177823,learnblock2,709.1999999880791,img/planet8_left.png,8,Community 2,NA,TRUE,f,f,NA,NA,NA,2,6,"3,6,14,4,15,10,11,1,8,12,5,9,7,13,2"
15455,commdev-image-keyboard-response,549,3179076,learnblock2,737.9000000357628,img/planet12_left.png,12,Community 2,NA,TRUE,f,f,NA,NA,NA,2,6,"3,6,14,4,15,10,11,1,8,12,5,9,7,13,2"
15455,commdev-image-keyboard-response,550,3180329,learnblock2,782.8000000119209,img/planet10_left.png,10,Community 2,NA,TRUE,f,f,NA,NA,NA,2,6,"3,6,14,4,15,10,11,1,8,12,5,9,7,13,2"
15455,commdev-image-keyboard-response,551,3181582,learnblock2,725.8000000119209,img/planet4_left.png,4,Community 1,NA,TRUE,f,f,NA,NA,NA,2,6,"3,6,14,4,15,10,11,1,8,12,5,9,7,13,2"
15455,commdev-image-keyboard-response,552,3182835,learnblock2,591.1999999880791,img/planet10_right.png,10,Community 2,NA,TRUE,j,j,NA,NA,NA,2,6,"3,6,14,4,15,10,11,1,8,12,5,9,7,13,2"
15455,commdev-image-keyboard-response,553,3184087,learnblock2,681,img/planet12_left.png,12,Community 2,NA,TRUE,f,f,NA,NA,NA,2,6,"3,6,14,4,15,10,11,1,8,12,5,9,7,13,2"
15455,commdev-image-keyboard-response,554,3185341,learnblock2,619.9000000357628,img/planet10_left.png,10,Community 2,NA,TRUE,f,f,NA,NA,NA,2,6,"3,6,14,4,15,10,11,1,8,12,5,9,7,13,2"
15455,commdev-image-keyboard-response,555,3186594,learnblock2,599.5,img/planet8_right.png,8,Community 2,NA,TRUE,j,j,NA,NA,NA,2,6,"3,6,14,4,15,10,11,1,8,12,5,9,7,13,2"
15455,commdev-image-keyboard-response,556,3187847,learnblock2,734.3000000119209,img/planet12_right.png,12,Community 2,NA,TRUE,j,j,NA,NA,NA,2,6,"3,6,14,4,15,10,11,1,8,12,5,9,7,13,2"
15455,commdev-image-keyboard-response,557,3189100,learnblock2,771.9000000357628,img/planet11_left.png,11,Community 2,NA,TRUE,f,f,NA,NA,NA,2,6,"3,6,14,4,15,10,11,1,8,12,5,9,7,13,2"
15455,commdev-image-keyboard-response,558,3190353,learnblock2,931,img/planet12_right.png,12,Community 2,NA,TRUE,j,j,NA,NA,NA,2,6,"3,6,14,4,15,10,11,1,8,12,5,9,7,13,2"
15455,commdev-image-keyboard-response,559,3191606,learnblock2,825.4000000357628,img/planet1_right.png,1,Community 2,NA,TRUE,j,j,NA,NA,NA,2,6,"3,6,14,4,15,10,11,1,8,12,5,9,7,13,2"
15455,commdev-image-keyboard-response,560,3192859,learnblock2,704.1999999880791,img/planet8_left.png,8,Community 2,NA,TRUE,f,f,NA,NA,NA,2,6,"3,6,14,4,15,10,11,1,8,12,5,9,7,13,2"
15455,commdev-image-keyboard-response,561,3194112,learnblock2,765.6000000238419,img/planet11_left.png,11,Community 2,NA,TRUE,f,f,NA,NA,NA,2,6,"3,6,14,4,15,10,11,1,8,12,5,9,7,13,2"
15455,commdev-image-keyboard-response,562,3195365,learnblock2,825.8999999761581,img/planet10_left.png,10,Community 2,NA,TRUE,f,f,NA,NA,NA,2,6,"3,6,14,4,15,10,11,1,8,12,5,9,7,13,2"
15455,commdev-image-keyboard-response,563,3196618,learnblock2,836,img/planet4_left.png,4,Community 1,NA,TRUE,f,f,NA,NA,NA,2,6,"3,6,14,4,15,10,11,1,8,12,5,9,7,13,2"
15455,commdev-image-keyboard-response,564,3197872,learnblock2,861.3000000119209,img/planet3_right.png,3,Community 1,NA,TRUE,j,j,NA,NA,NA,2,6,"3,6,14,4,15,10,11,1,8,12,5,9,7,13,2"
15455,commdev-image-keyboard-response,565,3199125,learnblock2,885.5,img/planet14_left.png,14,Community 1,NA,TRUE,f,f,NA,NA,NA,2,6,"3,6,14,4,15,10,11,1,8,12,5,9,7,13,2"
15455,commdev-image-keyboard-response,566,3200379,learnblock2,879.8000000119209,img/planet4_left.png,4,Community 1,NA,TRUE,f,f,NA,NA,NA,2,6,"3,6,14,4,15,10,11,1,8,12,5,9,7,13,2"
15455,commdev-image-keyboard-response,567,3201633,learnblock2,761.5,img/planet3_left.png,3,Community 1,NA,TRUE,f,f,NA,NA,NA,2,6,"3,6,14,4,15,10,11,1,8,12,5,9,7,13,2"
15455,commdev-image-keyboard-response,568,3202885,learnblock2,773.9000000357628,img/planet15_left.png,15,Community 1,NA,TRUE,f,f,NA,NA,NA,2,6,"3,6,14,4,15,10,11,1,8,12,5,9,7,13,2"
15455,commdev-image-keyboard-response,569,3204137,learnblock2,779.4000000357628,img/planet14_right.png,14,Community 1,NA,TRUE,j,j,NA,NA,NA,2,6,"3,6,14,4,15,10,11,1,8,12,5,9,7,13,2"
15455,commdev-image-keyboard-response,570,3205390,learnblock2,733,img/planet4_right.png,4,Community 1,NA,TRUE,j,j,NA,NA,NA,2,6,"3,6,14,4,15,10,11,1,8,12,5,9,7,13,2"
15455,commdev-image-keyboard-response,571,3206643,learnblock2,735.7999999523163,img/planet10_right.png,10,Community 2,NA,TRUE,j,j,NA,NA,NA,2,6,"3,6,14,4,15,10,11,1,8,12,5,9,7,13,2"
15455,commdev-image-keyboard-response,572,3207897,learnblock2,680.3999999761581,img/planet4_right.png,4,Community 1,NA,TRUE,j,j,NA,NA,NA,2,6,"3,6,14,4,15,10,11,1,8,12,5,9,7,13,2"
15455,commdev-image-keyboard-response,573,3209150,learnblock2,742.8000000119209,img/planet6_left.png,6,Community 1,NA,TRUE,f,f,NA,NA,NA,2,6,"3,6,14,4,15,10,11,1,8,12,5,9,7,13,2"
15455,commdev-image-keyboard-response,574,3210403,learnblock2,736.1999999880791,img/planet3_left.png,3,Community 1,NA,TRUE,f,f,NA,NA,NA,2,6,"3,6,14,4,15,10,11,1,8,12,5,9,7,13,2"
15455,commdev-image-keyboard-response,575,3211655,learnblock2,767.8000000119209,img/planet6_left.png,6,Community 1,NA,TRUE,f,f,NA,NA,NA,2,6,"3,6,14,4,15,10,11,1,8,12,5,9,7,13,2"
15455,commdev-image-keyboard-response,576,3212907,learnblock2,844.5,img/planet4_right.png,4,Community 1,NA,TRUE,j,j,NA,NA,NA,2,6,"3,6,14,4,15,10,11,1,8,12,5,9,7,13,2"
15455,commdev-image-keyboard-response,577,3214160,learnblock2,870.6999999880791,img/planet10_left.png,10,Community 2,NA,TRUE,f,f,NA,NA,NA,2,6,"3,6,14,4,15,10,11,1,8,12,5,9,7,13,2"
15455,commdev-image-keyboard-response,578,3215412,learnblock2,876.1999999880791,img/planet12_right.png,12,Community 2,NA,TRUE,j,j,NA,NA,NA,2,6,"3,6,14,4,15,10,11,1,8,12,5,9,7,13,2"
15455,commdev-image-keyboard-response,579,3216665,learnblock2,870.3000000119209,img/planet1_left.png,1,Community 2,NA,TRUE,f,f,NA,NA,NA,2,6,"3,6,14,4,15,10,11,1,8,12,5,9,7,13,2"
15455,commdev-image-keyboard-response,580,3217919,learnblock2,865.3000000119209,img/planet12_right.png,12,Community 2,NA,TRUE,j,j,NA,NA,NA,2,6,"3,6,14,4,15,10,11,1,8,12,5,9,7,13,2"
15455,commdev-image-keyboard-response,581,3219171,learnblock2,790.0999999642372,img/planet8_right.png,8,Community 2,NA,TRUE,j,j,NA,NA,NA,2,6,"3,6,14,4,15,10,11,1,8,12,5,9,7,13,2"
15455,commdev-image-keyboard-response,582,3220425,learnblock2,770.8000000119209,img/planet1_left.png,1,Community 2,NA,TRUE,f,f,NA,NA,NA,2,6,"3,6,14,4,15,10,11,1,8,12,5,9,7,13,2"
15455,commdev-image-keyboard-response,583,3221678,learnblock2,733.3999999761581,img/planet8_right.png,8,Community 2,NA,TRUE,j,j,NA,NA,NA,2,6,"3,6,14,4,15,10,11,1,8,12,5,9,7,13,2"
15455,commdev-image-keyboard-response,584,3222932,learnblock2,756.1999999880791,img/planet1_left.png,1,Community 2,NA,TRUE,f,f,NA,NA,NA,2,6,"3,6,14,4,15,10,11,1,8,12,5,9,7,13,2"
15455,commdev-image-keyboard-response,585,3224184,learnblock2,771.6000000238419,img/planet8_left.png,8,Community 2,NA,TRUE,f,f,NA,NA,NA,2,6,"3,6,14,4,15,10,11,1,8,12,5,9,7,13,2"
15455,commdev-image-keyboard-response,586,3225436,learnblock2,746.3000000119209,img/planet1_left.png,1,Community 2,NA,TRUE,f,f,NA,NA,NA,2,6,"3,6,14,4,15,10,11,1,8,12,5,9,7,13,2"
15455,commdev-image-keyboard-response,587,3226688,learnblock2,666.6000000238419,img/planet8_right.png,8,Community 2,NA,TRUE,j,j,NA,NA,NA,2,6,"3,6,14,4,15,10,11,1,8,12,5,9,7,13,2"
15455,commdev-image-keyboard-response,588,3227940,learnblock2,800.2000000476837,img/planet11_left.png,11,Community 2,NA,TRUE,f,f,NA,NA,NA,2,6,"3,6,14,4,15,10,11,1,8,12,5,9,7,13,2"
15455,commdev-image-keyboard-response,589,3229194,learnblock2,734.3000000119209,img/planet10_left.png,10,Community 2,NA,TRUE,f,f,NA,NA,NA,2,6,"3,6,14,4,15,10,11,1,8,12,5,9,7,13,2"
15455,commdev-image-keyboard-response,590,3230447,learnblock2,799.4000000357628,img/planet12_left.png,12,Community 2,NA,TRUE,f,f,NA,NA,NA,2,6,"3,6,14,4,15,10,11,1,8,12,5,9,7,13,2"
15455,commdev-image-keyboard-response,591,3231700,learnblock2,782.3999999761581,img/planet1_left.png,1,Community 2,NA,TRUE,f,f,NA,NA,NA,2,6,"3,6,14,4,15,10,11,1,8,12,5,9,7,13,2"
15455,commdev-image-keyboard-response,592,3232952,learnblock2,791.6999999880791,img/planet12_right.png,12,Community 2,NA,TRUE,j,j,NA,NA,NA,2,6,"3,6,14,4,15,10,11,1,8,12,5,9,7,13,2"
15455,commdev-image-keyboard-response,593,3234205,learnblock2,789.5,img/planet1_left.png,1,Community 2,NA,TRUE,f,f,NA,NA,NA,2,6,"3,6,14,4,15,10,11,1,8,12,5,9,7,13,2"
15455,commdev-image-keyboard-response,594,3235457,learnblock2,772.6000000238419,img/planet8_right.png,8,Community 2,NA,TRUE,j,j,NA,NA,NA,2,6,"3,6,14,4,15,10,11,1,8,12,5,9,7,13,2"
15455,commdev-image-keyboard-response,595,3236710,learnblock2,728.6999999880791,img/planet10_left.png,10,Community 2,NA,TRUE,f,f,NA,NA,NA,2,6,"3,6,14,4,15,10,11,1,8,12,5,9,7,13,2"
15455,commdev-image-keyboard-response,596,3237964,learnblock2,680.3999999761581,img/planet12_left.png,12,Community 2,NA,TRUE,f,f,NA,NA,NA,2,6,"3,6,14,4,15,10,11,1,8,12,5,9,7,13,2"
15455,commdev-image-keyboard-response,597,3239216,learnblock2,690.5999999642372,img/planet8_right.png,8,Community 2,NA,TRUE,j,j,NA,NA,NA,2,6,"3,6,14,4,15,10,11,1,8,12,5,9,7,13,2"
15455,commdev-image-keyboard-response,598,3240470,learnblock2,715.6999999880791,img/planet10_right.png,10,Community 2,NA,TRUE,j,j,NA,NA,NA,2,6,"3,6,14,4,15,10,11,1,8,12,5,9,7,13,2"
15455,commdev-image-keyboard-response,599,3241722,learnblock2,803.7999999523163,img/planet8_left.png,8,Community 2,NA,TRUE,f,f,NA,NA,NA,2,6,"3,6,14,4,15,10,11,1,8,12,5,9,7,13,2"
15455,commdev-image-keyboard-response,600,3242975,learnblock2,766,img/planet12_right.png,12,Community 2,NA,TRUE,j,j,NA,NA,NA,2,6,"3,6,14,4,15,10,11,1,8,12,5,9,7,13,2"
15455,commdev-image-keyboard-response,601,3244229,learnblock2,692.8000000119209,img/planet8_right.png,8,Community 2,NA,TRUE,j,j,NA,NA,NA,2,6,"3,6,14,4,15,10,11,1,8,12,5,9,7,13,2"
15455,commdev-image-keyboard-response,602,3245483,learnblock2,762.1000000238419,img/planet12_left.png,12,Community 2,NA,TRUE,f,f,NA,NA,NA,2,6,"3,6,14,4,15,10,11,1,8,12,5,9,7,13,2"
15455,commdev-image-keyboard-response,603,3246735,learnblock2,791.8000000119209,img/planet1_left.png,1,Community 2,NA,TRUE,f,f,NA,NA,NA,2,6,"3,6,14,4,15,10,11,1,8,12,5,9,7,13,2"
15455,commdev-image-keyboard-response,604,3247988,learnblock2,720.6999999880791,img/planet9_left.png,9,Community 3,NA,TRUE,f,f,NA,NA,NA,2,6,"3,6,14,4,15,10,11,1,8,12,5,9,7,13,2"
15455,commdev-image-keyboard-response,605,3249241,learnblock2,683.5,img/planet7_right.png,7,Community 3,NA,TRUE,j,j,NA,NA,NA,2,6,"3,6,14,4,15,10,11,1,8,12,5,9,7,13,2"
15455,commdev-image-keyboard-response,606,3250494,learnblock2,684.3999999761581,img/planet13_right.png,13,Community 3,NA,TRUE,j,j,NA,NA,NA,2,6,"3,6,14,4,15,10,11,1,8,12,5,9,7,13,2"
15455,commdev-image-keyboard-response,607,3251745,learnblock2,822.8000000119209,img/planet2_right.png,2,Community 3,NA,TRUE,j,j,NA,NA,NA,2,6,"3,6,14,4,15,10,11,1,8,12,5,9,7,13,2"
15455,commdev-image-keyboard-response,608,3252998,learnblock2,763.3000000119209,img/planet5_left.png,5,Community 3,NA,TRUE,f,f,NA,NA,NA,2,6,"3,6,14,4,15,10,11,1,8,12,5,9,7,13,2"
15455,commdev-image-keyboard-response,609,3254251,learnblock2,696.4000000357628,img/planet15_left.png,15,Community 1,NA,TRUE,f,f,NA,NA,NA,2,6,"3,6,14,4,15,10,11,1,8,12,5,9,7,13,2"
15455,commdev-image-keyboard-response,610,3255504,learnblock2,708.5999999642372,img/planet3_left.png,3,Community 1,NA,TRUE,f,f,NA,NA,NA,2,6,"3,6,14,4,15,10,11,1,8,12,5,9,7,13,2"
15455,commdev-image-keyboard-response,611,3256758,learnblock2,713,img/planet15_left.png,15,Community 1,NA,TRUE,f,f,NA,NA,NA,2,6,"3,6,14,4,15,10,11,1,8,12,5,9,7,13,2"
15455,commdev-image-keyboard-response,612,3258011,learnblock2,661.6999999880791,img/planet5_left.png,5,Community 3,NA,TRUE,f,f,NA,NA,NA,2,6,"3,6,14,4,15,10,11,1,8,12,5,9,7,13,2"
15455,commdev-image-keyboard-response,613,3259264,learnblock2,616.1000000238419,img/planet13_left.png,13,Community 3,NA,TRUE,f,f,NA,NA,NA,2,6,"3,6,14,4,15,10,11,1,8,12,5,9,7,13,2"
15455,commdev-image-keyboard-response,614,3260517,learnblock2,637.8999999761581,img/planet7_right.png,7,Community 3,NA,TRUE,j,j,NA,NA,NA,2,6,"3,6,14,4,15,10,11,1,8,12,5,9,7,13,2"
15455,commdev-image-keyboard-response,615,3261769,learnblock2,656.8999999761581,img/planet2_right.png,2,Community 3,NA,TRUE,j,j,NA,NA,NA,2,6,"3,6,14,4,15,10,11,1,8,12,5,9,7,13,2"
15455,commdev-image-keyboard-response,616,3263023,learnblock2,794.5,img/planet5_left.png,5,Community 3,NA,TRUE,f,f,NA,NA,NA,2,6,"3,6,14,4,15,10,11,1,8,12,5,9,7,13,2"
15455,commdev-image-keyboard-response,617,3264276,learnblock2,745.8000000119209,img/planet13_left.png,13,Community 3,NA,TRUE,f,f,NA,NA,NA,2,6,"3,6,14,4,15,10,11,1,8,12,5,9,7,13,2"
15455,commdev-image-keyboard-response,618,3265529,learnblock2,783.3000000119209,img/planet7_left.png,7,Community 3,NA,TRUE,f,f,NA,NA,NA,2,6,"3,6,14,4,15,10,11,1,8,12,5,9,7,13,2"
15455,commdev-image-keyboard-response,619,3266781,learnblock2,783.8000000119209,img/planet13_right.png,13,Community 3,NA,TRUE,j,j,NA,NA,NA,2,6,"3,6,14,4,15,10,11,1,8,12,5,9,7,13,2"
15455,commdev-image-keyboard-response,620,3268034,learnblock2,845.0999999642372,img/planet2_right.png,2,Community 3,NA,TRUE,j,j,NA,NA,NA,2,6,"3,6,14,4,15,10,11,1,8,12,5,9,7,13,2"
15455,commdev-image-keyboard-response,621,3269287,learnblock2,865.6000000238419,img/planet9_right.png,9,Community 3,NA,TRUE,j,j,NA,NA,NA,2,6,"3,6,14,4,15,10,11,1,8,12,5,9,7,13,2"
15455,commdev-image-keyboard-response,622,3270540,learnblock2,776.1999999880791,img/planet2_left.png,2,Community 3,NA,TRUE,f,f,NA,NA,NA,2,6,"3,6,14,4,15,10,11,1,8,12,5,9,7,13,2"
15455,commdev-image-keyboard-response,623,3271794,learnblock2,763.5,img/planet13_right.png,13,Community 3,NA,TRUE,j,j,NA,NA,NA,2,6,"3,6,14,4,15,10,11,1,8,12,5,9,7,13,2"
15455,commdev-image-keyboard-response,624,3273047,learnblock2,723.1999999880791,img/planet2_right.png,2,Community 3,NA,TRUE,j,j,NA,NA,NA,2,6,"3,6,14,4,15,10,11,1,8,12,5,9,7,13,2"
15455,commdev-image-keyboard-response,625,3274300,learnblock2,731.4000000357628,img/planet5_left.png,5,Community 3,NA,TRUE,f,f,NA,NA,NA,2,6,"3,6,14,4,15,10,11,1,8,12,5,9,7,13,2"
15455,commdev-image-keyboard-response,626,3275554,learnblock2,680.7999999523163,img/planet15_right.png,15,Community 1,NA,TRUE,j,j,NA,NA,NA,2,6,"3,6,14,4,15,10,11,1,8,12,5,9,7,13,2"
15455,commdev-image-keyboard-response,627,3276806,learnblock2,712.5,img/planet6_right.png,6,Community 1,NA,TRUE,j,j,NA,NA,NA,2,6,"3,6,14,4,15,10,11,1,8,12,5,9,7,13,2"
15455,commdev-image-keyboard-response,628,3278059,learnblock2,670.5,img/planet4_right.png,4,Community 1,NA,TRUE,j,j,NA,NA,NA,2,6,"3,6,14,4,15,10,11,1,8,12,5,9,7,13,2"
15455,commdev-image-keyboard-response,629,3279311,learnblock2,657,img/planet3_left.png,3,Community 1,NA,TRUE,f,f,NA,NA,NA,2,6,"3,6,14,4,15,10,11,1,8,12,5,9,7,13,2"
15455,commdev-image-keyboard-response,630,3280565,learnblock2,725.1000000238419,img/planet4_right.png,4,Community 1,NA,TRUE,j,j,NA,NA,NA,2,6,"3,6,14,4,15,10,11,1,8,12,5,9,7,13,2"
15455,commdev-image-keyboard-response,631,3281816,learnblock2,728.7000000476837,img/planet10_right.png,10,Community 2,NA,TRUE,j,j,NA,NA,NA,2,6,"3,6,14,4,15,10,11,1,8,12,5,9,7,13,2"
15455,commdev-image-keyboard-response,632,3283069,learnblock2,679.1999999880791,img/planet8_left.png,8,Community 2,NA,TRUE,f,f,NA,NA,NA,2,6,"3,6,14,4,15,10,11,1,8,12,5,9,7,13,2"
15455,commdev-image-keyboard-response,633,3284321,learnblock2,662.6999999880791,img/planet1_right.png,1,Community 2,NA,TRUE,j,j,NA,NA,NA,2,6,"3,6,14,4,15,10,11,1,8,12,5,9,7,13,2"
15455,commdev-image-keyboard-response,634,3285574,learnblock2,636.3000000119209,img/planet11_left.png,11,Community 2,NA,TRUE,f,f,NA,NA,NA,2,6,"3,6,14,4,15,10,11,1,8,12,5,9,7,13,2"
15455,commdev-image-keyboard-response,635,3286827,learnblock2,631.6000000238419,img/planet1_right.png,1,Community 2,NA,TRUE,j,j,NA,NA,NA,2,6,"3,6,14,4,15,10,11,1,8,12,5,9,7,13,2"
15455,commdev-image-keyboard-response,636,3288080,learnblock2,584.8000000119209,img/planet12_left.png,12,Community 2,NA,TRUE,f,f,NA,NA,NA,2,6,"3,6,14,4,15,10,11,1,8,12,5,9,7,13,2"
15455,commdev-image-keyboard-response,637,3289332,learnblock2,638.1999999880791,img/planet11_right.png,11,Community 2,NA,TRUE,j,j,NA,NA,NA,2,6,"3,6,14,4,15,10,11,1,8,12,5,9,7,13,2"
15455,commdev-image-keyboard-response,638,3290585,learnblock2,636.4000000357628,img/planet10_left.png,10,Community 2,NA,TRUE,f,f,NA,NA,NA,2,6,"3,6,14,4,15,10,11,1,8,12,5,9,7,13,2"
15455,commdev-image-keyboard-response,639,3291838,learnblock2,598.8999999761581,img/planet8_right.png,8,Community 2,NA,TRUE,j,j,NA,NA,NA,2,6,"3,6,14,4,15,10,11,1,8,12,5,9,7,13,2"
15455,commdev-image-keyboard-response,640,3293091,learnblock2,635.4000000357628,img/planet12_left.png,12,Community 2,NA,TRUE,f,f,NA,NA,NA,2,6,"3,6,14,4,15,10,11,1,8,12,5,9,7,13,2"
15455,commdev-image-keyboard-response,641,3294345,learnblock2,670.7999999523163,img/planet1_right.png,1,Community 2,NA,TRUE,j,j,NA,NA,NA,2,6,"3,6,14,4,15,10,11,1,8,12,5,9,7,13,2"
15455,commdev-image-keyboard-response,642,3295598,learnblock2,658.3999999761581,img/planet8_right.png,8,Community 2,NA,TRUE,j,j,NA,NA,NA,2,6,"3,6,14,4,15,10,11,1,8,12,5,9,7,13,2"
15455,commdev-image-keyboard-response,643,3296851,learnblock2,772.2000000476837,img/planet11_right.png,11,Community 2,NA,TRUE,j,j,NA,NA,NA,2,6,"3,6,14,4,15,10,11,1,8,12,5,9,7,13,2"
15455,commdev-image-keyboard-response,644,3298105,learnblock2,739.6999999880791,img/planet1_right.png,1,Community 2,NA,TRUE,j,j,NA,NA,NA,2,6,"3,6,14,4,15,10,11,1,8,12,5,9,7,13,2"
15455,commdev-image-keyboard-response,645,3299357,learnblock2,798,img/planet9_right.png,9,Community 3,NA,TRUE,j,j,NA,NA,NA,2,6,"3,6,14,4,15,10,11,1,8,12,5,9,7,13,2"
15455,commdev-image-keyboard-response,646,3300609,learnblock2,706.2000000476837,img/planet13_right.png,13,Community 3,NA,TRUE,j,j,NA,NA,NA,2,6,"3,6,14,4,15,10,11,1,8,12,5,9,7,13,2"
15455,commdev-image-keyboard-response,647,3301862,learnblock2,649.6999999880791,img/planet7_right.png,7,Community 3,NA,TRUE,j,j,NA,NA,NA,2,6,"3,6,14,4,15,10,11,1,8,12,5,9,7,13,2"
15455,commdev-image-keyboard-response,648,3303115,learnblock2,640.4000000357628,img/planet9_left.png,9,Community 3,NA,TRUE,f,f,NA,NA,NA,2,6,"3,6,14,4,15,10,11,1,8,12,5,9,7,13,2"
15455,commdev-image-keyboard-response,649,3304367,learnblock2,714.0999999642372,img/planet7_left.png,7,Community 3,NA,TRUE,f,f,NA,NA,NA,2,6,"3,6,14,4,15,10,11,1,8,12,5,9,7,13,2"
15455,commdev-image-keyboard-response,650,3305619,learnblock2,666.6999999880791,img/planet2_left.png,2,Community 3,NA,TRUE,f,f,NA,NA,NA,2,6,"3,6,14,4,15,10,11,1,8,12,5,9,7,13,2"
15455,commdev-image-keyboard-response,651,3306872,learnblock2,655.5,img/planet13_right.png,13,Community 3,NA,TRUE,j,j,NA,NA,NA,2,6,"3,6,14,4,15,10,11,1,8,12,5,9,7,13,2"
15455,commdev-image-keyboard-response,652,3308124,learnblock2,738.4000000357628,img/planet2_right.png,2,Community 3,NA,TRUE,j,j,NA,NA,NA,2,6,"3,6,14,4,15,10,11,1,8,12,5,9,7,13,2"
15455,commdev-image-keyboard-response,653,3309376,learnblock2,716.3000000119209,img/planet13_left.png,13,Community 3,NA,TRUE,f,f,NA,NA,NA,2,6,"3,6,14,4,15,10,11,1,8,12,5,9,7,13,2"
15455,commdev-image-keyboard-response,654,3310629,learnblock2,809.9000000357628,img/planet9_left.png,9,Community 3,NA,TRUE,f,f,NA,NA,NA,2,6,"3,6,14,4,15,10,11,1,8,12,5,9,7,13,2"
15455,commdev-image-keyboard-response,655,3311883,learnblock2,698.3000000119209,img/planet7_left.png,7,Community 3,NA,TRUE,f,f,NA,NA,NA,2,6,"3,6,14,4,15,10,11,1,8,12,5,9,7,13,2"
15455,commdev-image-keyboard-response,656,3313137,learnblock2,692.5,img/planet9_right.png,9,Community 3,NA,TRUE,j,j,NA,NA,NA,2,6,"3,6,14,4,15,10,11,1,8,12,5,9,7,13,2"
15455,commdev-image-keyboard-response,657,3314390,learnblock2,685.5,img/planet1_left.png,1,Community 2,NA,TRUE,f,f,NA,NA,NA,2,6,"3,6,14,4,15,10,11,1,8,12,5,9,7,13,2"
15455,commdev-image-keyboard-response,658,3315643,learnblock2,667.5,img/planet11_left.png,11,Community 2,NA,TRUE,f,f,NA,NA,NA,2,6,"3,6,14,4,15,10,11,1,8,12,5,9,7,13,2"
15455,commdev-image-keyboard-response,659,3316895,learnblock2,613.1999999880791,img/planet12_right.png,12,Community 2,NA,TRUE,j,j,NA,NA,NA,2,6,"3,6,14,4,15,10,11,1,8,12,5,9,7,13,2"
15455,commdev-image-keyboard-response,660,3318148,learnblock2,590.9000000357628,img/planet10_right.png,10,Community 2,NA,TRUE,j,j,NA,NA,NA,2,6,"3,6,14,4,15,10,11,1,8,12,5,9,7,13,2"
15455,commdev-image-keyboard-response,661,3319400,learnblock2,619.4000000357628,img/planet12_right.png,12,Community 2,NA,TRUE,j,j,NA,NA,NA,2,6,"3,6,14,4,15,10,11,1,8,12,5,9,7,13,2"
15455,commdev-image-keyboard-response,662,3320653,learnblock2,645.1999999880791,img/planet1_left.png,1,Community 2,NA,TRUE,f,f,NA,NA,NA,2,6,"3,6,14,4,15,10,11,1,8,12,5,9,7,13,2"
15455,commdev-image-keyboard-response,663,3321907,learnblock2,786.3000000119209,img/planet9_left.png,9,Community 3,NA,TRUE,f,f,NA,NA,NA,2,6,"3,6,14,4,15,10,11,1,8,12,5,9,7,13,2"
15455,commdev-image-keyboard-response,664,3323159,learnblock2,703.7000000476837,img/planet2_right.png,2,Community 3,NA,TRUE,j,j,NA,NA,NA,2,6,"3,6,14,4,15,10,11,1,8,12,5,9,7,13,2"
15455,commdev-image-keyboard-response,665,3324412,learnblock2,646.3000000119209,img/planet9_left.png,9,Community 3,NA,TRUE,f,f,NA,NA,NA,2,6,"3,6,14,4,15,10,11,1,8,12,5,9,7,13,2"
15455,commdev-image-keyboard-response,666,3325665,learnblock2,732,img/planet2_left.png,2,Community 3,NA,TRUE,f,f,NA,NA,NA,2,6,"3,6,14,4,15,10,11,1,8,12,5,9,7,13,2"
15455,commdev-image-keyboard-response,667,3326917,learnblock2,744.5,img/planet5_right.png,5,Community 3,NA,TRUE,j,j,NA,NA,NA,2,6,"3,6,14,4,15,10,11,1,8,12,5,9,7,13,2"
15455,commdev-image-keyboard-response,668,3328170,learnblock2,798.8000000119209,img/planet15_left.png,15,Community 1,NA,TRUE,f,f,NA,NA,NA,2,6,"3,6,14,4,15,10,11,1,8,12,5,9,7,13,2"
15455,commdev-image-keyboard-response,669,3329424,learnblock2,712.4000000357628,img/planet5_right.png,5,Community 3,NA,TRUE,j,j,NA,NA,NA,2,6,"3,6,14,4,15,10,11,1,8,12,5,9,7,13,2"
15455,commdev-image-keyboard-response,670,3330677,learnblock2,721.6000000238419,img/planet7_left.png,7,Community 3,NA,TRUE,f,f,NA,NA,NA,2,6,"3,6,14,4,15,10,11,1,8,12,5,9,7,13,2"
15455,commdev-image-keyboard-response,671,3331930,learnblock2,716.3999999761581,img/planet13_right.png,13,Community 3,NA,TRUE,j,j,NA,NA,NA,2,6,"3,6,14,4,15,10,11,1,8,12,5,9,7,13,2"
15455,commdev-image-keyboard-response,672,3333182,learnblock2,770,img/planet9_left.png,9,Community 3,NA,TRUE,f,f,NA,NA,NA,2,6,"3,6,14,4,15,10,11,1,8,12,5,9,7,13,2"
15455,commdev-image-keyboard-response,673,3334436,learnblock2,694.8999999761581,img/planet1_right.png,1,Community 2,NA,TRUE,j,j,NA,NA,NA,2,6,"3,6,14,4,15,10,11,1,8,12,5,9,7,13,2"
15455,commdev-image-keyboard-response,674,3335688,learnblock2,638.8000000119209,img/planet12_right.png,12,Community 2,NA,TRUE,j,j,NA,NA,NA,2,6,"3,6,14,4,15,10,11,1,8,12,5,9,7,13,2"
15455,commdev-image-keyboard-response,675,3336941,learnblock2,642.3999999761581,img/planet1_right.png,1,Community 2,NA,TRUE,j,j,NA,NA,NA,2,6,"3,6,14,4,15,10,11,1,8,12,5,9,7,13,2"
15455,commdev-image-keyboard-response,676,3338194,learnblock2,641.9000000357628,img/planet9_left.png,9,Community 3,NA,TRUE,f,f,NA,NA,NA,2,6,"3,6,14,4,15,10,11,1,8,12,5,9,7,13,2"
15455,commdev-image-keyboard-response,677,3339447,learnblock2,693.3000000119209,img/planet2_right.png,2,Community 3,NA,TRUE,j,j,NA,NA,NA,2,6,"3,6,14,4,15,10,11,1,8,12,5,9,7,13,2"
15455,commdev-image-keyboard-response,678,3340700,learnblock2,816.5,img/planet7_right.png,7,Community 3,NA,TRUE,j,j,NA,NA,NA,2,6,"3,6,14,4,15,10,11,1,8,12,5,9,7,13,2"
15455,commdev-image-keyboard-response,679,3341952,learnblock2,751.0999999642372,img/planet13_right.png,13,Community 3,NA,TRUE,j,j,NA,NA,NA,2,6,"3,6,14,4,15,10,11,1,8,12,5,9,7,13,2"
15455,commdev-image-keyboard-response,680,3343205,learnblock2,665.3999999761581,img/planet7_left.png,7,Community 3,NA,TRUE,f,f,NA,NA,NA,2,6,"3,6,14,4,15,10,11,1,8,12,5,9,7,13,2"
15455,commdev-image-keyboard-response,681,3344457,learnblock2,656.3000000119209,img/planet2_right.png,2,Community 3,NA,TRUE,j,j,NA,NA,NA,2,6,"3,6,14,4,15,10,11,1,8,12,5,9,7,13,2"
15455,commdev-image-keyboard-response,682,3345710,learnblock2,678,img/planet9_right.png,9,Community 3,NA,TRUE,j,j,NA,NA,NA,2,6,"3,6,14,4,15,10,11,1,8,12,5,9,7,13,2"
15455,commdev-image-keyboard-response,683,3346964,learnblock2,698.4000000357628,img/planet13_left.png,13,Community 3,NA,TRUE,f,f,NA,NA,NA,2,6,"3,6,14,4,15,10,11,1,8,12,5,9,7,13,2"
15455,commdev-image-keyboard-response,684,3348216,learnblock2,699.9000000357628,img/planet2_left.png,2,Community 3,NA,TRUE,f,f,NA,NA,NA,2,6,"3,6,14,4,15,10,11,1,8,12,5,9,7,13,2"
15455,commdev-image-keyboard-response,685,3349469,learnblock2,724.5,img/planet7_right.png,7,Community 3,NA,TRUE,j,j,NA,NA,NA,2,6,"3,6,14,4,15,10,11,1,8,12,5,9,7,13,2"
15455,commdev-image-keyboard-response,686,3350722,learnblock2,764.3999999761581,img/planet9_left.png,9,Community 3,NA,TRUE,f,f,NA,NA,NA,2,6,"3,6,14,4,15,10,11,1,8,12,5,9,7,13,2"
15455,commdev-image-keyboard-response,687,3351975,learnblock2,763.8000000119209,img/planet1_left.png,1,Community 2,NA,TRUE,f,f,NA,NA,NA,2,6,"3,6,14,4,15,10,11,1,8,12,5,9,7,13,2"
15455,commdev-image-keyboard-response,688,3353227,learnblock2,785.3000000119209,img/planet12_left.png,12,Community 2,NA,TRUE,f,f,NA,NA,NA,2,6,"3,6,14,4,15,10,11,1,8,12,5,9,7,13,2"
15455,commdev-image-keyboard-response,689,3354481,learnblock2,727.4000000357628,img/planet8_right.png,8,Community 2,NA,TRUE,j,j,NA,NA,NA,2,6,"3,6,14,4,15,10,11,1,8,12,5,9,7,13,2"
15455,commdev-image-keyboard-response,690,3355734,learnblock2,749.7999999523163,img/planet11_left.png,11,Community 2,NA,TRUE,f,f,NA,NA,NA,2,6,"3,6,14,4,15,10,11,1,8,12,5,9,7,13,2"
15455,commdev-image-keyboard-response,691,3356987,learnblock2,699.5,img/planet8_right.png,8,Community 2,NA,TRUE,j,j,NA,NA,NA,2,6,"3,6,14,4,15,10,11,1,8,12,5,9,7,13,2"
15455,commdev-image-keyboard-response,692,3358240,learnblock2,670.0999999642372,img/planet12_right.png,12,Community 2,NA,TRUE,j,j,NA,NA,NA,2,6,"3,6,14,4,15,10,11,1,8,12,5,9,7,13,2"
15455,commdev-image-keyboard-response,693,3359493,learnblock2,680.6999999880791,img/planet8_left.png,8,Community 2,NA,TRUE,f,f,NA,NA,NA,2,6,"3,6,14,4,15,10,11,1,8,12,5,9,7,13,2"
15455,commdev-image-keyboard-response,694,3360745,learnblock2,644.5999999642372,img/planet11_right.png,11,Community 2,NA,TRUE,j,j,NA,NA,NA,2,6,"3,6,14,4,15,10,11,1,8,12,5,9,7,13,2"
15455,commdev-image-keyboard-response,695,3361998,learnblock2,630.3999999761581,img/planet10_left.png,10,Community 2,NA,TRUE,f,f,NA,NA,NA,2,6,"3,6,14,4,15,10,11,1,8,12,5,9,7,13,2"
15455,commdev-image-keyboard-response,696,3363251,learnblock2,653.7000000476837,img/planet11_right.png,11,Community 2,NA,TRUE,j,j,NA,NA,NA,2,6,"3,6,14,4,15,10,11,1,8,12,5,9,7,13,2"
15455,commdev-image-keyboard-response,697,3364503,learnblock2,784.7000000476837,img/planet10_right.png,10,Community 2,NA,TRUE,j,j,NA,NA,NA,2,6,"3,6,14,4,15,10,11,1,8,12,5,9,7,13,2"
15455,commdev-image-keyboard-response,698,3365756,learnblock2,660.6999999880791,img/planet12_right.png,12,Community 2,NA,TRUE,j,j,NA,NA,NA,2,6,"3,6,14,4,15,10,11,1,8,12,5,9,7,13,2"
15455,commdev-image-keyboard-response,699,3367009,learnblock2,630.5,img/planet8_left.png,8,Community 2,NA,TRUE,f,f,NA,NA,NA,2,6,"3,6,14,4,15,10,11,1,8,12,5,9,7,13,2"
15455,commdev-image-keyboard-response,700,3368263,learnblock2,566.3999999761581,img/planet11_right.png,11,Community 2,NA,TRUE,j,j,NA,NA,NA,2,6,"3,6,14,4,15,10,11,1,8,12,5,9,7,13,2"
15455,commdev-image-keyboard-response,701,3369516,learnblock2,508.19999998807907,img/planet1_right.png,1,Community 2,NA,TRUE,j,j,NA,NA,NA,2,6,"3,6,14,4,15,10,11,1,8,12,5,9,7,13,2"
15455,commdev-image-keyboard-response,702,3370769,learnblock2,595.6999999880791,img/planet9_left.png,9,Community 3,NA,TRUE,f,f,NA,NA,NA,2,6,"3,6,14,4,15,10,11,1,8,12,5,9,7,13,2"
15455,commdev-image-keyboard-response,703,3372021,learnblock2,609.3999999761581,img/planet2_right.png,2,Community 3,NA,TRUE,j,j,NA,NA,NA,2,6,"3,6,14,4,15,10,11,1,8,12,5,9,7,13,2"
15455,commdev-image-keyboard-response,704,3373273,learnblock2,635.1000000238419,img/planet5_left.png,5,Community 3,NA,TRUE,f,f,NA,NA,NA,2,6,"3,6,14,4,15,10,11,1,8,12,5,9,7,13,2"
15455,commdev-image-keyboard-response,705,3374526,learnblock2,676,img/planet15_left.png,15,Community 1,NA,TRUE,f,f,NA,NA,NA,2,6,"3,6,14,4,15,10,11,1,8,12,5,9,7,13,2"
15455,commdev-image-keyboard-response,706,3375779,learnblock2,674.1999999880791,img/planet5_right.png,5,Community 3,NA,TRUE,j,j,NA,NA,NA,2,6,"3,6,14,4,15,10,11,1,8,12,5,9,7,13,2"
15455,commdev-image-keyboard-response,707,3377033,learnblock2,661.7000000476837,img/planet15_left.png,15,Community 1,NA,TRUE,f,f,NA,NA,NA,2,6,"3,6,14,4,15,10,11,1,8,12,5,9,7,13,2"
15455,commdev-image-keyboard-response,708,3378287,learnblock2,606.9000000357628,img/planet5_left.png,5,Community 3,NA,TRUE,f,f,NA,NA,NA,2,6,"3,6,14,4,15,10,11,1,8,12,5,9,7,13,2"
15455,commdev-image-keyboard-response,709,3379539,learnblock2,748.1999999880791,img/planet15_right.png,15,Community 1,NA,TRUE,j,j,NA,NA,NA,2,6,"3,6,14,4,15,10,11,1,8,12,5,9,7,13,2"
15455,commdev-image-keyboard-response,710,3380792,learnblock2,721.3000000119209,img/planet3_right.png,3,Community 1,NA,TRUE,j,j,NA,NA,NA,2,6,"3,6,14,4,15,10,11,1,8,12,5,9,7,13,2"
15455,commdev-image-keyboard-response,711,3382045,learnblock2,654.8000000119209,img/planet6_left.png,6,Community 1,NA,TRUE,f,f,NA,NA,NA,2,6,"3,6,14,4,15,10,11,1,8,12,5,9,7,13,2"
15455,commdev-image-keyboard-response,712,3383297,learnblock2,635.5999999642372,img/planet14_left.png,14,Community 1,NA,TRUE,f,f,NA,NA,NA,2,6,"3,6,14,4,15,10,11,1,8,12,5,9,7,13,2"
15455,commdev-image-keyboard-response,713,3384551,learnblock2,680.4000000357628,img/planet6_left.png,6,Community 1,NA,TRUE,f,f,NA,NA,NA,2,6,"3,6,14,4,15,10,11,1,8,12,5,9,7,13,2"
15455,commdev-image-keyboard-response,714,3385804,learnblock2,664.7000000476837,img/planet3_left.png,3,Community 1,NA,TRUE,f,f,NA,NA,NA,2,6,"3,6,14,4,15,10,11,1,8,12,5,9,7,13,2"
15455,commdev-image-keyboard-response,715,3387057,learnblock2,657.5,img/planet15_right.png,15,Community 1,NA,TRUE,j,j,NA,NA,NA,2,6,"3,6,14,4,15,10,11,1,8,12,5,9,7,13,2"
15455,commdev-image-keyboard-response,716,3388310,learnblock2,667.2000000476837,img/planet5_left.png,5,Community 3,NA,TRUE,f,f,NA,NA,NA,2,6,"3,6,14,4,15,10,11,1,8,12,5,9,7,13,2"
15455,commdev-image-keyboard-response,717,3389561,learnblock2,712.9000000357628,img/planet7_left.png,7,Community 3,NA,TRUE,f,f,NA,NA,NA,2,6,"3,6,14,4,15,10,11,1,8,12,5,9,7,13,2"
15455,commdev-image-keyboard-response,718,3390814,learnblock2,746.8999999761581,img/planet13_left.png,13,Community 3,NA,TRUE,f,f,NA,NA,NA,2,6,"3,6,14,4,15,10,11,1,8,12,5,9,7,13,2"
15455,commdev-image-keyboard-response,719,3392067,learnblock2,724.6000000238419,img/planet9_right.png,9,Community 3,NA,TRUE,j,j,NA,NA,NA,2,6,"3,6,14,4,15,10,11,1,8,12,5,9,7,13,2"
15455,commdev-image-keyboard-response,720,3393320,learnblock2,720.6999999880791,img/planet7_right.png,7,Community 3,NA,TRUE,j,j,NA,NA,NA,2,6,"3,6,14,4,15,10,11,1,8,12,5,9,7,13,2"
15455,commdev-image-keyboard-response,721,3394573,learnblock2,755.4000000357628,img/planet13_right.png,13,Community 3,NA,TRUE,j,j,NA,NA,NA,2,6,"3,6,14,4,15,10,11,1,8,12,5,9,7,13,2"
15455,commdev-image-keyboard-response,722,3395826,learnblock2,762.0999999642372,img/planet5_right.png,5,Community 3,NA,TRUE,j,j,NA,NA,NA,2,6,"3,6,14,4,15,10,11,1,8,12,5,9,7,13,2"
15455,commdev-image-keyboard-response,723,3397080,learnblock2,825.6999999880791,img/planet13_left.png,13,Community 3,NA,TRUE,f,f,NA,NA,NA,2,6,"3,6,14,4,15,10,11,1,8,12,5,9,7,13,2"
15455,commdev-image-keyboard-response,724,3398331,learnblock2,690.8000000119209,img/planet9_left.png,9,Community 3,NA,TRUE,f,f,NA,NA,NA,2,6,"3,6,14,4,15,10,11,1,8,12,5,9,7,13,2"
15455,commdev-image-keyboard-response,725,3399584,learnblock2,711.4000000357628,img/planet2_right.png,2,Community 3,NA,TRUE,j,j,NA,NA,NA,2,6,"3,6,14,4,15,10,11,1,8,12,5,9,7,13,2"
15455,commdev-image-keyboard-response,726,3400838,learnblock2,725.5,img/planet7_right.png,7,Community 3,NA,TRUE,j,j,NA,NA,NA,2,6,"3,6,14,4,15,10,11,1,8,12,5,9,7,13,2"
15455,commdev-image-keyboard-response,727,3402091,learnblock2,747,img/planet5_left.png,5,Community 3,NA,TRUE,f,f,NA,NA,NA,2,6,"3,6,14,4,15,10,11,1,8,12,5,9,7,13,2"
15455,commdev-image-keyboard-response,728,3403344,learnblock2,775.5999999642372,img/planet13_left.png,13,Community 3,NA,TRUE,f,f,NA,NA,NA,2,6,"3,6,14,4,15,10,11,1,8,12,5,9,7,13,2"
15455,commdev-image-keyboard-response,729,3404597,learnblock2,785.3999999761581,img/planet2_left.png,2,Community 3,NA,TRUE,f,f,NA,NA,NA,2,6,"3,6,14,4,15,10,11,1,8,12,5,9,7,13,2"
15455,commdev-image-keyboard-response,730,3405850,learnblock2,752.5999999642372,img/planet13_left.png,13,Community 3,NA,TRUE,f,f,NA,NA,NA,2,6,"3,6,14,4,15,10,11,1,8,12,5,9,7,13,2"
15455,commdev-image-keyboard-response,731,3407104,learnblock2,700,img/planet5_left.png,5,Community 3,NA,TRUE,f,f,NA,NA,NA,2,6,"3,6,14,4,15,10,11,1,8,12,5,9,7,13,2"
15455,commdev-image-keyboard-response,732,3408357,learnblock2,723.6000000238419,img/planet7_left.png,7,Community 3,NA,TRUE,f,f,NA,NA,NA,2,6,"3,6,14,4,15,10,11,1,8,12,5,9,7,13,2"
15455,commdev-image-keyboard-response,733,3409610,learnblock2,741.3000000119209,img/planet2_right.png,2,Community 3,NA,TRUE,j,j,NA,NA,NA,2,6,"3,6,14,4,15,10,11,1,8,12,5,9,7,13,2"
15455,commdev-image-keyboard-response,734,3410862,learnblock2,764.6000000238419,img/planet5_right.png,5,Community 3,NA,TRUE,j,j,NA,NA,NA,2,6,"3,6,14,4,15,10,11,1,8,12,5,9,7,13,2"
15455,commdev-image-keyboard-response,735,3412115,learnblock2,733.3999999761581,img/planet15_left.png,15,Community 1,NA,TRUE,f,f,NA,NA,NA,2,6,"3,6,14,4,15,10,11,1,8,12,5,9,7,13,2"
15455,commdev-image-keyboard-response,736,3413367,learnblock2,747.5999999642372,img/planet6_right.png,6,Community 1,NA,TRUE,j,j,NA,NA,NA,2,6,"3,6,14,4,15,10,11,1,8,12,5,9,7,13,2"
15455,commdev-image-keyboard-response,737,3414620,learnblock2,716.0999999642372,img/planet3_right.png,3,Community 1,NA,TRUE,j,j,NA,NA,NA,2,6,"3,6,14,4,15,10,11,1,8,12,5,9,7,13,2"
15455,commdev-image-keyboard-response,738,3415872,learnblock2,748.3999999761581,img/planet14_right.png,14,Community 1,NA,TRUE,j,j,NA,NA,NA,2,6,"3,6,14,4,15,10,11,1,8,12,5,9,7,13,2"
15455,commdev-image-keyboard-response,739,3417124,learnblock2,803.5,img/planet4_right.png,4,Community 1,NA,TRUE,j,j,NA,NA,NA,2,6,"3,6,14,4,15,10,11,1,8,12,5,9,7,13,2"
15455,commdev-image-keyboard-response,740,3418377,learnblock2,759.3000000119209,img/planet10_right.png,10,Community 2,NA,TRUE,j,j,NA,NA,NA,2,6,"3,6,14,4,15,10,11,1,8,12,5,9,7,13,2"
15455,commdev-image-keyboard-response,741,3419631,learnblock2,761.6000000238419,img/planet8_left.png,8,Community 2,NA,TRUE,f,f,NA,NA,NA,2,6,"3,6,14,4,15,10,11,1,8,12,5,9,7,13,2"
15455,commdev-image-keyboard-response,742,3420883,learnblock2,786.5,img/planet11_right.png,11,Community 2,NA,TRUE,j,j,NA,NA,NA,2,6,"3,6,14,4,15,10,11,1,8,12,5,9,7,13,2"
15455,commdev-image-keyboard-response,743,3422136,learnblock2,692,img/planet10_left.png,10,Community 2,NA,TRUE,f,f,NA,NA,NA,2,6,"3,6,14,4,15,10,11,1,8,12,5,9,7,13,2"
15455,commdev-image-keyboard-response,744,3423389,learnblock2,674.9000000357628,img/planet12_left.png,12,Community 2,NA,TRUE,f,f,NA,NA,NA,2,6,"3,6,14,4,15,10,11,1,8,12,5,9,7,13,2"
15455,commdev-image-keyboard-response,745,3424642,learnblock2,761.4000000357628,img/planet1_left.png,1,Community 2,NA,TRUE,f,f,NA,NA,NA,2,6,"3,6,14,4,15,10,11,1,8,12,5,9,7,13,2"
15455,commdev-image-keyboard-response,746,3425895,learnblock2,663.5,img/planet8_left.png,8,Community 2,NA,TRUE,f,f,NA,NA,NA,2,6,"3,6,14,4,15,10,11,1,8,12,5,9,7,13,2"
15455,commdev-image-keyboard-response,747,3427148,learnblock2,717.8999999761581,img/planet1_right.png,1,Community 2,NA,TRUE,j,j,NA,NA,NA,2,6,"3,6,14,4,15,10,11,1,8,12,5,9,7,13,2"
15455,commdev-image-keyboard-response,748,3428401,learnblock2,714,img/planet12_left.png,12,Community 2,NA,TRUE,f,f,NA,NA,NA,2,6,"3,6,14,4,15,10,11,1,8,12,5,9,7,13,2"
