subject_id,trial_type,trial_index,time_elapsed,block,rt,stimulus,planet,community,response,correct,key_press,learning_correct_response,parse,init_locations,final_locations,browser_interactions,num_comp,planet_map
14349,commdev-instructions,7,43980,NA,2223.899999976158,"<p>In this game, you are a scientist on board a space shuttle. </p><p> On each mission, you will visit planets all across the universe.</p><img src=""img/controlroom.jpg"" width=300vw>",NA,NA,NA,NA,NA,NA,NA,NA,NA,4,6,"11,14,15,1,12,2,6,4,5,7,9,3,13,10,8"
14349,commdev-instructions,8,46723,NA,657.3000000119209,"<p>Here are a few planets you might see:</p><img src=""img/practice1.png"" width=200vw><img src=""img/practice2.png"" width=200vw><img src=""img/practice3.png"" width=200vw>",NA,NA,NA,NA,NA,NA,NA,NA,NA,4,6,"11,14,15,1,12,2,6,4,5,7,9,3,13,10,8"
14349,commdev-instructions,9,55650,NA,1514.300000011921,"<p>Your job as a scientist is to record which direction the winds are moving on each planet.</p><p>There are two types of wind directions:</p><img src=""img/practice1_left.png"" width=200vw><img src=""img/practice1_right.png"" width=200vw>",NA,NA,NA,NA,NA,NA,NA,NA,NA,4,6,"11,14,15,1,12,2,6,4,5,7,9,3,13,10,8"
14349,commdev-instructions,10,62860,NA,2315,"<p>If the winds are moving this way, press the letter <strong>F</strong> on the keyboard as fast as you can.</p><img src=""img/leftwind.png"" width=250vw>",NA,NA,NA,NA,NA,NA,NA,NA,NA,4,6,"11,14,15,1,12,2,6,4,5,7,9,3,13,10,8"
14349,commdev-instructions,11,68723,NA,1347.5,"<p>If the winds are moving this way, press the letter <strong>J</strong> on the keyboard as fast as you can.</p><img src=""img/rightwind.png"" width=350vw>",NA,NA,NA,NA,NA,NA,NA,NA,NA,4,6,"11,14,15,1,12,2,6,4,5,7,9,3,13,10,8"
14349,commdev-instructions,12,76515,NA,3371.099999964237,<p>You will have 1 second to respond. Try to respond before the time runs out!,NA,NA,NA,NA,NA,NA,NA,NA,NA,4,6,"11,14,15,1,12,2,6,4,5,7,9,3,13,10,8"
14349,commdev-instructions,13,83577,NA,1631.199999988079,<p>The planets you will visit will look different from each other.</p><p>You should respond <strong>only</strong> based on wind direction.,NA,NA,NA,NA,NA,NA,NA,NA,NA,4,6,"11,14,15,1,12,2,6,4,5,7,9,3,13,10,8"
14349,commdev-instructions,14,91631,NA,2873.300000011921,"<p> Ready to start the practice round? </p><p> Remember, press <strong>F</strong> or <strong>J</strong> depending on the wind direction.<br><img src=""img/categorize_planet_example.png""",NA,NA,NA,NA,NA,NA,NA,NA,NA,4,6,"11,14,15,1,12,2,6,4,5,7,9,3,13,10,8"
14349,commdev-instructions,26,147159,NA,1940.2000000476837,"<p>Great, now try a short practice mission. </p><p> This time, you will have 1 second to respond and you won't know whether you pressed the right or wrong key for each planet.</p>",NA,NA,NA,NA,NA,NA,NA,NA,NA,4,6,"11,14,15,1,12,2,6,4,5,7,9,3,13,10,8"
14349,commdev-image-keyboard-response,27,148538,practice,null,img/practice4_right.png,NA,Number not found in mappings,NA,FALSE,null,j,NA,NA,NA,4,6,"11,14,15,1,12,2,6,4,5,7,9,3,13,10,8"
14349,commdev-image-keyboard-response,28,149798,practice,704.4000000357628,img/practice1_left.png,NA,Number not found in mappings,NA,FALSE,j,f,NA,NA,NA,4,6,"11,14,15,1,12,2,6,4,5,7,9,3,13,10,8"
14349,commdev-image-keyboard-response,29,151057,practice,350.30000001192093,img/practice4_right.png,NA,Number not found in mappings,NA,FALSE,f,j,NA,NA,NA,4,6,"11,14,15,1,12,2,6,4,5,7,9,3,13,10,8"
14349,commdev-image-keyboard-response,30,152317,practice,35.40000003576279,img/practice3_left.png,NA,Number not found in mappings,NA,FALSE,j,f,NA,NA,NA,4,6,"11,14,15,1,12,2,6,4,5,7,9,3,13,10,8"
14349,commdev-image-keyboard-response,31,153579,practice,200.5,img/practice2_right.png,NA,Number not found in mappings,NA,FALSE,f,j,NA,NA,NA,4,6,"11,14,15,1,12,2,6,4,5,7,9,3,13,10,8"
14349,commdev-image-keyboard-response,32,154847,practice,165.30000001192093,img/practice3_right.png,NA,Number not found in mappings,NA,TRUE,j,j,NA,NA,NA,4,6,"11,14,15,1,12,2,6,4,5,7,9,3,13,10,8"
14349,commdev-image-keyboard-response,33,156103,practice,42.19999998807907,img/practice1_left.png,NA,Number not found in mappings,NA,FALSE,j,f,NA,NA,NA,4,6,"11,14,15,1,12,2,6,4,5,7,9,3,13,10,8"
14349,commdev-image-keyboard-response,34,157364,practice,311.5,img/practice2_left.png,NA,Number not found in mappings,NA,FALSE,j,f,NA,NA,NA,4,6,"11,14,15,1,12,2,6,4,5,7,9,3,13,10,8"
14349,commdev-instructions,35,168788,NA,1868.800000011921,"<p>Great job with the practice round.</p><p>During real missions, you won't know whether you pressed the right or wrong key for each planet.</p><p>But between missions, we will tell you how you did overall.</p>",NA,NA,NA,NA,NA,NA,NA,NA,NA,4,6,"11,14,15,1,12,2,6,4,5,7,9,3,13,10,8"
14349,commdev-instructions,36,178196,NA,1156.4000000357628,<p>Try your best! You will be paid a bonus based on how many correct responses you make!</p><p>Responses that are too slow will not count toward your bonus.</p>,NA,NA,NA,NA,NA,NA,NA,NA,NA,4,6,"11,14,15,1,12,2,6,4,5,7,9,3,13,10,8"
14349,commdev-instructions,37,185086,NA,677,"<p>You are almost ready to start the real game.</p><p> First, we are going to ask you some questions about how the game works.</p>",NA,NA,NA,NA,NA,NA,NA,NA,NA,4,6,"11,14,15,1,12,2,6,4,5,7,9,3,13,10,8"
14349,commdev-instructions,46,266988,NA,1759,"<p> Nice work! It is now time to start the real game.<p></p>You will go on two missions to record wind directions of different planets.<p></p>Each one will take about 5 minutes. You will get to take a break between missions.<p><p> Remember, press <strong>F</strong> or <strong>J</strong> depending on the wind direction. Good luck!<br><img src=""img/categorize_planet_example.png""",NA,NA,NA,NA,NA,NA,NA,NA,NA,4,6,"11,14,15,1,12,2,6,4,5,7,9,3,13,10,8"
14349,commdev-image-keyboard-response,48,271914,learnblock1,691.7000000476837,img/planet12_left.png,12,Community 1,NA,FALSE,j,f,NA,NA,NA,4,6,"11,14,15,1,12,2,6,4,5,7,9,3,13,10,8"
14349,commdev-image-keyboard-response,49,273177,learnblock1,455,img/planet15_left.png,15,Community 1,NA,TRUE,f,f,NA,NA,NA,4,6,"11,14,15,1,12,2,6,4,5,7,9,3,13,10,8"
14349,commdev-image-keyboard-response,50,274432,learnblock1,952.1000000238419,img/planet11_left.png,11,Community 1,NA,TRUE,f,f,NA,NA,NA,4,6,"11,14,15,1,12,2,6,4,5,7,9,3,13,10,8"
14349,commdev-image-keyboard-response,51,275697,learnblock1,744,img/planet12_right.png,12,Community 1,NA,TRUE,j,j,NA,NA,NA,4,6,"11,14,15,1,12,2,6,4,5,7,9,3,13,10,8"
14349,commdev-image-keyboard-response,52,276952,learnblock1,846.1000000238419,img/planet11_left.png,11,Community 1,NA,TRUE,f,f,NA,NA,NA,4,6,"11,14,15,1,12,2,6,4,5,7,9,3,13,10,8"
14349,commdev-image-keyboard-response,53,278217,learnblock1,872.6000000238419,img/planet15_left.png,15,Community 1,NA,TRUE,f,f,NA,NA,NA,4,6,"11,14,15,1,12,2,6,4,5,7,9,3,13,10,8"
14349,commdev-image-keyboard-response,54,279472,learnblock1,829.3000000119209,img/planet1_left.png,1,Community 1,NA,TRUE,f,f,NA,NA,NA,4,6,"11,14,15,1,12,2,6,4,5,7,9,3,13,10,8"
14349,commdev-image-keyboard-response,55,280730,learnblock1,995.1000000238419,img/planet2_left.png,2,Community 2,NA,TRUE,f,f,NA,NA,NA,4,6,"11,14,15,1,12,2,6,4,5,7,9,3,13,10,8"
14349,commdev-image-keyboard-response,56,281988,learnblock1,820.3000000119209,img/planet7_left.png,7,Community 2,NA,TRUE,f,f,NA,NA,NA,4,6,"11,14,15,1,12,2,6,4,5,7,9,3,13,10,8"
14349,commdev-image-keyboard-response,57,283253,learnblock1,903.1999999880791,img/planet4_left.png,4,Community 2,NA,TRUE,f,f,NA,NA,NA,4,6,"11,14,15,1,12,2,6,4,5,7,9,3,13,10,8"
14349,commdev-image-keyboard-response,58,284514,learnblock1,802.3000000119209,img/planet7_right.png,7,Community 2,NA,TRUE,j,j,NA,NA,NA,4,6,"11,14,15,1,12,2,6,4,5,7,9,3,13,10,8"
14349,commdev-image-keyboard-response,59,285777,learnblock1,714.8999999761581,img/planet4_right.png,4,Community 2,NA,TRUE,j,j,NA,NA,NA,4,6,"11,14,15,1,12,2,6,4,5,7,9,3,13,10,8"
14349,commdev-image-keyboard-response,60,287037,learnblock1,644.6999999880791,img/planet6_left.png,6,Community 2,NA,TRUE,f,f,NA,NA,NA,4,6,"11,14,15,1,12,2,6,4,5,7,9,3,13,10,8"
14349,commdev-image-keyboard-response,61,288297,learnblock1,597.6000000238419,img/planet5_left.png,5,Community 2,NA,TRUE,f,f,NA,NA,NA,4,6,"11,14,15,1,12,2,6,4,5,7,9,3,13,10,8"
14349,commdev-image-keyboard-response,62,289552,learnblock1,803,img/planet4_left.png,4,Community 2,NA,TRUE,f,f,NA,NA,NA,4,6,"11,14,15,1,12,2,6,4,5,7,9,3,13,10,8"
14349,commdev-image-keyboard-response,63,290821,learnblock1,781.3000000119209,img/planet7_left.png,7,Community 2,NA,TRUE,f,f,NA,NA,NA,4,6,"11,14,15,1,12,2,6,4,5,7,9,3,13,10,8"
14349,commdev-image-keyboard-response,64,292082,learnblock1,636.6999999880791,img/planet6_right.png,6,Community 2,NA,TRUE,j,j,NA,NA,NA,4,6,"11,14,15,1,12,2,6,4,5,7,9,3,13,10,8"
14349,commdev-image-keyboard-response,65,293337,learnblock1,900.6999999880791,img/planet4_right.png,4,Community 2,NA,TRUE,j,j,NA,NA,NA,4,6,"11,14,15,1,12,2,6,4,5,7,9,3,13,10,8"
14349,commdev-image-keyboard-response,66,294607,learnblock1,834.3999999761581,img/planet7_right.png,7,Community 2,NA,TRUE,j,j,NA,NA,NA,4,6,"11,14,15,1,12,2,6,4,5,7,9,3,13,10,8"
14349,commdev-image-keyboard-response,67,295869,learnblock1,466.10000002384186,img/planet2_left.png,2,Community 2,NA,FALSE,j,f,NA,NA,NA,4,6,"11,14,15,1,12,2,6,4,5,7,9,3,13,10,8"
14349,commdev-image-keyboard-response,68,297136,learnblock1,979.2999999523163,img/planet7_right.png,7,Community 2,NA,FALSE,f,j,NA,NA,NA,4,6,"11,14,15,1,12,2,6,4,5,7,9,3,13,10,8"
14349,commdev-image-keyboard-response,69,298395,learnblock1,834.4000000357628,img/planet4_left.png,4,Community 2,NA,TRUE,f,f,NA,NA,NA,4,6,"11,14,15,1,12,2,6,4,5,7,9,3,13,10,8"
14349,commdev-image-keyboard-response,70,299653,learnblock1,700.3000000119209,img/planet5_right.png,5,Community 2,NA,TRUE,j,j,NA,NA,NA,4,6,"11,14,15,1,12,2,6,4,5,7,9,3,13,10,8"
14349,commdev-image-keyboard-response,71,300909,learnblock1,798.6999999880791,img/planet4_right.png,4,Community 2,NA,TRUE,j,j,NA,NA,NA,4,6,"11,14,15,1,12,2,6,4,5,7,9,3,13,10,8"
14349,commdev-image-keyboard-response,72,302164,learnblock1,179.19999998807907,img/planet6_right.png,6,Community 2,NA,TRUE,j,j,NA,NA,NA,4,6,"11,14,15,1,12,2,6,4,5,7,9,3,13,10,8"
14349,commdev-image-keyboard-response,73,303426,learnblock1,725.1999999880791,img/planet7_left.png,7,Community 2,NA,TRUE,f,f,NA,NA,NA,4,6,"11,14,15,1,12,2,6,4,5,7,9,3,13,10,8"
14349,commdev-image-keyboard-response,74,304677,learnblock1,971.8999999761581,img/planet2_right.png,2,Community 2,NA,FALSE,f,j,NA,NA,NA,4,6,"11,14,15,1,12,2,6,4,5,7,9,3,13,10,8"
14349,commdev-image-keyboard-response,75,305932,learnblock1,1052,img/planet7_right.png,7,Community 2,NA,TRUE,j,j,NA,NA,NA,4,6,"11,14,15,1,12,2,6,4,5,7,9,3,13,10,8"
14349,commdev-image-keyboard-response,76,307185,learnblock1,594.6000000238419,img/planet5_right.png,5,Community 2,NA,TRUE,j,j,NA,NA,NA,4,6,"11,14,15,1,12,2,6,4,5,7,9,3,13,10,8"
14349,commdev-image-keyboard-response,77,308439,learnblock1,725.4000000357628,img/planet2_left.png,2,Community 2,NA,TRUE,f,f,NA,NA,NA,4,6,"11,14,15,1,12,2,6,4,5,7,9,3,13,10,8"
14349,commdev-image-keyboard-response,78,309697,learnblock1,677.1000000238419,img/planet5_right.png,5,Community 2,NA,TRUE,j,j,NA,NA,NA,4,6,"11,14,15,1,12,2,6,4,5,7,9,3,13,10,8"
14349,commdev-image-keyboard-response,79,310961,learnblock1,755.2999999523163,img/planet7_left.png,7,Community 2,NA,TRUE,f,f,NA,NA,NA,4,6,"11,14,15,1,12,2,6,4,5,7,9,3,13,10,8"
14349,commdev-image-keyboard-response,80,312213,learnblock1,309.80000001192093,img/planet2_left.png,2,Community 2,NA,FALSE,j,f,NA,NA,NA,4,6,"11,14,15,1,12,2,6,4,5,7,9,3,13,10,8"
14349,commdev-image-keyboard-response,81,313474,learnblock1,923.3999999761581,img/planet6_left.png,6,Community 2,NA,TRUE,f,f,NA,NA,NA,4,6,"11,14,15,1,12,2,6,4,5,7,9,3,13,10,8"
14349,commdev-image-keyboard-response,82,314732,learnblock1,831.3999999761581,img/planet5_right.png,5,Community 2,NA,TRUE,j,j,NA,NA,NA,4,6,"11,14,15,1,12,2,6,4,5,7,9,3,13,10,8"
14349,commdev-image-keyboard-response,83,315996,learnblock1,600,img/planet6_left.png,6,Community 2,NA,TRUE,f,f,NA,NA,NA,4,6,"11,14,15,1,12,2,6,4,5,7,9,3,13,10,8"
14349,commdev-image-keyboard-response,84,317252,learnblock1,787.6000000238419,img/planet7_right.png,7,Community 2,NA,TRUE,j,j,NA,NA,NA,4,6,"11,14,15,1,12,2,6,4,5,7,9,3,13,10,8"
14349,commdev-image-keyboard-response,85,318509,learnblock1,834.1999999880791,img/planet5_left.png,5,Community 2,NA,TRUE,f,f,NA,NA,NA,4,6,"11,14,15,1,12,2,6,4,5,7,9,3,13,10,8"
14349,commdev-image-keyboard-response,86,319768,learnblock1,867.4000000357628,img/planet7_left.png,7,Community 2,NA,TRUE,f,f,NA,NA,NA,4,6,"11,14,15,1,12,2,6,4,5,7,9,3,13,10,8"
14349,commdev-image-keyboard-response,87,321020,learnblock1,858,img/planet6_left.png,6,Community 2,NA,TRUE,f,f,NA,NA,NA,4,6,"11,14,15,1,12,2,6,4,5,7,9,3,13,10,8"
14349,commdev-image-keyboard-response,88,322279,learnblock1,622.3999999761581,img/planet7_left.png,7,Community 2,NA,TRUE,f,f,NA,NA,NA,4,6,"11,14,15,1,12,2,6,4,5,7,9,3,13,10,8"
14349,commdev-image-keyboard-response,89,323543,learnblock1,827.0999999642372,img/planet4_right.png,4,Community 2,NA,TRUE,j,j,NA,NA,NA,4,6,"11,14,15,1,12,2,6,4,5,7,9,3,13,10,8"
14349,commdev-image-keyboard-response,90,324796,learnblock1,711.1000000238419,img/planet5_right.png,5,Community 2,NA,TRUE,j,j,NA,NA,NA,4,6,"11,14,15,1,12,2,6,4,5,7,9,3,13,10,8"
14349,commdev-image-keyboard-response,91,326049,learnblock1,592.8999999761581,img/planet2_left.png,2,Community 2,NA,FALSE,j,f,NA,NA,NA,4,6,"11,14,15,1,12,2,6,4,5,7,9,3,13,10,8"
14349,commdev-image-keyboard-response,92,327303,learnblock1,null,img/planet7_left.png,7,Community 2,NA,FALSE,null,f,NA,NA,NA,4,6,"11,14,15,1,12,2,6,4,5,7,9,3,13,10,8"
14349,commdev-image-keyboard-response,93,328563,learnblock1,891,img/planet5_right.png,5,Community 2,NA,TRUE,j,j,NA,NA,NA,4,6,"11,14,15,1,12,2,6,4,5,7,9,3,13,10,8"
14349,commdev-image-keyboard-response,94,329815,learnblock1,539.5,img/planet2_right.png,2,Community 2,NA,TRUE,j,j,NA,NA,NA,4,6,"11,14,15,1,12,2,6,4,5,7,9,3,13,10,8"
14349,commdev-image-keyboard-response,95,331074,learnblock1,676.6999999880791,img/planet7_right.png,7,Community 2,NA,TRUE,j,j,NA,NA,NA,4,6,"11,14,15,1,12,2,6,4,5,7,9,3,13,10,8"
14349,commdev-image-keyboard-response,96,332331,learnblock1,555.1999999880791,img/planet2_left.png,2,Community 2,NA,FALSE,j,f,NA,NA,NA,4,6,"11,14,15,1,12,2,6,4,5,7,9,3,13,10,8"
14349,commdev-image-keyboard-response,97,333590,learnblock1,684.6000000238419,img/planet7_right.png,7,Community 2,NA,TRUE,j,j,NA,NA,NA,4,6,"11,14,15,1,12,2,6,4,5,7,9,3,13,10,8"
14349,commdev-image-keyboard-response,98,334856,learnblock1,648,img/planet2_left.png,2,Community 2,NA,TRUE,f,f,NA,NA,NA,4,6,"11,14,15,1,12,2,6,4,5,7,9,3,13,10,8"
14349,commdev-image-keyboard-response,99,336121,learnblock1,740.1000000238419,img/planet1_left.png,1,Community 1,NA,TRUE,f,f,NA,NA,NA,4,6,"11,14,15,1,12,2,6,4,5,7,9,3,13,10,8"
14349,commdev-image-keyboard-response,100,337375,learnblock1,828.9000000357628,img/planet2_right.png,2,Community 2,NA,TRUE,j,j,NA,NA,NA,4,6,"11,14,15,1,12,2,6,4,5,7,9,3,13,10,8"
14349,commdev-image-keyboard-response,101,338643,learnblock1,881.8999999761581,img/planet7_right.png,7,Community 2,NA,TRUE,j,j,NA,NA,NA,4,6,"11,14,15,1,12,2,6,4,5,7,9,3,13,10,8"
14349,commdev-image-keyboard-response,102,339894,learnblock1,639.1999999880791,img/planet5_left.png,5,Community 2,NA,TRUE,f,f,NA,NA,NA,4,6,"11,14,15,1,12,2,6,4,5,7,9,3,13,10,8"
14349,commdev-image-keyboard-response,103,341147,learnblock1,null,img/planet7_right.png,7,Community 2,NA,FALSE,null,j,NA,NA,NA,4,6,"11,14,15,1,12,2,6,4,5,7,9,3,13,10,8"
14349,commdev-image-keyboard-response,104,342402,learnblock1,16.100000023841858,img/planet2_right.png,2,Community 2,NA,TRUE,j,j,NA,NA,NA,4,6,"11,14,15,1,12,2,6,4,5,7,9,3,13,10,8"
14349,commdev-image-keyboard-response,105,343655,learnblock1,207.5,img/planet6_right.png,6,Community 2,NA,TRUE,j,j,NA,NA,NA,4,6,"11,14,15,1,12,2,6,4,5,7,9,3,13,10,8"
14349,commdev-image-keyboard-response,106,344915,learnblock1,500.5,img/planet4_right.png,4,Community 2,NA,TRUE,j,j,NA,NA,NA,4,6,"11,14,15,1,12,2,6,4,5,7,9,3,13,10,8"
14349,commdev-image-keyboard-response,107,346183,learnblock1,668.1999999880791,img/planet7_left.png,7,Community 2,NA,TRUE,f,f,NA,NA,NA,4,6,"11,14,15,1,12,2,6,4,5,7,9,3,13,10,8"
14349,commdev-image-keyboard-response,108,347437,learnblock1,693.1000000238419,img/planet4_right.png,4,Community 2,NA,TRUE,j,j,NA,NA,NA,4,6,"11,14,15,1,12,2,6,4,5,7,9,3,13,10,8"
14349,commdev-image-keyboard-response,109,348693,learnblock1,1003.3000000119209,img/planet3_left.png,3,Community 3,NA,TRUE,f,f,NA,NA,NA,4,6,"11,14,15,1,12,2,6,4,5,7,9,3,13,10,8"
14349,commdev-image-keyboard-response,110,349950,learnblock1,756.6999999880791,img/planet13_left.png,13,Community 3,NA,TRUE,f,f,NA,NA,NA,4,6,"11,14,15,1,12,2,6,4,5,7,9,3,13,10,8"
14349,commdev-image-keyboard-response,111,351206,learnblock1,767.3000000119209,img/planet10_right.png,10,Community 3,NA,TRUE,j,j,NA,NA,NA,4,6,"11,14,15,1,12,2,6,4,5,7,9,3,13,10,8"
14349,commdev-image-keyboard-response,112,352461,learnblock1,756.5,img/planet3_right.png,3,Community 3,NA,TRUE,j,j,NA,NA,NA,4,6,"11,14,15,1,12,2,6,4,5,7,9,3,13,10,8"
14349,commdev-image-keyboard-response,113,353712,learnblock1,665.3999999761581,img/planet13_right.png,13,Community 3,NA,TRUE,j,j,NA,NA,NA,4,6,"11,14,15,1,12,2,6,4,5,7,9,3,13,10,8"
14349,commdev-image-keyboard-response,114,354980,learnblock1,749.5999999642372,img/planet9_left.png,9,Community 3,NA,TRUE,f,f,NA,NA,NA,4,6,"11,14,15,1,12,2,6,4,5,7,9,3,13,10,8"
14349,commdev-image-keyboard-response,115,356237,learnblock1,775.7000000476837,img/planet12_left.png,12,Community 1,NA,TRUE,f,f,NA,NA,NA,4,6,"11,14,15,1,12,2,6,4,5,7,9,3,13,10,8"
14349,commdev-image-keyboard-response,116,357499,learnblock1,815.2000000476837,img/planet15_left.png,15,Community 1,NA,TRUE,f,f,NA,NA,NA,4,6,"11,14,15,1,12,2,6,4,5,7,9,3,13,10,8"
14349,commdev-image-keyboard-response,117,358750,learnblock1,819,img/planet11_right.png,11,Community 1,NA,TRUE,j,j,NA,NA,NA,4,6,"11,14,15,1,12,2,6,4,5,7,9,3,13,10,8"
14349,commdev-image-keyboard-response,118,360009,learnblock1,1022.2000000476837,img/planet15_right.png,15,Community 1,NA,TRUE,j,j,NA,NA,NA,4,6,"11,14,15,1,12,2,6,4,5,7,9,3,13,10,8"
14349,commdev-image-keyboard-response,119,361266,learnblock1,1001.6000000238419,img/planet12_right.png,12,Community 1,NA,TRUE,j,j,NA,NA,NA,4,6,"11,14,15,1,12,2,6,4,5,7,9,3,13,10,8"
14349,commdev-image-keyboard-response,120,362522,learnblock1,724.8000000119209,img/planet11_left.png,11,Community 1,NA,TRUE,f,f,NA,NA,NA,4,6,"11,14,15,1,12,2,6,4,5,7,9,3,13,10,8"
14349,commdev-image-keyboard-response,121,363777,learnblock1,692.8000000119209,img/planet15_left.png,15,Community 1,NA,TRUE,f,f,NA,NA,NA,4,6,"11,14,15,1,12,2,6,4,5,7,9,3,13,10,8"
14349,commdev-image-keyboard-response,122,365036,learnblock1,659.3000000119209,img/planet11_right.png,11,Community 1,NA,TRUE,j,j,NA,NA,NA,4,6,"11,14,15,1,12,2,6,4,5,7,9,3,13,10,8"
14349,commdev-image-keyboard-response,123,366291,learnblock1,882.3999999761581,img/planet1_left.png,1,Community 1,NA,TRUE,f,f,NA,NA,NA,4,6,"11,14,15,1,12,2,6,4,5,7,9,3,13,10,8"
14349,commdev-image-keyboard-response,124,367542,learnblock1,750.8000000119209,img/planet14_right.png,14,Community 1,NA,TRUE,j,j,NA,NA,NA,4,6,"11,14,15,1,12,2,6,4,5,7,9,3,13,10,8"
14349,commdev-image-keyboard-response,125,368795,learnblock1,654.1000000238419,img/planet15_left.png,15,Community 1,NA,TRUE,f,f,NA,NA,NA,4,6,"11,14,15,1,12,2,6,4,5,7,9,3,13,10,8"
14349,commdev-image-keyboard-response,126,370052,learnblock1,1204.4000000357628,img/planet11_right.png,11,Community 1,NA,TRUE,j,j,NA,NA,NA,4,6,"11,14,15,1,12,2,6,4,5,7,9,3,13,10,8"
14349,commdev-image-keyboard-response,127,371309,learnblock1,831.1000000238419,img/planet14_right.png,14,Community 1,NA,FALSE,f,j,NA,NA,NA,4,6,"11,14,15,1,12,2,6,4,5,7,9,3,13,10,8"
14349,commdev-image-keyboard-response,128,372561,learnblock1,497.80000001192093,img/planet1_left.png,1,Community 1,NA,FALSE,j,f,NA,NA,NA,4,6,"11,14,15,1,12,2,6,4,5,7,9,3,13,10,8"
14349,commdev-image-keyboard-response,129,373816,learnblock1,323.19999998807907,img/planet11_left.png,11,Community 1,NA,TRUE,f,f,NA,NA,NA,4,6,"11,14,15,1,12,2,6,4,5,7,9,3,13,10,8"
14349,commdev-image-keyboard-response,130,375068,learnblock1,198.0999999642372,img/planet14_right.png,14,Community 1,NA,TRUE,j,j,NA,NA,NA,4,6,"11,14,15,1,12,2,6,4,5,7,9,3,13,10,8"
14349,commdev-image-keyboard-response,131,376322,learnblock1,7.800000011920929,img/planet15_right.png,15,Community 1,NA,TRUE,j,j,NA,NA,NA,4,6,"11,14,15,1,12,2,6,4,5,7,9,3,13,10,8"
14349,commdev-image-keyboard-response,132,377575,learnblock1,14,img/planet14_left.png,14,Community 1,NA,FALSE,j,f,NA,NA,NA,4,6,"11,14,15,1,12,2,6,4,5,7,9,3,13,10,8"
14349,commdev-image-keyboard-response,133,378828,learnblock1,140.5999999642372,img/planet11_left.png,11,Community 1,NA,TRUE,f,f,NA,NA,NA,4,6,"11,14,15,1,12,2,6,4,5,7,9,3,13,10,8"
14349,commdev-image-keyboard-response,134,380084,learnblock1,29.19999998807907,img/planet15_right.png,15,Community 1,NA,TRUE,j,j,NA,NA,NA,4,6,"11,14,15,1,12,2,6,4,5,7,9,3,13,10,8"
14349,commdev-image-keyboard-response,135,381340,learnblock1,85.60000002384186,img/planet14_left.png,14,Community 1,NA,FALSE,j,f,NA,NA,NA,4,6,"11,14,15,1,12,2,6,4,5,7,9,3,13,10,8"
14349,commdev-image-keyboard-response,136,382601,learnblock1,56.5,img/planet15_right.png,15,Community 1,NA,TRUE,j,j,NA,NA,NA,4,6,"11,14,15,1,12,2,6,4,5,7,9,3,13,10,8"
14349,commdev-image-keyboard-response,137,383853,learnblock1,103.59999996423721,img/planet11_right.png,11,Community 1,NA,TRUE,j,j,NA,NA,NA,4,6,"11,14,15,1,12,2,6,4,5,7,9,3,13,10,8"
14349,commdev-image-keyboard-response,138,385112,learnblock1,18.69999998807907,img/planet14_left.png,14,Community 1,NA,FALSE,j,f,NA,NA,NA,4,6,"11,14,15,1,12,2,6,4,5,7,9,3,13,10,8"
14349,commdev-image-keyboard-response,139,386368,learnblock1,114.19999998807907,img/planet12_right.png,12,Community 1,NA,TRUE,j,j,NA,NA,NA,4,6,"11,14,15,1,12,2,6,4,5,7,9,3,13,10,8"
14349,commdev-image-keyboard-response,140,387619,learnblock1,92.09999996423721,img/planet11_right.png,11,Community 1,NA,TRUE,j,j,NA,NA,NA,4,6,"11,14,15,1,12,2,6,4,5,7,9,3,13,10,8"
14349,commdev-image-keyboard-response,141,388875,learnblock1,211,img/planet14_left.png,14,Community 1,NA,FALSE,j,f,NA,NA,NA,4,6,"11,14,15,1,12,2,6,4,5,7,9,3,13,10,8"
14349,commdev-image-keyboard-response,142,390135,learnblock1,80.20000004768372,img/planet1_right.png,1,Community 1,NA,TRUE,j,j,NA,NA,NA,4,6,"11,14,15,1,12,2,6,4,5,7,9,3,13,10,8"
14349,commdev-image-keyboard-response,143,391392,learnblock1,158.39999997615814,img/planet14_left.png,14,Community 1,NA,FALSE,j,f,NA,NA,NA,4,6,"11,14,15,1,12,2,6,4,5,7,9,3,13,10,8"
14349,commdev-image-keyboard-response,144,392649,learnblock1,170.5999999642372,img/planet11_left.png,11,Community 1,NA,FALSE,j,f,NA,NA,NA,4,6,"11,14,15,1,12,2,6,4,5,7,9,3,13,10,8"
14349,commdev-image-keyboard-response,145,393904,learnblock1,48.09999996423721,img/planet15_right.png,15,Community 1,NA,FALSE,f,j,NA,NA,NA,4,6,"11,14,15,1,12,2,6,4,5,7,9,3,13,10,8"
14349,commdev-image-keyboard-response,146,395164,learnblock1,17.899999976158142,img/planet12_right.png,12,Community 1,NA,TRUE,j,j,NA,NA,NA,4,6,"11,14,15,1,12,2,6,4,5,7,9,3,13,10,8"
14349,commdev-image-keyboard-response,147,396421,learnblock1,192.5,img/planet11_left.png,11,Community 1,NA,FALSE,j,f,NA,NA,NA,4,6,"11,14,15,1,12,2,6,4,5,7,9,3,13,10,8"
14349,commdev-image-keyboard-response,148,397678,learnblock1,325.10000002384186,img/planet12_right.png,12,Community 1,NA,TRUE,j,j,NA,NA,NA,4,6,"11,14,15,1,12,2,6,4,5,7,9,3,13,10,8"
14349,commdev-image-keyboard-response,149,398932,learnblock1,312.9000000357628,img/planet11_left.png,11,Community 1,NA,FALSE,j,f,NA,NA,NA,4,6,"11,14,15,1,12,2,6,4,5,7,9,3,13,10,8"
14349,commdev-image-keyboard-response,150,400185,learnblock1,319.10000002384186,img/planet15_right.png,15,Community 1,NA,TRUE,j,j,NA,NA,NA,4,6,"11,14,15,1,12,2,6,4,5,7,9,3,13,10,8"
14349,commdev-image-keyboard-response,151,401440,learnblock1,290,img/planet12_right.png,12,Community 1,NA,FALSE,f,j,NA,NA,NA,4,6,"11,14,15,1,12,2,6,4,5,7,9,3,13,10,8"
14349,commdev-image-keyboard-response,152,402702,learnblock1,982.1000000238419,img/planet9_right.png,9,Community 3,NA,FALSE,f,j,NA,NA,NA,4,6,"11,14,15,1,12,2,6,4,5,7,9,3,13,10,8"
14349,commdev-image-keyboard-response,153,403961,learnblock1,692.5,img/planet10_left.png,10,Community 3,NA,FALSE,j,f,NA,NA,NA,4,6,"11,14,15,1,12,2,6,4,5,7,9,3,13,10,8"
14349,commdev-image-keyboard-response,154,405219,learnblock1,712.3000000119209,img/planet13_left.png,13,Community 3,NA,FALSE,j,f,NA,NA,NA,4,6,"11,14,15,1,12,2,6,4,5,7,9,3,13,10,8"
14349,commdev-image-keyboard-response,155,406475,learnblock1,1115.800000011921,img/planet10_left.png,10,Community 3,NA,TRUE,f,f,NA,NA,NA,4,6,"11,14,15,1,12,2,6,4,5,7,9,3,13,10,8"
14349,commdev-image-keyboard-response,156,407736,learnblock1,1208.5,img/planet9_right.png,9,Community 3,NA,TRUE,j,j,NA,NA,NA,4,6,"11,14,15,1,12,2,6,4,5,7,9,3,13,10,8"
14349,commdev-image-keyboard-response,157,408990,learnblock1,861.8000000119209,img/planet13_left.png,13,Community 3,NA,FALSE,j,f,NA,NA,NA,4,6,"11,14,15,1,12,2,6,4,5,7,9,3,13,10,8"
14349,commdev-image-keyboard-response,158,410243,learnblock1,1198.1000000238419,img/planet9_right.png,9,Community 3,NA,TRUE,j,j,NA,NA,NA,4,6,"11,14,15,1,12,2,6,4,5,7,9,3,13,10,8"
14349,commdev-image-keyboard-response,159,411496,learnblock1,750.1999999880791,img/planet12_right.png,12,Community 1,NA,TRUE,j,j,NA,NA,NA,4,6,"11,14,15,1,12,2,6,4,5,7,9,3,13,10,8"
14349,commdev-image-keyboard-response,160,412756,learnblock1,752.4000000357628,img/planet11_left.png,11,Community 1,NA,TRUE,f,f,NA,NA,NA,4,6,"11,14,15,1,12,2,6,4,5,7,9,3,13,10,8"
14349,commdev-image-keyboard-response,161,414013,learnblock1,976.1000000238419,img/planet12_right.png,12,Community 1,NA,TRUE,j,j,NA,NA,NA,4,6,"11,14,15,1,12,2,6,4,5,7,9,3,13,10,8"
14349,commdev-image-keyboard-response,162,415273,learnblock1,876.1000000238419,img/planet14_right.png,14,Community 1,NA,TRUE,j,j,NA,NA,NA,4,6,"11,14,15,1,12,2,6,4,5,7,9,3,13,10,8"
14349,commdev-image-keyboard-response,163,416526,learnblock1,776.0999999642372,img/planet15_left.png,15,Community 1,NA,TRUE,f,f,NA,NA,NA,4,6,"11,14,15,1,12,2,6,4,5,7,9,3,13,10,8"
14349,commdev-image-keyboard-response,164,417782,learnblock1,759.1000000238419,img/planet14_right.png,14,Community 1,NA,TRUE,j,j,NA,NA,NA,4,6,"11,14,15,1,12,2,6,4,5,7,9,3,13,10,8"
14349,commdev-image-keyboard-response,165,419040,learnblock1,1025.199999988079,img/planet11_right.png,11,Community 1,NA,TRUE,j,j,NA,NA,NA,4,6,"11,14,15,1,12,2,6,4,5,7,9,3,13,10,8"
14349,commdev-image-keyboard-response,166,420295,learnblock1,null,img/planet15_right.png,15,Community 1,NA,FALSE,null,j,NA,NA,NA,4,6,"11,14,15,1,12,2,6,4,5,7,9,3,13,10,8"
14349,commdev-image-keyboard-response,167,421562,learnblock1,92.30000001192093,img/planet14_right.png,14,Community 1,NA,TRUE,j,j,NA,NA,NA,4,6,"11,14,15,1,12,2,6,4,5,7,9,3,13,10,8"
14349,commdev-image-keyboard-response,168,422814,learnblock1,806.1999999880791,img/planet12_left.png,12,Community 1,NA,TRUE,f,f,NA,NA,NA,4,6,"11,14,15,1,12,2,6,4,5,7,9,3,13,10,8"
14349,commdev-image-keyboard-response,169,424070,learnblock1,1117.9000000357628,img/planet14_left.png,14,Community 1,NA,FALSE,j,f,NA,NA,NA,4,6,"11,14,15,1,12,2,6,4,5,7,9,3,13,10,8"
14349,commdev-image-keyboard-response,170,425327,learnblock1,30.899999976158142,img/planet12_right.png,12,Community 1,NA,FALSE,f,j,NA,NA,NA,4,6,"11,14,15,1,12,2,6,4,5,7,9,3,13,10,8"
14349,commdev-image-keyboard-response,171,426581,learnblock1,1188.300000011921,img/planet15_right.png,15,Community 1,NA,TRUE,j,j,NA,NA,NA,4,6,"11,14,15,1,12,2,6,4,5,7,9,3,13,10,8"
14349,commdev-image-keyboard-response,172,427835,learnblock1,1097.699999988079,img/planet1_right.png,1,Community 1,NA,FALSE,f,j,NA,NA,NA,4,6,"11,14,15,1,12,2,6,4,5,7,9,3,13,10,8"
14349,commdev-image-keyboard-response,173,429091,learnblock1,1094.1000000238419,img/planet2_right.png,2,Community 2,NA,TRUE,j,j,NA,NA,NA,4,6,"11,14,15,1,12,2,6,4,5,7,9,3,13,10,8"
14349,commdev-image-keyboard-response,174,430347,learnblock1,808.0999999642372,img/planet5_left.png,5,Community 2,NA,TRUE,f,f,NA,NA,NA,4,6,"11,14,15,1,12,2,6,4,5,7,9,3,13,10,8"
14349,commdev-image-keyboard-response,175,431605,learnblock1,1033.0999999642372,img/planet4_right.png,4,Community 2,NA,TRUE,j,j,NA,NA,NA,4,6,"11,14,15,1,12,2,6,4,5,7,9,3,13,10,8"
14349,commdev-image-keyboard-response,176,432860,learnblock1,906.8000000119209,img/planet7_left.png,7,Community 2,NA,TRUE,f,f,NA,NA,NA,4,6,"11,14,15,1,12,2,6,4,5,7,9,3,13,10,8"
14349,commdev-image-keyboard-response,177,434113,learnblock1,1180.5999999642372,img/planet6_left.png,6,Community 2,NA,TRUE,f,f,NA,NA,NA,4,6,"11,14,15,1,12,2,6,4,5,7,9,3,13,10,8"
14349,commdev-image-keyboard-response,178,435368,learnblock1,1051.699999988079,img/planet5_right.png,5,Community 2,NA,TRUE,j,j,NA,NA,NA,4,6,"11,14,15,1,12,2,6,4,5,7,9,3,13,10,8"
14349,commdev-image-keyboard-response,179,436620,learnblock1,1088.5,img/planet2_right.png,2,Community 2,NA,TRUE,j,j,NA,NA,NA,4,6,"11,14,15,1,12,2,6,4,5,7,9,3,13,10,8"
14349,commdev-image-keyboard-response,180,437875,learnblock1,null,img/planet7_right.png,7,Community 2,NA,FALSE,null,j,NA,NA,NA,4,6,"11,14,15,1,12,2,6,4,5,7,9,3,13,10,8"
14349,commdev-image-keyboard-response,181,439143,learnblock1,744,img/planet5_left.png,5,Community 2,NA,FALSE,j,f,NA,NA,NA,4,6,"11,14,15,1,12,2,6,4,5,7,9,3,13,10,8"
14349,commdev-image-keyboard-response,182,440397,learnblock1,57.89999997615814,img/planet6_left.png,6,Community 2,NA,TRUE,f,f,NA,NA,NA,4,6,"11,14,15,1,12,2,6,4,5,7,9,3,13,10,8"
14349,commdev-image-keyboard-response,183,441653,learnblock1,null,img/planet5_left.png,5,Community 2,NA,FALSE,null,f,NA,NA,NA,4,6,"11,14,15,1,12,2,6,4,5,7,9,3,13,10,8"
14349,commdev-image-keyboard-response,184,442910,learnblock1,1062.2000000476837,img/planet4_left.png,4,Community 2,NA,TRUE,f,f,NA,NA,NA,4,6,"11,14,15,1,12,2,6,4,5,7,9,3,13,10,8"
14349,commdev-image-keyboard-response,185,444173,learnblock1,null,img/planet7_left.png,7,Community 2,NA,FALSE,null,f,NA,NA,NA,4,6,"11,14,15,1,12,2,6,4,5,7,9,3,13,10,8"
14349,commdev-image-keyboard-response,186,445425,learnblock1,48,img/planet4_right.png,4,Community 2,NA,TRUE,j,j,NA,NA,NA,4,6,"11,14,15,1,12,2,6,4,5,7,9,3,13,10,8"
14349,commdev-image-keyboard-response,187,446680,learnblock1,null,img/planet7_right.png,7,Community 2,NA,FALSE,null,j,NA,NA,NA,4,6,"11,14,15,1,12,2,6,4,5,7,9,3,13,10,8"
14349,commdev-image-keyboard-response,188,447933,learnblock1,554.3000000119209,img/planet5_left.png,5,Community 2,NA,TRUE,f,f,NA,NA,NA,4,6,"11,14,15,1,12,2,6,4,5,7,9,3,13,10,8"
14349,commdev-image-keyboard-response,189,449193,learnblock1,375.69999998807907,img/planet2_right.png,2,Community 2,NA,FALSE,f,j,NA,NA,NA,4,6,"11,14,15,1,12,2,6,4,5,7,9,3,13,10,8"
14349,commdev-image-keyboard-response,190,450447,learnblock1,808.1999999880791,img/planet5_right.png,5,Community 2,NA,TRUE,j,j,NA,NA,NA,4,6,"11,14,15,1,12,2,6,4,5,7,9,3,13,10,8"
14349,commdev-image-keyboard-response,191,451702,learnblock1,822,img/planet4_right.png,4,Community 2,NA,FALSE,f,j,NA,NA,NA,4,6,"11,14,15,1,12,2,6,4,5,7,9,3,13,10,8"
14349,commdev-image-keyboard-response,192,452958,learnblock1,1087.5,img/planet5_right.png,5,Community 2,NA,TRUE,j,j,NA,NA,NA,4,6,"11,14,15,1,12,2,6,4,5,7,9,3,13,10,8"
14349,commdev-image-keyboard-response,193,454210,learnblock1,1207.800000011921,img/planet2_left.png,2,Community 2,NA,TRUE,f,f,NA,NA,NA,4,6,"11,14,15,1,12,2,6,4,5,7,9,3,13,10,8"
14349,commdev-image-keyboard-response,194,455469,learnblock1,970.8999999761581,img/planet6_right.png,6,Community 2,NA,TRUE,j,j,NA,NA,NA,4,6,"11,14,15,1,12,2,6,4,5,7,9,3,13,10,8"
14349,commdev-image-keyboard-response,195,456728,learnblock1,1006.3999999761581,img/planet4_right.png,4,Community 2,NA,TRUE,j,j,NA,NA,NA,4,6,"11,14,15,1,12,2,6,4,5,7,9,3,13,10,8"
14349,commdev-image-keyboard-response,196,457985,learnblock1,844.8000000119209,img/planet3_left.png,3,Community 3,NA,TRUE,f,f,NA,NA,NA,4,6,"11,14,15,1,12,2,6,4,5,7,9,3,13,10,8"
14349,commdev-image-keyboard-response,197,459245,learnblock1,967.7999999523163,img/planet4_left.png,4,Community 2,NA,TRUE,f,f,NA,NA,NA,4,6,"11,14,15,1,12,2,6,4,5,7,9,3,13,10,8"
14349,commdev-image-keyboard-response,198,460501,learnblock1,1084.2000000476837,img/planet7_right.png,7,Community 2,NA,TRUE,j,j,NA,NA,NA,4,6,"11,14,15,1,12,2,6,4,5,7,9,3,13,10,8"
14349,commdev-image-keyboard-response,199,461753,learnblock1,659.8000000119209,img/planet2_left.png,2,Community 2,NA,FALSE,j,f,NA,NA,NA,4,6,"11,14,15,1,12,2,6,4,5,7,9,3,13,10,8"
14349,commdev-image-keyboard-response,200,463012,learnblock1,1218.6000000238419,img/planet7_left.png,7,Community 2,NA,TRUE,f,f,NA,NA,NA,4,6,"11,14,15,1,12,2,6,4,5,7,9,3,13,10,8"
14349,commdev-image-keyboard-response,201,464270,learnblock1,1041.2000000476837,img/planet6_left.png,6,Community 2,NA,FALSE,j,f,NA,NA,NA,4,6,"11,14,15,1,12,2,6,4,5,7,9,3,13,10,8"
14349,commdev-image-keyboard-response,202,465529,learnblock1,950.6999999880791,img/planet4_left.png,4,Community 2,NA,TRUE,f,f,NA,NA,NA,4,6,"11,14,15,1,12,2,6,4,5,7,9,3,13,10,8"
14349,commdev-image-keyboard-response,203,466788,learnblock1,901.5,img/planet6_right.png,6,Community 2,NA,TRUE,j,j,NA,NA,NA,4,6,"11,14,15,1,12,2,6,4,5,7,9,3,13,10,8"
14349,commdev-image-keyboard-response,204,468040,learnblock1,568.3999999761581,img/planet2_left.png,2,Community 2,NA,TRUE,f,f,NA,NA,NA,4,6,"11,14,15,1,12,2,6,4,5,7,9,3,13,10,8"
14349,commdev-image-keyboard-response,205,469306,learnblock1,804.8999999761581,img/planet1_left.png,1,Community 1,NA,TRUE,f,f,NA,NA,NA,4,6,"11,14,15,1,12,2,6,4,5,7,9,3,13,10,8"
14349,commdev-image-keyboard-response,206,470563,learnblock1,927.2999999523163,img/planet14_right.png,14,Community 1,NA,TRUE,j,j,NA,NA,NA,4,6,"11,14,15,1,12,2,6,4,5,7,9,3,13,10,8"
14349,commdev-image-keyboard-response,207,471823,learnblock1,1000.8000000119209,img/planet1_right.png,1,Community 1,NA,TRUE,j,j,NA,NA,NA,4,6,"11,14,15,1,12,2,6,4,5,7,9,3,13,10,8"
14349,commdev-image-keyboard-response,208,473076,learnblock1,517.5999999642372,img/planet2_right.png,2,Community 2,NA,TRUE,j,j,NA,NA,NA,4,6,"11,14,15,1,12,2,6,4,5,7,9,3,13,10,8"
14349,commdev-image-keyboard-response,209,474329,learnblock1,716.1999999880791,img/planet6_right.png,6,Community 2,NA,TRUE,j,j,NA,NA,NA,4,6,"11,14,15,1,12,2,6,4,5,7,9,3,13,10,8"
14349,commdev-image-keyboard-response,210,475587,learnblock1,620.8999999761581,img/planet4_left.png,4,Community 2,NA,FALSE,j,f,NA,NA,NA,4,6,"11,14,15,1,12,2,6,4,5,7,9,3,13,10,8"
14349,commdev-image-keyboard-response,211,476846,learnblock1,1096,img/planet7_right.png,7,Community 2,NA,TRUE,j,j,NA,NA,NA,4,6,"11,14,15,1,12,2,6,4,5,7,9,3,13,10,8"
14349,commdev-image-keyboard-response,212,478104,learnblock1,819.6999999880791,img/planet4_right.png,4,Community 2,NA,TRUE,j,j,NA,NA,NA,4,6,"11,14,15,1,12,2,6,4,5,7,9,3,13,10,8"
14349,commdev-image-keyboard-response,213,479359,learnblock1,967.3999999761581,img/planet6_left.png,6,Community 2,NA,TRUE,f,f,NA,NA,NA,4,6,"11,14,15,1,12,2,6,4,5,7,9,3,13,10,8"
14349,commdev-image-keyboard-response,214,480613,learnblock1,802.3000000119209,img/planet2_left.png,2,Community 2,NA,TRUE,f,f,NA,NA,NA,4,6,"11,14,15,1,12,2,6,4,5,7,9,3,13,10,8"
14349,commdev-image-keyboard-response,215,481865,learnblock1,847.3000000119209,img/planet7_right.png,7,Community 2,NA,TRUE,j,j,NA,NA,NA,4,6,"11,14,15,1,12,2,6,4,5,7,9,3,13,10,8"
14349,commdev-image-keyboard-response,216,483119,learnblock1,653.6000000238419,img/planet6_right.png,6,Community 2,NA,TRUE,j,j,NA,NA,NA,4,6,"11,14,15,1,12,2,6,4,5,7,9,3,13,10,8"
14349,commdev-image-keyboard-response,217,484380,learnblock1,802.8000000119209,img/planet5_left.png,5,Community 2,NA,TRUE,f,f,NA,NA,NA,4,6,"11,14,15,1,12,2,6,4,5,7,9,3,13,10,8"
14349,commdev-image-keyboard-response,218,485639,learnblock1,648.6000000238419,img/planet2_left.png,2,Community 2,NA,TRUE,f,f,NA,NA,NA,4,6,"11,14,15,1,12,2,6,4,5,7,9,3,13,10,8"
14349,commdev-image-keyboard-response,219,486891,learnblock1,1038.7999999523163,img/planet5_left.png,5,Community 2,NA,TRUE,f,f,NA,NA,NA,4,6,"11,14,15,1,12,2,6,4,5,7,9,3,13,10,8"
14349,commdev-image-keyboard-response,220,488144,learnblock1,1114.3999999761581,img/planet7_right.png,7,Community 2,NA,TRUE,j,j,NA,NA,NA,4,6,"11,14,15,1,12,2,6,4,5,7,9,3,13,10,8"
14349,commdev-image-keyboard-response,221,489401,learnblock1,912.6000000238419,img/planet6_left.png,6,Community 2,NA,TRUE,f,f,NA,NA,NA,4,6,"11,14,15,1,12,2,6,4,5,7,9,3,13,10,8"
14349,commdev-image-keyboard-response,222,490665,learnblock1,797.3000000119209,img/planet5_right.png,5,Community 2,NA,TRUE,j,j,NA,NA,NA,4,6,"11,14,15,1,12,2,6,4,5,7,9,3,13,10,8"
14349,commdev-image-keyboard-response,223,491928,learnblock1,656.1000000238419,img/planet7_left.png,7,Community 2,NA,TRUE,f,f,NA,NA,NA,4,6,"11,14,15,1,12,2,6,4,5,7,9,3,13,10,8"
14349,commdev-image-keyboard-response,224,493184,learnblock1,894.5,img/planet4_right.png,4,Community 2,NA,TRUE,j,j,NA,NA,NA,4,6,"11,14,15,1,12,2,6,4,5,7,9,3,13,10,8"
14349,commdev-image-keyboard-response,225,494437,learnblock1,861.1000000238419,img/planet3_left.png,3,Community 3,NA,TRUE,f,f,NA,NA,NA,4,6,"11,14,15,1,12,2,6,4,5,7,9,3,13,10,8"
14349,commdev-image-keyboard-response,226,495693,learnblock1,1051.5999999642372,img/planet4_right.png,4,Community 2,NA,TRUE,j,j,NA,NA,NA,4,6,"11,14,15,1,12,2,6,4,5,7,9,3,13,10,8"
14349,commdev-image-keyboard-response,227,496950,learnblock1,756,img/planet7_left.png,7,Community 2,NA,TRUE,f,f,NA,NA,NA,4,6,"11,14,15,1,12,2,6,4,5,7,9,3,13,10,8"
14349,commdev-image-keyboard-response,228,498213,learnblock1,755.8999999761581,img/planet4_right.png,4,Community 2,NA,TRUE,j,j,NA,NA,NA,4,6,"11,14,15,1,12,2,6,4,5,7,9,3,13,10,8"
14349,commdev-image-keyboard-response,229,499472,learnblock1,608,img/planet5_left.png,5,Community 2,NA,TRUE,f,f,NA,NA,NA,4,6,"11,14,15,1,12,2,6,4,5,7,9,3,13,10,8"
14349,commdev-image-keyboard-response,230,500726,learnblock1,669.8000000119209,img/planet4_right.png,4,Community 2,NA,TRUE,j,j,NA,NA,NA,4,6,"11,14,15,1,12,2,6,4,5,7,9,3,13,10,8"
14349,commdev-image-keyboard-response,231,501978,learnblock1,934.3000000119209,img/planet5_right.png,5,Community 2,NA,FALSE,f,j,NA,NA,NA,4,6,"11,14,15,1,12,2,6,4,5,7,9,3,13,10,8"
14349,commdev-image-keyboard-response,232,503237,learnblock1,854.6000000238419,img/planet7_left.png,7,Community 2,NA,TRUE,f,f,NA,NA,NA,4,6,"11,14,15,1,12,2,6,4,5,7,9,3,13,10,8"
14349,commdev-image-keyboard-response,233,504496,learnblock1,449.5,img/planet2_right.png,2,Community 2,NA,TRUE,j,j,NA,NA,NA,4,6,"11,14,15,1,12,2,6,4,5,7,9,3,13,10,8"
14349,commdev-image-keyboard-response,234,505757,learnblock1,776.8999999761581,img/planet5_left.png,5,Community 2,NA,FALSE,j,f,NA,NA,NA,4,6,"11,14,15,1,12,2,6,4,5,7,9,3,13,10,8"
14349,commdev-image-keyboard-response,235,507019,learnblock1,949.3999999761581,img/planet6_left.png,6,Community 2,NA,TRUE,f,f,NA,NA,NA,4,6,"11,14,15,1,12,2,6,4,5,7,9,3,13,10,8"
14349,commdev-image-keyboard-response,236,508278,learnblock1,1135.6000000238419,img/planet4_left.png,4,Community 2,NA,TRUE,f,f,NA,NA,NA,4,6,"11,14,15,1,12,2,6,4,5,7,9,3,13,10,8"
14349,commdev-image-keyboard-response,237,509534,learnblock1,794.8999999761581,img/planet7_right.png,7,Community 2,NA,TRUE,j,j,NA,NA,NA,4,6,"11,14,15,1,12,2,6,4,5,7,9,3,13,10,8"
14349,commdev-image-keyboard-response,238,510784,learnblock1,943.3000000119209,img/planet5_left.png,5,Community 2,NA,TRUE,f,f,NA,NA,NA,4,6,"11,14,15,1,12,2,6,4,5,7,9,3,13,10,8"
14349,commdev-image-keyboard-response,239,512045,learnblock1,700.1000000238419,img/planet4_right.png,4,Community 2,NA,TRUE,j,j,NA,NA,NA,4,6,"11,14,15,1,12,2,6,4,5,7,9,3,13,10,8"
14349,commdev-image-keyboard-response,240,513299,learnblock1,611,img/planet7_left.png,7,Community 2,NA,TRUE,f,f,NA,NA,NA,4,6,"11,14,15,1,12,2,6,4,5,7,9,3,13,10,8"
14349,commdev-image-keyboard-response,241,514556,learnblock1,912.1000000238419,img/planet6_left.png,6,Community 2,NA,TRUE,f,f,NA,NA,NA,4,6,"11,14,15,1,12,2,6,4,5,7,9,3,13,10,8"
14349,commdev-image-keyboard-response,242,515811,learnblock1,702.6999999880791,img/planet4_left.png,4,Community 2,NA,TRUE,f,f,NA,NA,NA,4,6,"11,14,15,1,12,2,6,4,5,7,9,3,13,10,8"
14349,commdev-image-keyboard-response,243,517070,learnblock1,664.8999999761581,img/planet5_right.png,5,Community 2,NA,TRUE,j,j,NA,NA,NA,4,6,"11,14,15,1,12,2,6,4,5,7,9,3,13,10,8"
14349,commdev-image-keyboard-response,244,518322,learnblock1,796.1000000238419,img/planet2_right.png,2,Community 2,NA,TRUE,j,j,NA,NA,NA,4,6,"11,14,15,1,12,2,6,4,5,7,9,3,13,10,8"
14349,commdev-image-keyboard-response,245,519580,learnblock1,849.3000000119209,img/planet5_left.png,5,Community 2,NA,TRUE,f,f,NA,NA,NA,4,6,"11,14,15,1,12,2,6,4,5,7,9,3,13,10,8"
14349,commdev-image-keyboard-response,246,520840,learnblock1,881.5,img/planet7_left.png,7,Community 2,NA,TRUE,f,f,NA,NA,NA,4,6,"11,14,15,1,12,2,6,4,5,7,9,3,13,10,8"
14349,commdev-image-keyboard-response,247,522091,learnblock1,804.3000000119209,img/planet6_left.png,6,Community 2,NA,TRUE,f,f,NA,NA,NA,4,6,"11,14,15,1,12,2,6,4,5,7,9,3,13,10,8"
14349,commdev-image-keyboard-response,248,523344,learnblock1,776.5,img/planet4_left.png,4,Community 2,NA,TRUE,f,f,NA,NA,NA,4,6,"11,14,15,1,12,2,6,4,5,7,9,3,13,10,8"
14349,commdev-image-keyboard-response,249,524596,learnblock1,754.5,img/planet7_right.png,7,Community 2,NA,TRUE,j,j,NA,NA,NA,4,6,"11,14,15,1,12,2,6,4,5,7,9,3,13,10,8"
14349,commdev-image-keyboard-response,250,525850,learnblock1,645.6999999880791,img/planet4_right.png,4,Community 2,NA,TRUE,j,j,NA,NA,NA,4,6,"11,14,15,1,12,2,6,4,5,7,9,3,13,10,8"
14349,commdev-image-keyboard-response,251,527107,learnblock1,858.0999999642372,img/planet6_left.png,6,Community 2,NA,TRUE,f,f,NA,NA,NA,4,6,"11,14,15,1,12,2,6,4,5,7,9,3,13,10,8"
14349,commdev-image-keyboard-response,252,528360,learnblock1,1224.6000000238419,img/planet4_left.png,4,Community 2,NA,TRUE,f,f,NA,NA,NA,4,6,"11,14,15,1,12,2,6,4,5,7,9,3,13,10,8"
14349,commdev-image-keyboard-response,253,529620,learnblock1,823.4000000357628,img/planet5_right.png,5,Community 2,NA,TRUE,j,j,NA,NA,NA,4,6,"11,14,15,1,12,2,6,4,5,7,9,3,13,10,8"
14349,commdev-image-keyboard-response,254,530873,learnblock1,658.5999999642372,img/planet4_left.png,4,Community 2,NA,TRUE,f,f,NA,NA,NA,4,6,"11,14,15,1,12,2,6,4,5,7,9,3,13,10,8"
14349,commdev-image-keyboard-response,255,532123,learnblock1,897.6000000238419,img/planet3_right.png,3,Community 3,NA,TRUE,j,j,NA,NA,NA,4,6,"11,14,15,1,12,2,6,4,5,7,9,3,13,10,8"
14349,commdev-image-keyboard-response,256,533379,learnblock1,892.6999999880791,img/planet13_right.png,13,Community 3,NA,TRUE,j,j,NA,NA,NA,4,6,"11,14,15,1,12,2,6,4,5,7,9,3,13,10,8"
14349,commdev-image-keyboard-response,257,534632,learnblock1,1052.5,img/planet8_left.png,8,Community 3,NA,TRUE,f,f,NA,NA,NA,4,6,"11,14,15,1,12,2,6,4,5,7,9,3,13,10,8"
14349,commdev-image-keyboard-response,258,535888,learnblock1,889.9000000357628,img/planet3_left.png,3,Community 3,NA,TRUE,f,f,NA,NA,NA,4,6,"11,14,15,1,12,2,6,4,5,7,9,3,13,10,8"
14349,commdev-image-keyboard-response,259,537148,learnblock1,779.1000000238419,img/planet4_left.png,4,Community 2,NA,TRUE,f,f,NA,NA,NA,4,6,"11,14,15,1,12,2,6,4,5,7,9,3,13,10,8"
14349,commdev-image-keyboard-response,260,538404,learnblock1,783.8999999761581,img/planet5_left.png,5,Community 2,NA,TRUE,f,f,NA,NA,NA,4,6,"11,14,15,1,12,2,6,4,5,7,9,3,13,10,8"
14349,commdev-image-keyboard-response,261,539663,learnblock1,806.3000000119209,img/planet2_right.png,2,Community 2,NA,TRUE,j,j,NA,NA,NA,4,6,"11,14,15,1,12,2,6,4,5,7,9,3,13,10,8"
14349,commdev-image-keyboard-response,262,540919,learnblock1,819.8999999761581,img/planet5_left.png,5,Community 2,NA,TRUE,f,f,NA,NA,NA,4,6,"11,14,15,1,12,2,6,4,5,7,9,3,13,10,8"
14349,commdev-image-keyboard-response,263,542178,learnblock1,871.9000000357628,img/planet6_right.png,6,Community 2,NA,TRUE,j,j,NA,NA,NA,4,6,"11,14,15,1,12,2,6,4,5,7,9,3,13,10,8"
14349,commdev-image-keyboard-response,264,543438,learnblock1,728.3000000119209,img/planet2_right.png,2,Community 2,NA,TRUE,j,j,NA,NA,NA,4,6,"11,14,15,1,12,2,6,4,5,7,9,3,13,10,8"
14349,commdev-image-keyboard-response,265,544701,learnblock1,661.2000000476837,img/planet7_right.png,7,Community 2,NA,TRUE,j,j,NA,NA,NA,4,6,"11,14,15,1,12,2,6,4,5,7,9,3,13,10,8"
14349,commdev-image-keyboard-response,266,545958,learnblock1,610.5,img/planet2_right.png,2,Community 2,NA,TRUE,j,j,NA,NA,NA,4,6,"11,14,15,1,12,2,6,4,5,7,9,3,13,10,8"
14349,commdev-image-keyboard-response,267,547214,learnblock1,778.8999999761581,img/planet7_right.png,7,Community 2,NA,TRUE,j,j,NA,NA,NA,4,6,"11,14,15,1,12,2,6,4,5,7,9,3,13,10,8"
14349,commdev-image-keyboard-response,268,548468,learnblock1,780.1000000238419,img/planet4_right.png,4,Community 2,NA,TRUE,j,j,NA,NA,NA,4,6,"11,14,15,1,12,2,6,4,5,7,9,3,13,10,8"
14349,commdev-image-keyboard-response,269,549724,learnblock1,1018.6999999880791,img/planet3_left.png,3,Community 3,NA,TRUE,f,f,NA,NA,NA,4,6,"11,14,15,1,12,2,6,4,5,7,9,3,13,10,8"
14349,commdev-image-keyboard-response,270,550978,learnblock1,1048.5,img/planet8_left.png,8,Community 3,NA,TRUE,f,f,NA,NA,NA,4,6,"11,14,15,1,12,2,6,4,5,7,9,3,13,10,8"
14349,commdev-image-keyboard-response,271,552233,learnblock1,845.0999999642372,img/planet3_right.png,3,Community 3,NA,TRUE,j,j,NA,NA,NA,4,6,"11,14,15,1,12,2,6,4,5,7,9,3,13,10,8"
14349,commdev-image-keyboard-response,272,553487,learnblock1,1244.300000011921,img/planet8_right.png,8,Community 3,NA,FALSE,f,j,NA,NA,NA,4,6,"11,14,15,1,12,2,6,4,5,7,9,3,13,10,8"
14349,commdev-image-keyboard-response,273,554741,learnblock1,660.3000000119209,img/planet3_right.png,3,Community 3,NA,TRUE,j,j,NA,NA,NA,4,6,"11,14,15,1,12,2,6,4,5,7,9,3,13,10,8"
14349,commdev-image-keyboard-response,274,556001,learnblock1,799.1999999880791,img/planet13_left.png,13,Community 3,NA,TRUE,f,f,NA,NA,NA,4,6,"11,14,15,1,12,2,6,4,5,7,9,3,13,10,8"
14349,commdev-image-keyboard-response,275,557262,learnblock1,1124,img/planet8_left.png,8,Community 3,NA,TRUE,f,f,NA,NA,NA,4,6,"11,14,15,1,12,2,6,4,5,7,9,3,13,10,8"
14349,commdev-image-keyboard-response,276,558519,learnblock1,null,img/planet3_right.png,3,Community 3,NA,FALSE,null,j,NA,NA,NA,4,6,"11,14,15,1,12,2,6,4,5,7,9,3,13,10,8"
14349,commdev-image-keyboard-response,277,559772,learnblock1,226.60000002384186,img/planet10_left.png,10,Community 3,NA,FALSE,j,f,NA,NA,NA,4,6,"11,14,15,1,12,2,6,4,5,7,9,3,13,10,8"
14349,commdev-image-keyboard-response,278,561026,learnblock1,1086.199999988079,img/planet8_left.png,8,Community 3,NA,FALSE,j,f,NA,NA,NA,4,6,"11,14,15,1,12,2,6,4,5,7,9,3,13,10,8"
14349,commdev-image-keyboard-response,279,562286,learnblock1,null,img/planet10_right.png,10,Community 3,NA,FALSE,null,j,NA,NA,NA,4,6,"11,14,15,1,12,2,6,4,5,7,9,3,13,10,8"
14349,commdev-image-keyboard-response,280,563551,learnblock1,40.19999998807907,img/planet3_left.png,3,Community 3,NA,FALSE,j,f,NA,NA,NA,4,6,"11,14,15,1,12,2,6,4,5,7,9,3,13,10,8"
14349,commdev-image-keyboard-response,281,564812,learnblock1,null,img/planet8_left.png,8,Community 3,NA,FALSE,null,f,NA,NA,NA,4,6,"11,14,15,1,12,2,6,4,5,7,9,3,13,10,8"
14349,commdev-image-keyboard-response,282,566064,learnblock1,918.3999999761581,img/planet13_right.png,13,Community 3,NA,TRUE,j,j,NA,NA,NA,4,6,"11,14,15,1,12,2,6,4,5,7,9,3,13,10,8"
14349,commdev-image-keyboard-response,283,567326,learnblock1,1109,img/planet9_left.png,9,Community 3,NA,TRUE,f,f,NA,NA,NA,4,6,"11,14,15,1,12,2,6,4,5,7,9,3,13,10,8"
14349,commdev-image-keyboard-response,284,568580,learnblock1,298.5,img/planet8_right.png,8,Community 3,NA,TRUE,j,j,NA,NA,NA,4,6,"11,14,15,1,12,2,6,4,5,7,9,3,13,10,8"
14349,commdev-image-keyboard-response,285,569832,learnblock1,338,img/planet9_right.png,9,Community 3,NA,TRUE,j,j,NA,NA,NA,4,6,"11,14,15,1,12,2,6,4,5,7,9,3,13,10,8"
14349,commdev-image-keyboard-response,286,571096,learnblock1,845.1999999880791,img/planet8_left.png,8,Community 3,NA,FALSE,j,f,NA,NA,NA,4,6,"11,14,15,1,12,2,6,4,5,7,9,3,13,10,8"
14349,commdev-image-keyboard-response,287,572352,learnblock1,376.5999999642372,img/planet9_right.png,9,Community 3,NA,FALSE,f,j,NA,NA,NA,4,6,"11,14,15,1,12,2,6,4,5,7,9,3,13,10,8"
14349,commdev-image-keyboard-response,288,573610,learnblock1,1193.199999988079,img/planet8_right.png,8,Community 3,NA,FALSE,f,j,NA,NA,NA,4,6,"11,14,15,1,12,2,6,4,5,7,9,3,13,10,8"
14349,commdev-image-keyboard-response,289,574874,learnblock1,715.5999999642372,img/planet10_right.png,10,Community 3,NA,TRUE,j,j,NA,NA,NA,4,6,"11,14,15,1,12,2,6,4,5,7,9,3,13,10,8"
14349,commdev-image-keyboard-response,290,576129,learnblock1,842.1999999880791,img/planet8_left.png,8,Community 3,NA,FALSE,j,f,NA,NA,NA,4,6,"11,14,15,1,12,2,6,4,5,7,9,3,13,10,8"
14349,commdev-image-keyboard-response,291,577382,learnblock1,null,img/planet10_right.png,10,Community 3,NA,FALSE,null,j,NA,NA,NA,4,6,"11,14,15,1,12,2,6,4,5,7,9,3,13,10,8"
14349,commdev-image-keyboard-response,292,578636,learnblock1,153.60000002384186,img/planet9_right.png,9,Community 3,NA,TRUE,j,j,NA,NA,NA,4,6,"11,14,15,1,12,2,6,4,5,7,9,3,13,10,8"
14349,commdev-image-keyboard-response,293,579888,learnblock1,null,img/planet13_right.png,13,Community 3,NA,FALSE,null,j,NA,NA,NA,4,6,"11,14,15,1,12,2,6,4,5,7,9,3,13,10,8"
14349,commdev-image-keyboard-response,294,581142,learnblock1,1033.699999988079,img/planet9_right.png,9,Community 3,NA,TRUE,j,j,NA,NA,NA,4,6,"11,14,15,1,12,2,6,4,5,7,9,3,13,10,8"
14349,commdev-image-keyboard-response,295,582396,learnblock1,689.8000000119209,img/planet8_right.png,8,Community 3,NA,FALSE,f,j,NA,NA,NA,4,6,"11,14,15,1,12,2,6,4,5,7,9,3,13,10,8"
14349,commdev-image-keyboard-response,296,583650,learnblock1,433.80000001192093,img/planet13_left.png,13,Community 3,NA,FALSE,j,f,NA,NA,NA,4,6,"11,14,15,1,12,2,6,4,5,7,9,3,13,10,8"
14349,commdev-image-keyboard-response,297,584906,learnblock1,953.3000000119209,img/planet9_left.png,9,Community 3,NA,TRUE,f,f,NA,NA,NA,4,6,"11,14,15,1,12,2,6,4,5,7,9,3,13,10,8"
14349,commdev-image-keyboard-response,298,586173,learnblock1,802.8999999761581,img/planet12_left.png,12,Community 1,NA,TRUE,f,f,NA,NA,NA,4,6,"11,14,15,1,12,2,6,4,5,7,9,3,13,10,8"
14349,commdev-image-keyboard-response,299,587431,learnblock1,667.1999999880791,img/planet14_left.png,14,Community 1,NA,TRUE,f,f,NA,NA,NA,4,6,"11,14,15,1,12,2,6,4,5,7,9,3,13,10,8"
14349,commdev-image-keyboard-response,300,588690,learnblock1,651.0999999642372,img/planet11_left.png,11,Community 1,NA,TRUE,f,f,NA,NA,NA,4,6,"11,14,15,1,12,2,6,4,5,7,9,3,13,10,8"
14349,commdev-image-keyboard-response,301,589949,learnblock1,818.1999999880791,img/planet14_left.png,14,Community 1,NA,TRUE,f,f,NA,NA,NA,4,6,"11,14,15,1,12,2,6,4,5,7,9,3,13,10,8"
14349,commdev-image-keyboard-response,302,591203,learnblock1,637.9000000357628,img/planet12_left.png,12,Community 1,NA,TRUE,f,f,NA,NA,NA,4,6,"11,14,15,1,12,2,6,4,5,7,9,3,13,10,8"
14349,commdev-image-keyboard-response,303,592463,learnblock1,779.3999999761581,img/planet11_left.png,11,Community 1,NA,TRUE,f,f,NA,NA,NA,4,6,"11,14,15,1,12,2,6,4,5,7,9,3,13,10,8"
14349,commdev-image-keyboard-response,304,593716,learnblock1,715.1000000238419,img/planet12_right.png,12,Community 1,NA,FALSE,f,j,NA,NA,NA,4,6,"11,14,15,1,12,2,6,4,5,7,9,3,13,10,8"
14349,commdev-image-keyboard-response,305,594976,learnblock1,1140.699999988079,img/planet14_left.png,14,Community 1,NA,TRUE,f,f,NA,NA,NA,4,6,"11,14,15,1,12,2,6,4,5,7,9,3,13,10,8"
14349,commdev-image-keyboard-response,306,596228,learnblock1,587.1000000238419,img/planet11_left.png,11,Community 1,NA,TRUE,f,f,NA,NA,NA,4,6,"11,14,15,1,12,2,6,4,5,7,9,3,13,10,8"
14349,commdev-image-keyboard-response,307,597484,learnblock1,1215.800000011921,img/planet15_right.png,15,Community 1,NA,FALSE,f,j,NA,NA,NA,4,6,"11,14,15,1,12,2,6,4,5,7,9,3,13,10,8"
14349,commdev-image-keyboard-response,308,598740,learnblock1,545.5,img/planet12_left.png,12,Community 1,NA,FALSE,j,f,NA,NA,NA,4,6,"11,14,15,1,12,2,6,4,5,7,9,3,13,10,8"
14349,commdev-image-keyboard-response,309,600002,learnblock1,97.30000001192093,img/planet11_right.png,11,Community 1,NA,FALSE,f,j,NA,NA,NA,4,6,"11,14,15,1,12,2,6,4,5,7,9,3,13,10,8"
14349,commdev-image-keyboard-response,310,601260,learnblock1,603.3999999761581,img/planet1_left.png,1,Community 1,NA,FALSE,j,f,NA,NA,NA,4,6,"11,14,15,1,12,2,6,4,5,7,9,3,13,10,8"
14349,commdev-image-keyboard-response,311,602516,learnblock1,179,img/planet2_left.png,2,Community 2,NA,TRUE,f,f,NA,NA,NA,4,6,"11,14,15,1,12,2,6,4,5,7,9,3,13,10,8"
14349,commdev-image-keyboard-response,312,603783,learnblock1,688.3000000119209,img/planet5_right.png,5,Community 2,NA,FALSE,f,j,NA,NA,NA,4,6,"11,14,15,1,12,2,6,4,5,7,9,3,13,10,8"
14349,commdev-image-keyboard-response,313,605044,learnblock1,388.80000001192093,img/planet7_right.png,7,Community 2,NA,TRUE,j,j,NA,NA,NA,4,6,"11,14,15,1,12,2,6,4,5,7,9,3,13,10,8"
14349,commdev-image-keyboard-response,314,606297,learnblock1,665.6000000238419,img/planet5_right.png,5,Community 2,NA,TRUE,j,j,NA,NA,NA,4,6,"11,14,15,1,12,2,6,4,5,7,9,3,13,10,8"
14349,commdev-image-keyboard-response,315,607553,learnblock1,1103.1000000238419,img/planet7_right.png,7,Community 2,NA,TRUE,j,j,NA,NA,NA,4,6,"11,14,15,1,12,2,6,4,5,7,9,3,13,10,8"
14349,commdev-image-keyboard-response,316,608807,learnblock1,765.6999999880791,img/planet5_left.png,5,Community 2,NA,FALSE,j,f,NA,NA,NA,4,6,"11,14,15,1,12,2,6,4,5,7,9,3,13,10,8"
14349,commdev-image-keyboard-response,317,610066,learnblock1,null,img/planet7_left.png,7,Community 2,NA,FALSE,null,f,NA,NA,NA,4,6,"11,14,15,1,12,2,6,4,5,7,9,3,13,10,8"
14349,commdev-image-keyboard-response,318,611327,learnblock1,73.69999998807907,img/planet6_right.png,6,Community 2,NA,FALSE,f,j,NA,NA,NA,4,6,"11,14,15,1,12,2,6,4,5,7,9,3,13,10,8"
14349,commdev-image-keyboard-response,319,612583,learnblock1,831.0999999642372,img/planet2_left.png,2,Community 2,NA,TRUE,f,f,NA,NA,NA,4,6,"11,14,15,1,12,2,6,4,5,7,9,3,13,10,8"
14349,commdev-image-keyboard-response,320,613839,learnblock1,785.1999999880791,img/planet5_left.png,5,Community 2,NA,FALSE,j,f,NA,NA,NA,4,6,"11,14,15,1,12,2,6,4,5,7,9,3,13,10,8"
14349,commdev-image-keyboard-response,321,615093,learnblock1,1127.300000011921,img/planet6_left.png,6,Community 2,NA,TRUE,f,f,NA,NA,NA,4,6,"11,14,15,1,12,2,6,4,5,7,9,3,13,10,8"
14349,commdev-image-keyboard-response,322,616346,learnblock1,1030.7999999523163,img/planet7_right.png,7,Community 2,NA,TRUE,j,j,NA,NA,NA,4,6,"11,14,15,1,12,2,6,4,5,7,9,3,13,10,8"
14349,commdev-image-keyboard-response,323,617614,learnblock1,751,img/planet6_left.png,6,Community 2,NA,TRUE,f,f,NA,NA,NA,4,6,"11,14,15,1,12,2,6,4,5,7,9,3,13,10,8"
14349,commdev-image-keyboard-response,324,618870,learnblock1,729.6000000238419,img/planet5_right.png,5,Community 2,NA,TRUE,j,j,NA,NA,NA,4,6,"11,14,15,1,12,2,6,4,5,7,9,3,13,10,8"
14349,commdev-image-keyboard-response,325,620134,learnblock1,643.5,img/planet6_left.png,6,Community 2,NA,TRUE,f,f,NA,NA,NA,4,6,"11,14,15,1,12,2,6,4,5,7,9,3,13,10,8"
14349,commdev-image-keyboard-response,326,621387,learnblock1,859.8999999761581,img/planet4_left.png,4,Community 2,NA,TRUE,f,f,NA,NA,NA,4,6,"11,14,15,1,12,2,6,4,5,7,9,3,13,10,8"
14349,commdev-image-keyboard-response,327,622640,learnblock1,679.1999999880791,img/planet5_left.png,5,Community 2,NA,TRUE,f,f,NA,NA,NA,4,6,"11,14,15,1,12,2,6,4,5,7,9,3,13,10,8"
14349,commdev-image-keyboard-response,328,623892,learnblock1,898.1000000238419,img/planet4_right.png,4,Community 2,NA,TRUE,j,j,NA,NA,NA,4,6,"11,14,15,1,12,2,6,4,5,7,9,3,13,10,8"
14349,commdev-image-keyboard-response,329,625148,learnblock1,1066.699999988079,img/planet6_right.png,6,Community 2,NA,TRUE,j,j,NA,NA,NA,4,6,"11,14,15,1,12,2,6,4,5,7,9,3,13,10,8"
14349,commdev-image-keyboard-response,330,626399,learnblock1,773.5,img/planet7_left.png,7,Community 2,NA,TRUE,f,f,NA,NA,NA,4,6,"11,14,15,1,12,2,6,4,5,7,9,3,13,10,8"
14349,commdev-image-keyboard-response,331,627652,learnblock1,604.9000000357628,img/planet2_left.png,2,Community 2,NA,TRUE,f,f,NA,NA,NA,4,6,"11,14,15,1,12,2,6,4,5,7,9,3,13,10,8"
14349,commdev-image-keyboard-response,332,628906,learnblock1,826.1000000238419,img/planet6_right.png,6,Community 2,NA,FALSE,f,j,NA,NA,NA,4,6,"11,14,15,1,12,2,6,4,5,7,9,3,13,10,8"
14349,commdev-image-keyboard-response,333,630163,learnblock1,698,img/planet5_left.png,5,Community 2,NA,TRUE,f,f,NA,NA,NA,4,6,"11,14,15,1,12,2,6,4,5,7,9,3,13,10,8"
14349,commdev-image-keyboard-response,334,631419,learnblock1,1103.9000000357628,img/planet7_right.png,7,Community 2,NA,TRUE,j,j,NA,NA,NA,4,6,"11,14,15,1,12,2,6,4,5,7,9,3,13,10,8"
14349,commdev-image-keyboard-response,335,632676,learnblock1,1129.300000011921,img/planet2_right.png,2,Community 2,NA,TRUE,j,j,NA,NA,NA,4,6,"11,14,15,1,12,2,6,4,5,7,9,3,13,10,8"
14349,commdev-image-keyboard-response,336,633935,learnblock1,1229,img/planet7_right.png,7,Community 2,NA,FALSE,f,j,NA,NA,NA,4,6,"11,14,15,1,12,2,6,4,5,7,9,3,13,10,8"
14349,commdev-image-keyboard-response,337,635188,learnblock1,636.8000000119209,img/planet2_left.png,2,Community 2,NA,TRUE,f,f,NA,NA,NA,4,6,"11,14,15,1,12,2,6,4,5,7,9,3,13,10,8"
14349,commdev-image-keyboard-response,338,636442,learnblock1,1017.3000000119209,img/planet5_left.png,5,Community 2,NA,TRUE,f,f,NA,NA,NA,4,6,"11,14,15,1,12,2,6,4,5,7,9,3,13,10,8"
14349,commdev-image-keyboard-response,339,637703,learnblock1,751.5999999642372,img/planet2_right.png,2,Community 2,NA,FALSE,f,j,NA,NA,NA,4,6,"11,14,15,1,12,2,6,4,5,7,9,3,13,10,8"
14349,commdev-image-keyboard-response,340,638960,learnblock1,991.8999999761581,img/planet6_left.png,6,Community 2,NA,FALSE,j,f,NA,NA,NA,4,6,"11,14,15,1,12,2,6,4,5,7,9,3,13,10,8"
14349,commdev-image-keyboard-response,341,640220,learnblock1,913.3000000119209,img/planet2_left.png,2,Community 2,NA,TRUE,f,f,NA,NA,NA,4,6,"11,14,15,1,12,2,6,4,5,7,9,3,13,10,8"
14349,commdev-image-keyboard-response,342,641474,learnblock1,1147.7999999523163,img/planet1_right.png,1,Community 1,NA,TRUE,j,j,NA,NA,NA,4,6,"11,14,15,1,12,2,6,4,5,7,9,3,13,10,8"
14349,commdev-image-keyboard-response,343,642736,learnblock1,659.5,img/planet2_left.png,2,Community 2,NA,FALSE,j,f,NA,NA,NA,4,6,"11,14,15,1,12,2,6,4,5,7,9,3,13,10,8"
14349,commdev-image-keyboard-response,344,643996,learnblock1,731.3000000119209,img/planet5_right.png,5,Community 2,NA,TRUE,j,j,NA,NA,NA,4,6,"11,14,15,1,12,2,6,4,5,7,9,3,13,10,8"
14349,commdev-image-keyboard-response,345,645256,learnblock1,708.3999999761581,img/planet7_right.png,7,Community 2,NA,TRUE,j,j,NA,NA,NA,4,6,"11,14,15,1,12,2,6,4,5,7,9,3,13,10,8"
14349,commdev-image-keyboard-response,346,646514,learnblock1,1201.8999999761581,img/planet4_right.png,4,Community 2,NA,TRUE,j,j,NA,NA,NA,4,6,"11,14,15,1,12,2,6,4,5,7,9,3,13,10,8"
14349,commdev-image-keyboard-response,347,647770,learnblock1,715,img/planet5_right.png,5,Community 2,NA,TRUE,j,j,NA,NA,NA,4,6,"11,14,15,1,12,2,6,4,5,7,9,3,13,10,8"
14349,commdev-image-keyboard-response,351,696784,learnblock2,672.5,img/planet8_right.png,8,Community 3,NA,TRUE,j,j,NA,NA,NA,4,6,"11,14,15,1,12,2,6,4,5,7,9,3,13,10,8"
14349,commdev-image-keyboard-response,352,698036,learnblock2,588.8999999761581,img/planet10_right.png,10,Community 3,NA,TRUE,j,j,NA,NA,NA,4,6,"11,14,15,1,12,2,6,4,5,7,9,3,13,10,8"
14349,commdev-image-keyboard-response,353,699291,learnblock2,715.1000000238419,img/planet3_right.png,3,Community 3,NA,TRUE,j,j,NA,NA,NA,4,6,"11,14,15,1,12,2,6,4,5,7,9,3,13,10,8"
14349,commdev-image-keyboard-response,354,700550,learnblock2,600.4000000357628,img/planet10_left.png,10,Community 3,NA,TRUE,f,f,NA,NA,NA,4,6,"11,14,15,1,12,2,6,4,5,7,9,3,13,10,8"
14349,commdev-image-keyboard-response,355,701809,learnblock2,837.1999999880791,img/planet8_left.png,8,Community 3,NA,TRUE,f,f,NA,NA,NA,4,6,"11,14,15,1,12,2,6,4,5,7,9,3,13,10,8"
14349,commdev-image-keyboard-response,356,703069,learnblock2,836.6999999880791,img/planet9_left.png,9,Community 3,NA,TRUE,f,f,NA,NA,NA,4,6,"11,14,15,1,12,2,6,4,5,7,9,3,13,10,8"
14349,commdev-image-keyboard-response,357,704325,learnblock2,1014.8000000119209,img/planet12_left.png,12,Community 1,NA,TRUE,f,f,NA,NA,NA,4,6,"11,14,15,1,12,2,6,4,5,7,9,3,13,10,8"
14349,commdev-image-keyboard-response,358,705583,learnblock2,658,img/planet9_left.png,9,Community 3,NA,TRUE,f,f,NA,NA,NA,4,6,"11,14,15,1,12,2,6,4,5,7,9,3,13,10,8"
14349,commdev-image-keyboard-response,359,706838,learnblock2,706,img/planet13_left.png,13,Community 3,NA,TRUE,f,f,NA,NA,NA,4,6,"11,14,15,1,12,2,6,4,5,7,9,3,13,10,8"
14349,commdev-image-keyboard-response,360,708099,learnblock2,960.3000000119209,img/planet8_left.png,8,Community 3,NA,TRUE,f,f,NA,NA,NA,4,6,"11,14,15,1,12,2,6,4,5,7,9,3,13,10,8"
14349,commdev-image-keyboard-response,361,709357,learnblock2,925.5,img/planet3_left.png,3,Community 3,NA,TRUE,f,f,NA,NA,NA,4,6,"11,14,15,1,12,2,6,4,5,7,9,3,13,10,8"
14349,commdev-image-keyboard-response,362,710615,learnblock2,812.1000000238419,img/planet8_left.png,8,Community 3,NA,TRUE,f,f,NA,NA,NA,4,6,"11,14,15,1,12,2,6,4,5,7,9,3,13,10,8"
14349,commdev-image-keyboard-response,363,711867,learnblock2,1061.199999988079,img/planet3_left.png,3,Community 3,NA,FALSE,j,f,NA,NA,NA,4,6,"11,14,15,1,12,2,6,4,5,7,9,3,13,10,8"
14349,commdev-image-keyboard-response,364,713120,learnblock2,792.3000000119209,img/planet13_right.png,13,Community 3,NA,TRUE,j,j,NA,NA,NA,4,6,"11,14,15,1,12,2,6,4,5,7,9,3,13,10,8"
14349,commdev-image-keyboard-response,365,714376,learnblock2,1021.8000000119209,img/planet9_right.png,9,Community 3,NA,TRUE,j,j,NA,NA,NA,4,6,"11,14,15,1,12,2,6,4,5,7,9,3,13,10,8"
14349,commdev-image-keyboard-response,366,715635,learnblock2,796,img/planet12_right.png,12,Community 1,NA,TRUE,j,j,NA,NA,NA,4,6,"11,14,15,1,12,2,6,4,5,7,9,3,13,10,8"
14349,commdev-image-keyboard-response,367,716893,learnblock2,761.7999999523163,img/planet9_left.png,9,Community 3,NA,TRUE,f,f,NA,NA,NA,4,6,"11,14,15,1,12,2,6,4,5,7,9,3,13,10,8"
14349,commdev-image-keyboard-response,368,718155,learnblock2,887.8000000119209,img/planet12_left.png,12,Community 1,NA,TRUE,f,f,NA,NA,NA,4,6,"11,14,15,1,12,2,6,4,5,7,9,3,13,10,8"
14349,commdev-image-keyboard-response,369,719411,learnblock2,822.3000000119209,img/planet14_left.png,14,Community 1,NA,TRUE,f,f,NA,NA,NA,4,6,"11,14,15,1,12,2,6,4,5,7,9,3,13,10,8"
14349,commdev-image-keyboard-response,370,720676,learnblock2,693.6999999880791,img/planet1_left.png,1,Community 1,NA,TRUE,f,f,NA,NA,NA,4,6,"11,14,15,1,12,2,6,4,5,7,9,3,13,10,8"
14349,commdev-image-keyboard-response,371,721928,learnblock2,565.6000000238419,img/planet2_left.png,2,Community 2,NA,TRUE,f,f,NA,NA,NA,4,6,"11,14,15,1,12,2,6,4,5,7,9,3,13,10,8"
14349,commdev-image-keyboard-response,372,723185,learnblock2,871.5,img/planet7_right.png,7,Community 2,NA,TRUE,j,j,NA,NA,NA,4,6,"11,14,15,1,12,2,6,4,5,7,9,3,13,10,8"
14349,commdev-image-keyboard-response,373,724439,learnblock2,825.3999999761581,img/planet4_left.png,4,Community 2,NA,TRUE,f,f,NA,NA,NA,4,6,"11,14,15,1,12,2,6,4,5,7,9,3,13,10,8"
14349,commdev-image-keyboard-response,374,725704,learnblock2,748.5,img/planet5_right.png,5,Community 2,NA,TRUE,j,j,NA,NA,NA,4,6,"11,14,15,1,12,2,6,4,5,7,9,3,13,10,8"
14349,commdev-image-keyboard-response,375,726959,learnblock2,436,img/planet2_right.png,2,Community 2,NA,TRUE,j,j,NA,NA,NA,4,6,"11,14,15,1,12,2,6,4,5,7,9,3,13,10,8"
14349,commdev-image-keyboard-response,376,728215,learnblock2,1063.6000000238419,img/planet7_left.png,7,Community 2,NA,TRUE,f,f,NA,NA,NA,4,6,"11,14,15,1,12,2,6,4,5,7,9,3,13,10,8"
14349,commdev-image-keyboard-response,377,729473,learnblock2,940.6999999880791,img/planet5_right.png,5,Community 2,NA,TRUE,j,j,NA,NA,NA,4,6,"11,14,15,1,12,2,6,4,5,7,9,3,13,10,8"
14349,commdev-image-keyboard-response,378,730728,learnblock2,658.3999999761581,img/planet2_left.png,2,Community 2,NA,TRUE,f,f,NA,NA,NA,4,6,"11,14,15,1,12,2,6,4,5,7,9,3,13,10,8"
14349,commdev-image-keyboard-response,379,731986,learnblock2,692.9000000357628,img/planet7_left.png,7,Community 2,NA,TRUE,f,f,NA,NA,NA,4,6,"11,14,15,1,12,2,6,4,5,7,9,3,13,10,8"
14349,commdev-image-keyboard-response,380,733243,learnblock2,598.8000000119209,img/planet5_right.png,5,Community 2,NA,TRUE,j,j,NA,NA,NA,4,6,"11,14,15,1,12,2,6,4,5,7,9,3,13,10,8"
14349,commdev-image-keyboard-response,381,734501,learnblock2,693.7000000476837,img/planet2_left.png,2,Community 2,NA,TRUE,f,f,NA,NA,NA,4,6,"11,14,15,1,12,2,6,4,5,7,9,3,13,10,8"
14349,commdev-image-keyboard-response,382,735757,learnblock2,819.8000000119209,img/planet6_right.png,6,Community 2,NA,TRUE,j,j,NA,NA,NA,4,6,"11,14,15,1,12,2,6,4,5,7,9,3,13,10,8"
14349,commdev-image-keyboard-response,383,737011,learnblock2,933.8000000119209,img/planet4_left.png,4,Community 2,NA,TRUE,f,f,NA,NA,NA,4,6,"11,14,15,1,12,2,6,4,5,7,9,3,13,10,8"
14349,commdev-image-keyboard-response,384,738272,learnblock2,767.2000000476837,img/planet7_left.png,7,Community 2,NA,TRUE,f,f,NA,NA,NA,4,6,"11,14,15,1,12,2,6,4,5,7,9,3,13,10,8"
14349,commdev-image-keyboard-response,385,739527,learnblock2,1226.800000011921,img/planet4_right.png,4,Community 2,NA,TRUE,j,j,NA,NA,NA,4,6,"11,14,15,1,12,2,6,4,5,7,9,3,13,10,8"
14349,commdev-image-keyboard-response,386,740780,learnblock2,746.6000000238419,img/planet3_right.png,3,Community 3,NA,TRUE,j,j,NA,NA,NA,4,6,"11,14,15,1,12,2,6,4,5,7,9,3,13,10,8"
14349,commdev-image-keyboard-response,387,742037,learnblock2,733.3999999761581,img/planet4_right.png,4,Community 2,NA,TRUE,j,j,NA,NA,NA,4,6,"11,14,15,1,12,2,6,4,5,7,9,3,13,10,8"
14349,commdev-image-keyboard-response,388,743290,learnblock2,586.8999999761581,img/planet5_right.png,5,Community 2,NA,TRUE,j,j,NA,NA,NA,4,6,"11,14,15,1,12,2,6,4,5,7,9,3,13,10,8"
14349,commdev-image-keyboard-response,389,744545,learnblock2,502.39999997615814,img/planet2_left.png,2,Community 2,NA,TRUE,f,f,NA,NA,NA,4,6,"11,14,15,1,12,2,6,4,5,7,9,3,13,10,8"
14349,commdev-image-keyboard-response,390,745798,learnblock2,912.1999999880791,img/planet7_right.png,7,Community 2,NA,TRUE,j,j,NA,NA,NA,4,6,"11,14,15,1,12,2,6,4,5,7,9,3,13,10,8"
14349,commdev-image-keyboard-response,391,747053,learnblock2,702.8999999761581,img/planet2_left.png,2,Community 2,NA,TRUE,f,f,NA,NA,NA,4,6,"11,14,15,1,12,2,6,4,5,7,9,3,13,10,8"
14349,commdev-image-keyboard-response,392,748318,learnblock2,614.4000000357628,img/planet1_right.png,1,Community 1,NA,TRUE,j,j,NA,NA,NA,4,6,"11,14,15,1,12,2,6,4,5,7,9,3,13,10,8"
14349,commdev-image-keyboard-response,393,749573,learnblock2,713.8000000119209,img/planet14_right.png,14,Community 1,NA,TRUE,j,j,NA,NA,NA,4,6,"11,14,15,1,12,2,6,4,5,7,9,3,13,10,8"
14349,commdev-image-keyboard-response,394,750827,learnblock2,576.4000000357628,img/planet1_right.png,1,Community 1,NA,TRUE,j,j,NA,NA,NA,4,6,"11,14,15,1,12,2,6,4,5,7,9,3,13,10,8"
14349,commdev-image-keyboard-response,395,752079,learnblock2,793.3999999761581,img/planet11_right.png,11,Community 1,NA,TRUE,j,j,NA,NA,NA,4,6,"11,14,15,1,12,2,6,4,5,7,9,3,13,10,8"
14349,commdev-image-keyboard-response,396,753331,learnblock2,965.9000000357628,img/planet12_right.png,12,Community 1,NA,TRUE,j,j,NA,NA,NA,4,6,"11,14,15,1,12,2,6,4,5,7,9,3,13,10,8"
14349,commdev-image-keyboard-response,397,754587,learnblock2,1026.3999999761581,img/planet15_right.png,15,Community 1,NA,TRUE,j,j,NA,NA,NA,4,6,"11,14,15,1,12,2,6,4,5,7,9,3,13,10,8"
14349,commdev-image-keyboard-response,398,755843,learnblock2,769.2000000476837,img/planet12_left.png,12,Community 1,NA,TRUE,f,f,NA,NA,NA,4,6,"11,14,15,1,12,2,6,4,5,7,9,3,13,10,8"
14349,commdev-image-keyboard-response,399,757104,learnblock2,859.4000000357628,img/planet15_right.png,15,Community 1,NA,TRUE,j,j,NA,NA,NA,4,6,"11,14,15,1,12,2,6,4,5,7,9,3,13,10,8"
14349,commdev-image-keyboard-response,400,758364,learnblock2,null,img/planet1_left.png,1,Community 1,NA,FALSE,null,f,NA,NA,NA,4,6,"11,14,15,1,12,2,6,4,5,7,9,3,13,10,8"
14349,commdev-image-keyboard-response,401,759619,learnblock2,4,img/planet14_right.png,14,Community 1,NA,FALSE,f,j,NA,NA,NA,4,6,"11,14,15,1,12,2,6,4,5,7,9,3,13,10,8"
14349,commdev-image-keyboard-response,402,760870,learnblock2,1240.199999988079,img/planet11_right.png,11,Community 1,NA,TRUE,j,j,NA,NA,NA,4,6,"11,14,15,1,12,2,6,4,5,7,9,3,13,10,8"
14349,commdev-image-keyboard-response,403,762121,learnblock2,775.6000000238419,img/planet15_right.png,15,Community 1,NA,TRUE,j,j,NA,NA,NA,4,6,"11,14,15,1,12,2,6,4,5,7,9,3,13,10,8"
14349,commdev-image-keyboard-response,404,763383,learnblock2,608.6999999880791,img/planet1_right.png,1,Community 1,NA,TRUE,j,j,NA,NA,NA,4,6,"11,14,15,1,12,2,6,4,5,7,9,3,13,10,8"
14349,commdev-image-keyboard-response,405,764641,learnblock2,545,img/planet11_left.png,11,Community 1,NA,FALSE,j,f,NA,NA,NA,4,6,"11,14,15,1,12,2,6,4,5,7,9,3,13,10,8"
14349,commdev-image-keyboard-response,406,765896,learnblock2,959.3999999761581,img/planet15_right.png,15,Community 1,NA,FALSE,f,j,NA,NA,NA,4,6,"11,14,15,1,12,2,6,4,5,7,9,3,13,10,8"
14349,commdev-image-keyboard-response,407,767153,learnblock2,722.6000000238419,img/planet11_right.png,11,Community 1,NA,FALSE,f,j,NA,NA,NA,4,6,"11,14,15,1,12,2,6,4,5,7,9,3,13,10,8"
14349,commdev-image-keyboard-response,408,768408,learnblock2,170.19999998807907,img/planet12_right.png,12,Community 1,NA,TRUE,j,j,NA,NA,NA,4,6,"11,14,15,1,12,2,6,4,5,7,9,3,13,10,8"
14349,commdev-image-keyboard-response,409,769660,learnblock2,147.5999999642372,img/planet9_left.png,9,Community 3,NA,FALSE,j,f,NA,NA,NA,4,6,"11,14,15,1,12,2,6,4,5,7,9,3,13,10,8"
14349,commdev-image-keyboard-response,410,770916,learnblock2,908.5,img/planet10_right.png,10,Community 3,NA,TRUE,j,j,NA,NA,NA,4,6,"11,14,15,1,12,2,6,4,5,7,9,3,13,10,8"
14349,commdev-image-keyboard-response,411,772176,learnblock2,736.6999999880791,img/planet13_right.png,13,Community 3,NA,TRUE,j,j,NA,NA,NA,4,6,"11,14,15,1,12,2,6,4,5,7,9,3,13,10,8"
14349,commdev-image-keyboard-response,412,773436,learnblock2,531.5999999642372,img/planet9_left.png,9,Community 3,NA,TRUE,f,f,NA,NA,NA,4,6,"11,14,15,1,12,2,6,4,5,7,9,3,13,10,8"
14349,commdev-image-keyboard-response,413,774693,learnblock2,554.6999999880791,img/planet12_left.png,12,Community 1,NA,TRUE,f,f,NA,NA,NA,4,6,"11,14,15,1,12,2,6,4,5,7,9,3,13,10,8"
14349,commdev-image-keyboard-response,414,775953,learnblock2,571.2000000476837,img/planet15_left.png,15,Community 1,NA,TRUE,f,f,NA,NA,NA,4,6,"11,14,15,1,12,2,6,4,5,7,9,3,13,10,8"
14349,commdev-image-keyboard-response,415,777209,learnblock2,636.5,img/planet1_left.png,1,Community 1,NA,TRUE,f,f,NA,NA,NA,4,6,"11,14,15,1,12,2,6,4,5,7,9,3,13,10,8"
14349,commdev-image-keyboard-response,416,778470,learnblock2,784.6000000238419,img/planet14_left.png,14,Community 1,NA,TRUE,f,f,NA,NA,NA,4,6,"11,14,15,1,12,2,6,4,5,7,9,3,13,10,8"
14349,commdev-image-keyboard-response,417,779728,learnblock2,661.1999999880791,img/planet11_left.png,11,Community 1,NA,TRUE,f,f,NA,NA,NA,4,6,"11,14,15,1,12,2,6,4,5,7,9,3,13,10,8"
14349,commdev-image-keyboard-response,418,780986,learnblock2,516.8000000119209,img/planet15_right.png,15,Community 1,NA,FALSE,f,j,NA,NA,NA,4,6,"11,14,15,1,12,2,6,4,5,7,9,3,13,10,8"
14349,commdev-image-keyboard-response,419,782239,learnblock2,1114.699999988079,img/planet14_right.png,14,Community 1,NA,TRUE,j,j,NA,NA,NA,4,6,"11,14,15,1,12,2,6,4,5,7,9,3,13,10,8"
14349,commdev-image-keyboard-response,420,783499,learnblock2,600.3000000119209,img/planet15_right.png,15,Community 1,NA,TRUE,j,j,NA,NA,NA,4,6,"11,14,15,1,12,2,6,4,5,7,9,3,13,10,8"
14349,commdev-image-keyboard-response,421,784760,learnblock2,529.6999999880791,img/planet1_left.png,1,Community 1,NA,FALSE,j,f,NA,NA,NA,4,6,"11,14,15,1,12,2,6,4,5,7,9,3,13,10,8"
14349,commdev-image-keyboard-response,422,786019,learnblock2,537.5,img/planet2_right.png,2,Community 2,NA,TRUE,j,j,NA,NA,NA,4,6,"11,14,15,1,12,2,6,4,5,7,9,3,13,10,8"
14349,commdev-image-keyboard-response,423,787277,learnblock2,758.1999999880791,img/planet1_left.png,1,Community 1,NA,TRUE,f,f,NA,NA,NA,4,6,"11,14,15,1,12,2,6,4,5,7,9,3,13,10,8"
14349,commdev-image-keyboard-response,424,788536,learnblock2,800.8999999761581,img/planet2_left.png,2,Community 2,NA,TRUE,f,f,NA,NA,NA,4,6,"11,14,15,1,12,2,6,4,5,7,9,3,13,10,8"
14349,commdev-image-keyboard-response,425,789795,learnblock2,913,img/planet7_left.png,7,Community 2,NA,TRUE,f,f,NA,NA,NA,4,6,"11,14,15,1,12,2,6,4,5,7,9,3,13,10,8"
14349,commdev-image-keyboard-response,426,791049,learnblock2,906.7999999523163,img/planet6_right.png,6,Community 2,NA,TRUE,j,j,NA,NA,NA,4,6,"11,14,15,1,12,2,6,4,5,7,9,3,13,10,8"
14349,commdev-image-keyboard-response,427,792310,learnblock2,786.1000000238419,img/planet7_left.png,7,Community 2,NA,TRUE,f,f,NA,NA,NA,4,6,"11,14,15,1,12,2,6,4,5,7,9,3,13,10,8"
14349,commdev-image-keyboard-response,428,793573,learnblock2,728.3000000119209,img/planet6_left.png,6,Community 2,NA,TRUE,f,f,NA,NA,NA,4,6,"11,14,15,1,12,2,6,4,5,7,9,3,13,10,8"
14349,commdev-image-keyboard-response,429,794829,learnblock2,811.6000000238419,img/planet2_right.png,2,Community 2,NA,TRUE,j,j,NA,NA,NA,4,6,"11,14,15,1,12,2,6,4,5,7,9,3,13,10,8"
14349,commdev-image-keyboard-response,430,796087,learnblock2,814.3999999761581,img/planet7_right.png,7,Community 2,NA,TRUE,j,j,NA,NA,NA,4,6,"11,14,15,1,12,2,6,4,5,7,9,3,13,10,8"
14349,commdev-image-keyboard-response,431,797345,learnblock2,631.7999999523163,img/planet4_right.png,4,Community 2,NA,TRUE,j,j,NA,NA,NA,4,6,"11,14,15,1,12,2,6,4,5,7,9,3,13,10,8"
14349,commdev-image-keyboard-response,432,798603,learnblock2,631.8999999761581,img/planet6_right.png,6,Community 2,NA,TRUE,j,j,NA,NA,NA,4,6,"11,14,15,1,12,2,6,4,5,7,9,3,13,10,8"
14349,commdev-image-keyboard-response,433,799861,learnblock2,629.7999999523163,img/planet5_right.png,5,Community 2,NA,TRUE,j,j,NA,NA,NA,4,6,"11,14,15,1,12,2,6,4,5,7,9,3,13,10,8"
14349,commdev-image-keyboard-response,434,801121,learnblock2,716.6999999880791,img/planet4_left.png,4,Community 2,NA,TRUE,f,f,NA,NA,NA,4,6,"11,14,15,1,12,2,6,4,5,7,9,3,13,10,8"
14349,commdev-image-keyboard-response,435,802377,learnblock2,831.1999999880791,img/planet7_right.png,7,Community 2,NA,TRUE,j,j,NA,NA,NA,4,6,"11,14,15,1,12,2,6,4,5,7,9,3,13,10,8"
14349,commdev-image-keyboard-response,436,803649,learnblock2,771.8000000119209,img/planet6_right.png,6,Community 2,NA,TRUE,j,j,NA,NA,NA,4,6,"11,14,15,1,12,2,6,4,5,7,9,3,13,10,8"
14349,commdev-image-keyboard-response,437,804904,learnblock2,751.1000000238419,img/planet7_left.png,7,Community 2,NA,TRUE,f,f,NA,NA,NA,4,6,"11,14,15,1,12,2,6,4,5,7,9,3,13,10,8"
14349,commdev-image-keyboard-response,438,806160,learnblock2,772.6999999880791,img/planet4_right.png,4,Community 2,NA,TRUE,j,j,NA,NA,NA,4,6,"11,14,15,1,12,2,6,4,5,7,9,3,13,10,8"
14349,commdev-image-keyboard-response,439,807422,learnblock2,729.1999999880791,img/planet7_left.png,7,Community 2,NA,TRUE,f,f,NA,NA,NA,4,6,"11,14,15,1,12,2,6,4,5,7,9,3,13,10,8"
14349,commdev-image-keyboard-response,440,808681,learnblock2,719.6999999880791,img/planet5_right.png,5,Community 2,NA,TRUE,j,j,NA,NA,NA,4,6,"11,14,15,1,12,2,6,4,5,7,9,3,13,10,8"
14349,commdev-image-keyboard-response,441,809938,learnblock2,923.4000000357628,img/planet7_left.png,7,Community 2,NA,TRUE,f,f,NA,NA,NA,4,6,"11,14,15,1,12,2,6,4,5,7,9,3,13,10,8"
14349,commdev-image-keyboard-response,442,811199,learnblock2,600.6999999880791,img/planet5_right.png,5,Community 2,NA,TRUE,j,j,NA,NA,NA,4,6,"11,14,15,1,12,2,6,4,5,7,9,3,13,10,8"
14349,commdev-image-keyboard-response,443,812468,learnblock2,654.1999999880791,img/planet2_right.png,2,Community 2,NA,TRUE,j,j,NA,NA,NA,4,6,"11,14,15,1,12,2,6,4,5,7,9,3,13,10,8"
14349,commdev-image-keyboard-response,444,813728,learnblock2,842.2999999523163,img/planet6_right.png,6,Community 2,NA,TRUE,j,j,NA,NA,NA,4,6,"11,14,15,1,12,2,6,4,5,7,9,3,13,10,8"
14349,commdev-image-keyboard-response,445,814986,learnblock2,507.5,img/planet2_left.png,2,Community 2,NA,TRUE,f,f,NA,NA,NA,4,6,"11,14,15,1,12,2,6,4,5,7,9,3,13,10,8"
14349,commdev-image-keyboard-response,446,816246,learnblock2,629.6000000238419,img/planet7_left.png,7,Community 2,NA,TRUE,f,f,NA,NA,NA,4,6,"11,14,15,1,12,2,6,4,5,7,9,3,13,10,8"
14349,commdev-image-keyboard-response,447,817504,learnblock2,641.5,img/planet6_left.png,6,Community 2,NA,TRUE,f,f,NA,NA,NA,4,6,"11,14,15,1,12,2,6,4,5,7,9,3,13,10,8"
14349,commdev-image-keyboard-response,448,818766,learnblock2,692.8000000119209,img/planet4_right.png,4,Community 2,NA,TRUE,j,j,NA,NA,NA,4,6,"11,14,15,1,12,2,6,4,5,7,9,3,13,10,8"
14349,commdev-image-keyboard-response,449,820024,learnblock2,692.7999999523163,img/planet3_right.png,3,Community 3,NA,TRUE,j,j,NA,NA,NA,4,6,"11,14,15,1,12,2,6,4,5,7,9,3,13,10,8"
14349,commdev-image-keyboard-response,450,821286,learnblock2,646.1000000238419,img/planet4_right.png,4,Community 2,NA,TRUE,j,j,NA,NA,NA,4,6,"11,14,15,1,12,2,6,4,5,7,9,3,13,10,8"
14349,commdev-image-keyboard-response,451,822543,learnblock2,741.7000000476837,img/planet5_left.png,5,Community 2,NA,TRUE,f,f,NA,NA,NA,4,6,"11,14,15,1,12,2,6,4,5,7,9,3,13,10,8"
14349,commdev-image-keyboard-response,452,823795,learnblock2,1011,img/planet2_left.png,2,Community 2,NA,TRUE,f,f,NA,NA,NA,4,6,"11,14,15,1,12,2,6,4,5,7,9,3,13,10,8"
14349,commdev-image-keyboard-response,453,825064,learnblock2,634.3000000119209,img/planet6_left.png,6,Community 2,NA,TRUE,f,f,NA,NA,NA,4,6,"11,14,15,1,12,2,6,4,5,7,9,3,13,10,8"
14349,commdev-image-keyboard-response,454,826323,learnblock2,862.5,img/planet4_right.png,4,Community 2,NA,TRUE,j,j,NA,NA,NA,4,6,"11,14,15,1,12,2,6,4,5,7,9,3,13,10,8"
14349,commdev-image-keyboard-response,455,827578,learnblock2,590.8999999761581,img/planet5_right.png,5,Community 2,NA,TRUE,j,j,NA,NA,NA,4,6,"11,14,15,1,12,2,6,4,5,7,9,3,13,10,8"
14349,commdev-image-keyboard-response,456,828842,learnblock2,606.3000000119209,img/planet2_right.png,2,Community 2,NA,TRUE,j,j,NA,NA,NA,4,6,"11,14,15,1,12,2,6,4,5,7,9,3,13,10,8"
14349,commdev-image-keyboard-response,457,830100,learnblock2,768,img/planet7_left.png,7,Community 2,NA,TRUE,f,f,NA,NA,NA,4,6,"11,14,15,1,12,2,6,4,5,7,9,3,13,10,8"
14349,commdev-image-keyboard-response,458,831363,learnblock2,932.6000000238419,img/planet4_right.png,4,Community 2,NA,TRUE,j,j,NA,NA,NA,4,6,"11,14,15,1,12,2,6,4,5,7,9,3,13,10,8"
14349,commdev-image-keyboard-response,459,832621,learnblock2,795.3000000119209,img/planet7_left.png,7,Community 2,NA,TRUE,f,f,NA,NA,NA,4,6,"11,14,15,1,12,2,6,4,5,7,9,3,13,10,8"
14349,commdev-image-keyboard-response,460,833877,learnblock2,830.1000000238419,img/planet5_right.png,5,Community 2,NA,TRUE,j,j,NA,NA,NA,4,6,"11,14,15,1,12,2,6,4,5,7,9,3,13,10,8"
14349,commdev-image-keyboard-response,461,835133,learnblock2,842.2000000476837,img/planet6_right.png,6,Community 2,NA,TRUE,j,j,NA,NA,NA,4,6,"11,14,15,1,12,2,6,4,5,7,9,3,13,10,8"
14349,commdev-image-keyboard-response,462,836385,learnblock2,553.6000000238419,img/planet4_left.png,4,Community 2,NA,TRUE,f,f,NA,NA,NA,4,6,"11,14,15,1,12,2,6,4,5,7,9,3,13,10,8"
14349,commdev-image-keyboard-response,463,837646,learnblock2,646.5,img/planet6_left.png,6,Community 2,NA,TRUE,f,f,NA,NA,NA,4,6,"11,14,15,1,12,2,6,4,5,7,9,3,13,10,8"
14349,commdev-image-keyboard-response,464,838904,learnblock2,562.8999999761581,img/planet4_right.png,4,Community 2,NA,TRUE,j,j,NA,NA,NA,4,6,"11,14,15,1,12,2,6,4,5,7,9,3,13,10,8"
14349,commdev-image-keyboard-response,465,840164,learnblock2,724.7000000476837,img/planet5_right.png,5,Community 2,NA,TRUE,j,j,NA,NA,NA,4,6,"11,14,15,1,12,2,6,4,5,7,9,3,13,10,8"
14349,commdev-image-keyboard-response,466,841421,learnblock2,857.5,img/planet7_left.png,7,Community 2,NA,TRUE,f,f,NA,NA,NA,4,6,"11,14,15,1,12,2,6,4,5,7,9,3,13,10,8"
14349,commdev-image-keyboard-response,467,842674,learnblock2,595.3000000119209,img/planet2_left.png,2,Community 2,NA,TRUE,f,f,NA,NA,NA,4,6,"11,14,15,1,12,2,6,4,5,7,9,3,13,10,8"
14349,commdev-image-keyboard-response,468,843934,learnblock2,634.4000000357628,img/planet1_left.png,1,Community 1,NA,TRUE,f,f,NA,NA,NA,4,6,"11,14,15,1,12,2,6,4,5,7,9,3,13,10,8"
14349,commdev-image-keyboard-response,469,845193,learnblock2,640.6999999880791,img/planet15_left.png,15,Community 1,NA,TRUE,f,f,NA,NA,NA,4,6,"11,14,15,1,12,2,6,4,5,7,9,3,13,10,8"
14349,commdev-image-keyboard-response,470,846445,learnblock2,964.1000000238419,img/planet14_left.png,14,Community 1,NA,TRUE,f,f,NA,NA,NA,4,6,"11,14,15,1,12,2,6,4,5,7,9,3,13,10,8"
14349,commdev-image-keyboard-response,471,847704,learnblock2,909.0999999642372,img/planet15_right.png,15,Community 1,NA,TRUE,j,j,NA,NA,NA,4,6,"11,14,15,1,12,2,6,4,5,7,9,3,13,10,8"
14349,commdev-image-keyboard-response,472,848960,learnblock2,756.8999999761581,img/planet1_left.png,1,Community 1,NA,TRUE,f,f,NA,NA,NA,4,6,"11,14,15,1,12,2,6,4,5,7,9,3,13,10,8"
14349,commdev-image-keyboard-response,473,850221,learnblock2,829.2000000476837,img/planet11_left.png,11,Community 1,NA,TRUE,f,f,NA,NA,NA,4,6,"11,14,15,1,12,2,6,4,5,7,9,3,13,10,8"
14349,commdev-image-keyboard-response,474,851479,learnblock2,983.3999999761581,img/planet12_right.png,12,Community 1,NA,TRUE,j,j,NA,NA,NA,4,6,"11,14,15,1,12,2,6,4,5,7,9,3,13,10,8"
14349,commdev-image-keyboard-response,475,852738,learnblock2,807.9000000357628,img/planet15_right.png,15,Community 1,NA,TRUE,j,j,NA,NA,NA,4,6,"11,14,15,1,12,2,6,4,5,7,9,3,13,10,8"
14349,commdev-image-keyboard-response,476,853991,learnblock2,776.5,img/planet12_left.png,12,Community 1,NA,TRUE,f,f,NA,NA,NA,4,6,"11,14,15,1,12,2,6,4,5,7,9,3,13,10,8"
14349,commdev-image-keyboard-response,477,855247,learnblock2,965.3000000119209,img/planet9_right.png,9,Community 3,NA,TRUE,j,j,NA,NA,NA,4,6,"11,14,15,1,12,2,6,4,5,7,9,3,13,10,8"
14349,commdev-image-keyboard-response,478,856501,learnblock2,1206,img/planet13_right.png,13,Community 3,NA,TRUE,j,j,NA,NA,NA,4,6,"11,14,15,1,12,2,6,4,5,7,9,3,13,10,8"
14349,commdev-image-keyboard-response,479,857762,learnblock2,853.0999999642372,img/planet3_right.png,3,Community 3,NA,TRUE,j,j,NA,NA,NA,4,6,"11,14,15,1,12,2,6,4,5,7,9,3,13,10,8"
14349,commdev-image-keyboard-response,480,859016,learnblock2,821.6999999880791,img/planet13_left.png,13,Community 3,NA,TRUE,f,f,NA,NA,NA,4,6,"11,14,15,1,12,2,6,4,5,7,9,3,13,10,8"
14349,commdev-image-keyboard-response,481,860273,learnblock2,875.6999999880791,img/planet3_left.png,3,Community 3,NA,FALSE,j,f,NA,NA,NA,4,6,"11,14,15,1,12,2,6,4,5,7,9,3,13,10,8"
14349,commdev-image-keyboard-response,482,861534,learnblock2,828.5999999642372,img/planet13_right.png,13,Community 3,NA,TRUE,j,j,NA,NA,NA,4,6,"11,14,15,1,12,2,6,4,5,7,9,3,13,10,8"
14349,commdev-image-keyboard-response,483,862800,learnblock2,820.8999999761581,img/planet8_right.png,8,Community 3,NA,FALSE,f,j,NA,NA,NA,4,6,"11,14,15,1,12,2,6,4,5,7,9,3,13,10,8"
14349,commdev-image-keyboard-response,484,864056,learnblock2,570.1000000238419,img/planet10_right.png,10,Community 3,NA,TRUE,j,j,NA,NA,NA,4,6,"11,14,15,1,12,2,6,4,5,7,9,3,13,10,8"
14349,commdev-image-keyboard-response,485,865317,learnblock2,727.6000000238419,img/planet13_left.png,13,Community 3,NA,FALSE,j,f,NA,NA,NA,4,6,"11,14,15,1,12,2,6,4,5,7,9,3,13,10,8"
14349,commdev-image-keyboard-response,486,866583,learnblock2,918.3000000119209,img/planet8_right.png,8,Community 3,NA,TRUE,j,j,NA,NA,NA,4,6,"11,14,15,1,12,2,6,4,5,7,9,3,13,10,8"
14349,commdev-image-keyboard-response,487,867839,learnblock2,842.8000000119209,img/planet13_left.png,13,Community 3,NA,TRUE,f,f,NA,NA,NA,4,6,"11,14,15,1,12,2,6,4,5,7,9,3,13,10,8"
14349,commdev-image-keyboard-response,488,869100,learnblock2,null,img/planet3_left.png,3,Community 3,NA,FALSE,null,f,NA,NA,NA,4,6,"11,14,15,1,12,2,6,4,5,7,9,3,13,10,8"
14349,commdev-image-keyboard-response,489,870354,learnblock2,932,img/planet8_left.png,8,Community 3,NA,TRUE,f,f,NA,NA,NA,4,6,"11,14,15,1,12,2,6,4,5,7,9,3,13,10,8"
14349,commdev-image-keyboard-response,490,871615,learnblock2,null,img/planet3_left.png,3,Community 3,NA,FALSE,null,f,NA,NA,NA,4,6,"11,14,15,1,12,2,6,4,5,7,9,3,13,10,8"
14349,commdev-image-keyboard-response,491,872873,learnblock2,101.59999996423721,img/planet8_right.png,8,Community 3,NA,FALSE,f,j,NA,NA,NA,4,6,"11,14,15,1,12,2,6,4,5,7,9,3,13,10,8"
14349,commdev-image-keyboard-response,492,874134,learnblock2,691.9000000357628,img/planet9_right.png,9,Community 3,NA,TRUE,j,j,NA,NA,NA,4,6,"11,14,15,1,12,2,6,4,5,7,9,3,13,10,8"
14349,commdev-image-keyboard-response,493,875392,learnblock2,642,img/planet10_left.png,10,Community 3,NA,TRUE,f,f,NA,NA,NA,4,6,"11,14,15,1,12,2,6,4,5,7,9,3,13,10,8"
14349,commdev-image-keyboard-response,494,876656,learnblock2,914.1000000238419,img/planet3_left.png,3,Community 3,NA,TRUE,f,f,NA,NA,NA,4,6,"11,14,15,1,12,2,6,4,5,7,9,3,13,10,8"
14349,commdev-image-keyboard-response,495,877910,learnblock2,825.5,img/planet8_right.png,8,Community 3,NA,TRUE,j,j,NA,NA,NA,4,6,"11,14,15,1,12,2,6,4,5,7,9,3,13,10,8"
14349,commdev-image-keyboard-response,496,879164,learnblock2,741.7000000476837,img/planet13_left.png,13,Community 3,NA,TRUE,f,f,NA,NA,NA,4,6,"11,14,15,1,12,2,6,4,5,7,9,3,13,10,8"
14349,commdev-image-keyboard-response,497,880424,learnblock2,792.1999999880791,img/planet8_right.png,8,Community 3,NA,TRUE,j,j,NA,NA,NA,4,6,"11,14,15,1,12,2,6,4,5,7,9,3,13,10,8"
14349,commdev-image-keyboard-response,498,881680,learnblock2,738.0999999642372,img/planet10_right.png,10,Community 3,NA,TRUE,j,j,NA,NA,NA,4,6,"11,14,15,1,12,2,6,4,5,7,9,3,13,10,8"
14349,commdev-image-keyboard-response,499,882936,learnblock2,733.6999999880791,img/planet9_right.png,9,Community 3,NA,TRUE,j,j,NA,NA,NA,4,6,"11,14,15,1,12,2,6,4,5,7,9,3,13,10,8"
14349,commdev-image-keyboard-response,500,884196,learnblock2,654.6000000238419,img/planet10_left.png,10,Community 3,NA,TRUE,f,f,NA,NA,NA,4,6,"11,14,15,1,12,2,6,4,5,7,9,3,13,10,8"
14349,commdev-image-keyboard-response,501,885455,learnblock2,668.3000000119209,img/planet13_left.png,13,Community 3,NA,TRUE,f,f,NA,NA,NA,4,6,"11,14,15,1,12,2,6,4,5,7,9,3,13,10,8"
14349,commdev-image-keyboard-response,502,886712,learnblock2,1184.800000011921,img/planet3_left.png,3,Community 3,NA,TRUE,f,f,NA,NA,NA,4,6,"11,14,15,1,12,2,6,4,5,7,9,3,13,10,8"
14349,commdev-image-keyboard-response,503,887972,learnblock2,752.6999999880791,img/planet4_right.png,4,Community 2,NA,TRUE,j,j,NA,NA,NA,4,6,"11,14,15,1,12,2,6,4,5,7,9,3,13,10,8"
14349,commdev-image-keyboard-response,504,889224,learnblock2,923.8999999761581,img/planet5_left.png,5,Community 2,NA,TRUE,f,f,NA,NA,NA,4,6,"11,14,15,1,12,2,6,4,5,7,9,3,13,10,8"
14349,commdev-image-keyboard-response,505,890482,learnblock2,1201.800000011921,img/planet6_left.png,6,Community 2,NA,FALSE,j,f,NA,NA,NA,4,6,"11,14,15,1,12,2,6,4,5,7,9,3,13,10,8"
14349,commdev-image-keyboard-response,506,891737,learnblock2,659.7999999523163,img/planet4_right.png,4,Community 2,NA,TRUE,j,j,NA,NA,NA,4,6,"11,14,15,1,12,2,6,4,5,7,9,3,13,10,8"
14349,commdev-image-keyboard-response,507,893001,learnblock2,671.1000000238419,img/planet7_left.png,7,Community 2,NA,TRUE,f,f,NA,NA,NA,4,6,"11,14,15,1,12,2,6,4,5,7,9,3,13,10,8"
14349,commdev-image-keyboard-response,508,894255,learnblock2,757.8000000119209,img/planet2_right.png,2,Community 2,NA,TRUE,j,j,NA,NA,NA,4,6,"11,14,15,1,12,2,6,4,5,7,9,3,13,10,8"
14349,commdev-image-keyboard-response,509,895509,learnblock2,783.4000000357628,img/planet6_right.png,6,Community 2,NA,TRUE,j,j,NA,NA,NA,4,6,"11,14,15,1,12,2,6,4,5,7,9,3,13,10,8"
14349,commdev-image-keyboard-response,510,896769,learnblock2,664.1999999880791,img/planet2_right.png,2,Community 2,NA,TRUE,j,j,NA,NA,NA,4,6,"11,14,15,1,12,2,6,4,5,7,9,3,13,10,8"
14349,commdev-image-keyboard-response,511,898028,learnblock2,741.5999999642372,img/planet7_left.png,7,Community 2,NA,TRUE,f,f,NA,NA,NA,4,6,"11,14,15,1,12,2,6,4,5,7,9,3,13,10,8"
14349,commdev-image-keyboard-response,512,899294,learnblock2,723.2000000476837,img/planet4_left.png,4,Community 2,NA,TRUE,f,f,NA,NA,NA,4,6,"11,14,15,1,12,2,6,4,5,7,9,3,13,10,8"
14349,commdev-image-keyboard-response,513,900553,learnblock2,758.3000000119209,img/planet7_right.png,7,Community 2,NA,TRUE,j,j,NA,NA,NA,4,6,"11,14,15,1,12,2,6,4,5,7,9,3,13,10,8"
14349,commdev-image-keyboard-response,514,901812,learnblock2,712.5,img/planet4_left.png,4,Community 2,NA,TRUE,f,f,NA,NA,NA,4,6,"11,14,15,1,12,2,6,4,5,7,9,3,13,10,8"
14349,commdev-image-keyboard-response,515,903067,learnblock2,908.6999999880791,img/planet7_left.png,7,Community 2,NA,TRUE,f,f,NA,NA,NA,4,6,"11,14,15,1,12,2,6,4,5,7,9,3,13,10,8"
14349,commdev-image-keyboard-response,516,904325,learnblock2,780.3000000119209,img/planet5_right.png,5,Community 2,NA,TRUE,j,j,NA,NA,NA,4,6,"11,14,15,1,12,2,6,4,5,7,9,3,13,10,8"
14349,commdev-image-keyboard-response,517,905584,learnblock2,851.6000000238419,img/planet6_left.png,6,Community 2,NA,TRUE,f,f,NA,NA,NA,4,6,"11,14,15,1,12,2,6,4,5,7,9,3,13,10,8"
14349,commdev-image-keyboard-response,518,906836,learnblock2,584.1999999880791,img/planet4_right.png,4,Community 2,NA,TRUE,j,j,NA,NA,NA,4,6,"11,14,15,1,12,2,6,4,5,7,9,3,13,10,8"
14349,commdev-image-keyboard-response,519,908096,learnblock2,841,img/planet6_right.png,6,Community 2,NA,TRUE,j,j,NA,NA,NA,4,6,"11,14,15,1,12,2,6,4,5,7,9,3,13,10,8"
14349,commdev-image-keyboard-response,520,909362,learnblock2,743.5,img/planet7_right.png,7,Community 2,NA,TRUE,j,j,NA,NA,NA,4,6,"11,14,15,1,12,2,6,4,5,7,9,3,13,10,8"
14349,commdev-image-keyboard-response,521,910620,learnblock2,1198.4000000357628,img/planet4_left.png,4,Community 2,NA,TRUE,f,f,NA,NA,NA,4,6,"11,14,15,1,12,2,6,4,5,7,9,3,13,10,8"
14349,commdev-image-keyboard-response,522,911876,learnblock2,882.6000000238419,img/planet7_left.png,7,Community 2,NA,FALSE,j,f,NA,NA,NA,4,6,"11,14,15,1,12,2,6,4,5,7,9,3,13,10,8"
14349,commdev-image-keyboard-response,523,913138,learnblock2,830.8000000119209,img/planet4_left.png,4,Community 2,NA,FALSE,j,f,NA,NA,NA,4,6,"11,14,15,1,12,2,6,4,5,7,9,3,13,10,8"
14349,commdev-image-keyboard-response,524,914393,learnblock2,829.5,img/planet3_right.png,3,Community 3,NA,TRUE,j,j,NA,NA,NA,4,6,"11,14,15,1,12,2,6,4,5,7,9,3,13,10,8"
14349,commdev-image-keyboard-response,525,915653,learnblock2,682.3000000119209,img/planet13_left.png,13,Community 3,NA,TRUE,f,f,NA,NA,NA,4,6,"11,14,15,1,12,2,6,4,5,7,9,3,13,10,8"
14349,commdev-image-keyboard-response,526,916913,learnblock2,578.8999999761581,img/planet9_left.png,9,Community 3,NA,TRUE,f,f,NA,NA,NA,4,6,"11,14,15,1,12,2,6,4,5,7,9,3,13,10,8"
14349,commdev-image-keyboard-response,527,918166,learnblock2,1041,img/planet8_left.png,8,Community 3,NA,TRUE,f,f,NA,NA,NA,4,6,"11,14,15,1,12,2,6,4,5,7,9,3,13,10,8"
14349,commdev-image-keyboard-response,528,919432,learnblock2,942,img/planet9_left.png,9,Community 3,NA,TRUE,f,f,NA,NA,NA,4,6,"11,14,15,1,12,2,6,4,5,7,9,3,13,10,8"
14349,commdev-image-keyboard-response,529,920689,learnblock2,681.7999999523163,img/planet10_left.png,10,Community 3,NA,TRUE,f,f,NA,NA,NA,4,6,"11,14,15,1,12,2,6,4,5,7,9,3,13,10,8"
14349,commdev-image-keyboard-response,530,921945,learnblock2,1149.199999988079,img/planet8_left.png,8,Community 3,NA,TRUE,f,f,NA,NA,NA,4,6,"11,14,15,1,12,2,6,4,5,7,9,3,13,10,8"
14349,commdev-image-keyboard-response,531,923202,learnblock2,855.3000000119209,img/planet13_right.png,13,Community 3,NA,TRUE,j,j,NA,NA,NA,4,6,"11,14,15,1,12,2,6,4,5,7,9,3,13,10,8"
14349,commdev-image-keyboard-response,532,924459,learnblock2,890,img/planet3_right.png,3,Community 3,NA,TRUE,j,j,NA,NA,NA,4,6,"11,14,15,1,12,2,6,4,5,7,9,3,13,10,8"
14349,commdev-image-keyboard-response,533,925712,learnblock2,714.8999999761581,img/planet10_right.png,10,Community 3,NA,TRUE,j,j,NA,NA,NA,4,6,"11,14,15,1,12,2,6,4,5,7,9,3,13,10,8"
14349,commdev-image-keyboard-response,534,926973,learnblock2,740.0999999642372,img/planet13_left.png,13,Community 3,NA,TRUE,f,f,NA,NA,NA,4,6,"11,14,15,1,12,2,6,4,5,7,9,3,13,10,8"
14349,commdev-image-keyboard-response,535,928233,learnblock2,911.1999999880791,img/planet9_right.png,9,Community 3,NA,TRUE,j,j,NA,NA,NA,4,6,"11,14,15,1,12,2,6,4,5,7,9,3,13,10,8"
14349,commdev-image-keyboard-response,536,929494,learnblock2,1018.1000000238419,img/planet13_right.png,13,Community 3,NA,FALSE,f,j,NA,NA,NA,4,6,"11,14,15,1,12,2,6,4,5,7,9,3,13,10,8"
14349,commdev-image-keyboard-response,537,930751,learnblock2,870.4000000357628,img/planet9_left.png,9,Community 3,NA,TRUE,f,f,NA,NA,NA,4,6,"11,14,15,1,12,2,6,4,5,7,9,3,13,10,8"
14349,commdev-image-keyboard-response,538,932004,learnblock2,732.1000000238419,img/planet10_left.png,10,Community 3,NA,TRUE,f,f,NA,NA,NA,4,6,"11,14,15,1,12,2,6,4,5,7,9,3,13,10,8"
14349,commdev-image-keyboard-response,539,933263,learnblock2,1099.9000000357628,img/planet8_left.png,8,Community 3,NA,TRUE,f,f,NA,NA,NA,4,6,"11,14,15,1,12,2,6,4,5,7,9,3,13,10,8"
14349,commdev-image-keyboard-response,540,934516,learnblock2,1041.5,img/planet9_right.png,9,Community 3,NA,TRUE,j,j,NA,NA,NA,4,6,"11,14,15,1,12,2,6,4,5,7,9,3,13,10,8"
14349,commdev-image-keyboard-response,541,935773,learnblock2,749.3000000119209,img/planet13_left.png,13,Community 3,NA,TRUE,f,f,NA,NA,NA,4,6,"11,14,15,1,12,2,6,4,5,7,9,3,13,10,8"
14349,commdev-image-keyboard-response,542,937027,learnblock2,1236.4000000357628,img/planet8_left.png,8,Community 3,NA,TRUE,f,f,NA,NA,NA,4,6,"11,14,15,1,12,2,6,4,5,7,9,3,13,10,8"
14349,commdev-image-keyboard-response,543,938282,learnblock2,800.1000000238419,img/planet13_right.png,13,Community 3,NA,TRUE,j,j,NA,NA,NA,4,6,"11,14,15,1,12,2,6,4,5,7,9,3,13,10,8"
14349,commdev-image-keyboard-response,544,939534,learnblock2,899.5,img/planet9_right.png,9,Community 3,NA,TRUE,j,j,NA,NA,NA,4,6,"11,14,15,1,12,2,6,4,5,7,9,3,13,10,8"
14349,commdev-image-keyboard-response,545,940794,learnblock2,783,img/planet13_left.png,13,Community 3,NA,TRUE,f,f,NA,NA,NA,4,6,"11,14,15,1,12,2,6,4,5,7,9,3,13,10,8"
14349,commdev-image-keyboard-response,546,942049,learnblock2,620.8000000119209,img/planet9_right.png,9,Community 3,NA,TRUE,j,j,NA,NA,NA,4,6,"11,14,15,1,12,2,6,4,5,7,9,3,13,10,8"
14349,commdev-image-keyboard-response,547,943312,learnblock2,632.8000000119209,img/planet12_left.png,12,Community 1,NA,TRUE,f,f,NA,NA,NA,4,6,"11,14,15,1,12,2,6,4,5,7,9,3,13,10,8"
14349,commdev-image-keyboard-response,548,944572,learnblock2,804.6999999880791,img/planet15_left.png,15,Community 1,NA,TRUE,f,f,NA,NA,NA,4,6,"11,14,15,1,12,2,6,4,5,7,9,3,13,10,8"
14349,commdev-image-keyboard-response,549,945828,learnblock2,845,img/planet14_left.png,14,Community 1,NA,TRUE,f,f,NA,NA,NA,4,6,"11,14,15,1,12,2,6,4,5,7,9,3,13,10,8"
14349,commdev-image-keyboard-response,550,947086,learnblock2,1093.8999999761581,img/planet15_right.png,15,Community 1,NA,TRUE,j,j,NA,NA,NA,4,6,"11,14,15,1,12,2,6,4,5,7,9,3,13,10,8"
14349,commdev-image-keyboard-response,551,948345,learnblock2,924.5,img/planet1_left.png,1,Community 1,NA,TRUE,f,f,NA,NA,NA,4,6,"11,14,15,1,12,2,6,4,5,7,9,3,13,10,8"
14349,commdev-image-keyboard-response,552,949599,learnblock2,808.8999999761581,img/planet15_right.png,15,Community 1,NA,TRUE,j,j,NA,NA,NA,4,6,"11,14,15,1,12,2,6,4,5,7,9,3,13,10,8"
14349,commdev-image-keyboard-response,553,950858,learnblock2,768.9000000357628,img/planet1_left.png,1,Community 1,NA,TRUE,f,f,NA,NA,NA,4,6,"11,14,15,1,12,2,6,4,5,7,9,3,13,10,8"
14349,commdev-image-keyboard-response,554,952126,learnblock2,899.5999999642372,img/planet11_right.png,11,Community 1,NA,TRUE,j,j,NA,NA,NA,4,6,"11,14,15,1,12,2,6,4,5,7,9,3,13,10,8"
14349,commdev-image-keyboard-response,555,953380,learnblock2,809.6999999880791,img/planet14_right.png,14,Community 1,NA,FALSE,f,j,NA,NA,NA,4,6,"11,14,15,1,12,2,6,4,5,7,9,3,13,10,8"
14349,commdev-image-keyboard-response,556,954634,learnblock2,974.6999999880791,img/planet1_right.png,1,Community 1,NA,TRUE,j,j,NA,NA,NA,4,6,"11,14,15,1,12,2,6,4,5,7,9,3,13,10,8"
14349,commdev-image-keyboard-response,557,955885,learnblock2,730.6000000238419,img/planet2_right.png,2,Community 2,NA,TRUE,j,j,NA,NA,NA,4,6,"11,14,15,1,12,2,6,4,5,7,9,3,13,10,8"
14349,commdev-image-keyboard-response,558,957142,learnblock2,556.6000000238419,img/planet1_left.png,1,Community 1,NA,TRUE,f,f,NA,NA,NA,4,6,"11,14,15,1,12,2,6,4,5,7,9,3,13,10,8"
14349,commdev-image-keyboard-response,559,958397,learnblock2,1011.8000000119209,img/planet2_left.png,2,Community 2,NA,TRUE,f,f,NA,NA,NA,4,6,"11,14,15,1,12,2,6,4,5,7,9,3,13,10,8"
14349,commdev-image-keyboard-response,560,959649,learnblock2,714.1999999880791,img/planet5_left.png,5,Community 2,NA,TRUE,f,f,NA,NA,NA,4,6,"11,14,15,1,12,2,6,4,5,7,9,3,13,10,8"
14349,commdev-image-keyboard-response,561,960912,learnblock2,618.6000000238419,img/planet2_left.png,2,Community 2,NA,TRUE,f,f,NA,NA,NA,4,6,"11,14,15,1,12,2,6,4,5,7,9,3,13,10,8"
14349,commdev-image-keyboard-response,562,962170,learnblock2,753.1999999880791,img/planet1_right.png,1,Community 1,NA,TRUE,j,j,NA,NA,NA,4,6,"11,14,15,1,12,2,6,4,5,7,9,3,13,10,8"
14349,commdev-image-keyboard-response,563,963422,learnblock2,752.2000000476837,img/planet15_left.png,15,Community 1,NA,TRUE,f,f,NA,NA,NA,4,6,"11,14,15,1,12,2,6,4,5,7,9,3,13,10,8"
14349,commdev-image-keyboard-response,564,964681,learnblock2,943.6999999880791,img/planet11_left.png,11,Community 1,NA,TRUE,f,f,NA,NA,NA,4,6,"11,14,15,1,12,2,6,4,5,7,9,3,13,10,8"
14349,commdev-image-keyboard-response,565,965934,learnblock2,682.0999999642372,img/planet1_right.png,1,Community 1,NA,TRUE,j,j,NA,NA,NA,4,6,"11,14,15,1,12,2,6,4,5,7,9,3,13,10,8"
14349,commdev-image-keyboard-response,566,967193,learnblock2,737.2000000476837,img/planet2_right.png,2,Community 2,NA,TRUE,j,j,NA,NA,NA,4,6,"11,14,15,1,12,2,6,4,5,7,9,3,13,10,8"
14349,commdev-image-keyboard-response,567,968444,learnblock2,950.6000000238419,img/planet6_left.png,6,Community 2,NA,TRUE,f,f,NA,NA,NA,4,6,"11,14,15,1,12,2,6,4,5,7,9,3,13,10,8"
14349,commdev-image-keyboard-response,568,969697,learnblock2,943.6000000238419,img/planet2_right.png,2,Community 2,NA,TRUE,j,j,NA,NA,NA,4,6,"11,14,15,1,12,2,6,4,5,7,9,3,13,10,8"
14349,commdev-image-keyboard-response,569,970951,learnblock2,904.3000000119209,img/planet6_right.png,6,Community 2,NA,TRUE,j,j,NA,NA,NA,4,6,"11,14,15,1,12,2,6,4,5,7,9,3,13,10,8"
14349,commdev-image-keyboard-response,570,972204,learnblock2,677.6000000238419,img/planet5_right.png,5,Community 2,NA,TRUE,j,j,NA,NA,NA,4,6,"11,14,15,1,12,2,6,4,5,7,9,3,13,10,8"
14349,commdev-image-keyboard-response,571,973465,learnblock2,741.5,img/planet2_right.png,2,Community 2,NA,TRUE,j,j,NA,NA,NA,4,6,"11,14,15,1,12,2,6,4,5,7,9,3,13,10,8"
14349,commdev-image-keyboard-response,572,974724,learnblock2,942,img/planet5_right.png,5,Community 2,NA,TRUE,j,j,NA,NA,NA,4,6,"11,14,15,1,12,2,6,4,5,7,9,3,13,10,8"
14349,commdev-image-keyboard-response,573,975980,learnblock2,615.8000000119209,img/planet7_left.png,7,Community 2,NA,TRUE,f,f,NA,NA,NA,4,6,"11,14,15,1,12,2,6,4,5,7,9,3,13,10,8"
14349,commdev-image-keyboard-response,574,977233,learnblock2,623.0999999642372,img/planet4_right.png,4,Community 2,NA,FALSE,f,j,NA,NA,NA,4,6,"11,14,15,1,12,2,6,4,5,7,9,3,13,10,8"
14349,commdev-image-keyboard-response,575,978493,learnblock2,977.7999999523163,img/planet6_right.png,6,Community 2,NA,TRUE,j,j,NA,NA,NA,4,6,"11,14,15,1,12,2,6,4,5,7,9,3,13,10,8"
14349,commdev-image-keyboard-response,576,979746,learnblock2,885.8000000119209,img/planet4_left.png,4,Community 2,NA,TRUE,f,f,NA,NA,NA,4,6,"11,14,15,1,12,2,6,4,5,7,9,3,13,10,8"
14349,commdev-image-keyboard-response,577,980998,learnblock2,889.3000000119209,img/planet7_right.png,7,Community 2,NA,TRUE,j,j,NA,NA,NA,4,6,"11,14,15,1,12,2,6,4,5,7,9,3,13,10,8"
14349,commdev-image-keyboard-response,578,982256,learnblock2,940.3000000119209,img/planet5_left.png,5,Community 2,NA,TRUE,f,f,NA,NA,NA,4,6,"11,14,15,1,12,2,6,4,5,7,9,3,13,10,8"
14349,commdev-image-keyboard-response,579,983514,learnblock2,750.5,img/planet6_right.png,6,Community 2,NA,TRUE,j,j,NA,NA,NA,4,6,"11,14,15,1,12,2,6,4,5,7,9,3,13,10,8"
14349,commdev-image-keyboard-response,580,984772,learnblock2,778.3000000119209,img/planet2_right.png,2,Community 2,NA,TRUE,j,j,NA,NA,NA,4,6,"11,14,15,1,12,2,6,4,5,7,9,3,13,10,8"
14349,commdev-image-keyboard-response,581,986026,learnblock2,554,img/planet1_right.png,1,Community 1,NA,TRUE,j,j,NA,NA,NA,4,6,"11,14,15,1,12,2,6,4,5,7,9,3,13,10,8"
14349,commdev-image-keyboard-response,582,987282,learnblock2,974.3000000119209,img/planet15_right.png,15,Community 1,NA,TRUE,j,j,NA,NA,NA,4,6,"11,14,15,1,12,2,6,4,5,7,9,3,13,10,8"
14349,commdev-image-keyboard-response,583,988536,learnblock2,948.6000000238419,img/planet12_left.png,12,Community 1,NA,TRUE,f,f,NA,NA,NA,4,6,"11,14,15,1,12,2,6,4,5,7,9,3,13,10,8"
14349,commdev-image-keyboard-response,584,989794,learnblock2,1170.300000011921,img/planet14_right.png,14,Community 1,NA,TRUE,j,j,NA,NA,NA,4,6,"11,14,15,1,12,2,6,4,5,7,9,3,13,10,8"
14349,commdev-image-keyboard-response,585,991050,learnblock2,865.1999999880791,img/planet15_right.png,15,Community 1,NA,TRUE,j,j,NA,NA,NA,4,6,"11,14,15,1,12,2,6,4,5,7,9,3,13,10,8"
14349,commdev-image-keyboard-response,586,992311,learnblock2,755.8999999761581,img/planet1_left.png,1,Community 1,NA,TRUE,f,f,NA,NA,NA,4,6,"11,14,15,1,12,2,6,4,5,7,9,3,13,10,8"
