subject_id,trial_type,trial_index,time_elapsed,block,rt,stimulus,planet,community,response,correct,key_press,learning_correct_response,parse,init_locations,final_locations,browser_interactions,num_comp,planet_map
14270,commdev-instructions,7,47001,NA,2116.7999999523163,"<p>In this game, you will be shown a 3x3 grid of patterns.</p> <p>The last one in the bottom right-hand corner, <strong>will be missing:</strong></p> <div style='width: 700px;'><div style='float: top;'><img style='width: 200px;' src='practice/p1_M1.png'></img><p class='small'>You need to select<strong> which of the four possible patterns </strong>along the bottom<strong> fits into the gap:</strong></p></div><div style='float: top;'><img style='width: 300px;' src='practice/p1_T1.png'></img></div><br>",NA,NA,NA,NA,NA,NA,NA,NA,NA,1,6,"7,15,12,3,11,6,1,2,9,13,14,10,4,5,8"
14270,commdev-instructions,8,102850,NA,37151.80000001192,"<p>Try to be as fast and as accurate as you can be.</p> <p>If you cannot solve the puzzle then you should guess - you will not be penalised for an incorrect answer.</p> <p>The task contains a shuffled mix of easy, medium and hard puzzles.</p> <p>You will have <strong>30 seconds</strong> to complete each puzzle.</p><br>",NA,NA,NA,NA,NA,NA,NA,NA,NA,1,6,"7,15,12,3,11,6,1,2,9,13,14,10,4,5,8"
14270,commdev-instructions,15,129416,NA,1122,<p><strong>Success!</strong></p> <p>You seem to be getting the hang of this...</p> <p>Let's move on to the real trials.</p><br>,NA,NA,NA,NA,NA,NA,NA,NA,NA,1,6,"7,15,12,3,11,6,1,2,9,13,14,10,4,5,8"
14270,commdev-instructions,157,623143,NA,1628.300000011921,"<p>In this game, you are a scientist on board a space shuttle. </p><p> On each mission, you will visit planets all across the universe.</p><img src=""img/controlroom.jpg"" width=300vw>",NA,NA,NA,NA,NA,NA,NA,NA,NA,1,6,"7,15,12,3,11,6,1,2,9,13,14,10,4,5,8"
14270,commdev-instructions,158,625976,NA,759.8000000119209,"<p>Here are a few planets you might see:</p><img src=""img/practice1.png"" width=200vw><img src=""img/practice2.png"" width=200vw><img src=""img/practice3.png"" width=200vw>",NA,NA,NA,NA,NA,NA,NA,NA,NA,1,6,"7,15,12,3,11,6,1,2,9,13,14,10,4,5,8"
14270,commdev-instructions,159,634329,NA,952.8000000119209,"<p>Your job as a scientist is to record which direction the winds are moving on each planet.</p><p>There are two types of wind directions:</p><img src=""img/practice1_left.png"" width=200vw><img src=""img/practice1_right.png"" width=200vw>",NA,NA,NA,NA,NA,NA,NA,NA,NA,1,6,"7,15,12,3,11,6,1,2,9,13,14,10,4,5,8"
14270,commdev-instructions,160,640693,NA,1482.300000011921,"<p>If the winds are moving this way, press the letter <strong>F</strong> on the keyboard as fast as you can.</p><img src=""img/leftwind.png"" width=250vw>",NA,NA,NA,NA,NA,NA,NA,NA,NA,1,6,"7,15,12,3,11,6,1,2,9,13,14,10,4,5,8"
14270,commdev-instructions,161,646193,NA,1003.3000000119209,"<p>If the winds are moving this way, press the letter <strong>J</strong> on the keyboard as fast as you can.</p><img src=""img/rightwind.png"" width=350vw>",NA,NA,NA,NA,NA,NA,NA,NA,NA,1,6,"7,15,12,3,11,6,1,2,9,13,14,10,4,5,8"
14270,commdev-instructions,162,651743,NA,1129.699999988079,<p>You will have 1 second to respond. Try to respond before the time runs out!,NA,NA,NA,NA,NA,NA,NA,NA,NA,1,6,"7,15,12,3,11,6,1,2,9,13,14,10,4,5,8"
14270,commdev-instructions,163,658060,NA,887.1000000238419,<p>The planets you will visit will look different from each other.</p><p>You should respond <strong>only</strong> based on wind direction.,NA,NA,NA,NA,NA,NA,NA,NA,NA,1,6,"7,15,12,3,11,6,1,2,9,13,14,10,4,5,8"
14270,commdev-instructions,164,664494,NA,1267.5,"<p> Ready to start the practice round? </p><p> Remember, press <strong>F</strong> or <strong>J</strong> depending on the wind direction.<br><img src=""img/categorize_planet_example.png""",NA,NA,NA,NA,NA,NA,NA,NA,NA,1,6,"7,15,12,3,11,6,1,2,9,13,14,10,4,5,8"
14270,commdev-instructions,176,713575,NA,1660.800000011921,"<p>Great, now try a short practice mission. </p><p> This time, you will have 1 second to respond and you won't know whether you pressed the right or wrong key for each planet.</p>",NA,NA,NA,NA,NA,NA,NA,NA,NA,1,6,"7,15,12,3,11,6,1,2,9,13,14,10,4,5,8"
14270,commdev-image-keyboard-response,177,714931,practice,746.8999999761581,img/practice2_left.png,NA,Number not found in mappings,NA,TRUE,f,f,NA,NA,NA,1,6,"7,15,12,3,11,6,1,2,9,13,14,10,4,5,8"
14270,commdev-image-keyboard-response,178,716186,practice,644.9000000357628,img/practice1_left.png,NA,Number not found in mappings,NA,TRUE,f,f,NA,NA,NA,1,6,"7,15,12,3,11,6,1,2,9,13,14,10,4,5,8"
14270,commdev-image-keyboard-response,179,717438,practice,568.3999999761581,img/practice2_left.png,NA,Number not found in mappings,NA,TRUE,f,f,NA,NA,NA,1,6,"7,15,12,3,11,6,1,2,9,13,14,10,4,5,8"
14270,commdev-image-keyboard-response,180,718690,practice,535.1999999880791,img/practice4_left.png,NA,Number not found in mappings,NA,TRUE,f,f,NA,NA,NA,1,6,"7,15,12,3,11,6,1,2,9,13,14,10,4,5,8"
14270,commdev-image-keyboard-response,181,719944,practice,527.1999999880791,img/practice2_left.png,NA,Number not found in mappings,NA,TRUE,f,f,NA,NA,NA,1,6,"7,15,12,3,11,6,1,2,9,13,14,10,4,5,8"
14270,commdev-image-keyboard-response,182,721198,practice,434.39999997615814,img/practice4_left.png,NA,Number not found in mappings,NA,TRUE,f,f,NA,NA,NA,1,6,"7,15,12,3,11,6,1,2,9,13,14,10,4,5,8"
14270,commdev-image-keyboard-response,183,722451,practice,521.5,img/practice1_right.png,NA,Number not found in mappings,NA,TRUE,j,j,NA,NA,NA,1,6,"7,15,12,3,11,6,1,2,9,13,14,10,4,5,8"
14270,commdev-image-keyboard-response,184,723704,practice,530.1000000238419,img/practice4_right.png,NA,Number not found in mappings,NA,TRUE,j,j,NA,NA,NA,1,6,"7,15,12,3,11,6,1,2,9,13,14,10,4,5,8"
14270,commdev-instructions,185,734225,NA,966.5999999642372,"<p>Great job with the practice round.</p><p>During real missions, you won't know whether you pressed the right or wrong key for each planet.</p><p>But between missions, we will tell you how you did overall.</p>",NA,NA,NA,NA,NA,NA,NA,NA,NA,1,6,"7,15,12,3,11,6,1,2,9,13,14,10,4,5,8"
14270,commdev-instructions,186,743208,NA,745.0999999642372,<p>Try your best! You will be paid a bonus based on how many correct responses you make!</p><p>Responses that are too slow will not count toward your bonus.</p>,NA,NA,NA,NA,NA,NA,NA,NA,NA,1,6,"7,15,12,3,11,6,1,2,9,13,14,10,4,5,8"
14270,commdev-instructions,187,752428,NA,3021.2999999523163,"<p>You are almost ready to start the real game.</p><p> First, we are going to ask you some questions about how the game works.</p>",NA,NA,NA,NA,NA,NA,NA,NA,NA,1,6,"7,15,12,3,11,6,1,2,9,13,14,10,4,5,8"
14270,commdev-instructions,196,838109,NA,2936.099999964237,"<p> Nice work! It is now time to start the real game.<p></p>You will go on two missions to record wind directions of different planets.<p></p>Each one will take about 5 minutes. You will get to take a break between missions.<p><p> Remember, press <strong>F</strong> or <strong>J</strong> depending on the wind direction. Good luck!<br><img src=""img/categorize_planet_example.png""",NA,NA,NA,NA,NA,NA,NA,NA,NA,1,6,"7,15,12,3,11,6,1,2,9,13,14,10,4,5,8"
14270,commdev-image-keyboard-response,198,841745,learnblock1,796.1999999880791,img/planet6_right.png,6,Community 2,NA,TRUE,j,j,NA,NA,NA,1,6,"7,15,12,3,11,6,1,2,9,13,14,10,4,5,8"
14270,commdev-image-keyboard-response,199,842998,learnblock1,568.6000000238419,img/planet3_left.png,3,Community 1,NA,TRUE,f,f,NA,NA,NA,1,6,"7,15,12,3,11,6,1,2,9,13,14,10,4,5,8"
14270,commdev-image-keyboard-response,200,844251,learnblock1,600.4000000357628,img/planet7_left.png,7,Community 1,NA,TRUE,f,f,NA,NA,NA,1,6,"7,15,12,3,11,6,1,2,9,13,14,10,4,5,8"
14270,commdev-image-keyboard-response,201,845503,learnblock1,545.9000000357628,img/planet12_right.png,12,Community 1,NA,TRUE,j,j,NA,NA,NA,1,6,"7,15,12,3,11,6,1,2,9,13,14,10,4,5,8"
14270,commdev-image-keyboard-response,202,846756,learnblock1,827.5,img/planet15_left.png,15,Community 1,NA,TRUE,f,f,NA,NA,NA,1,6,"7,15,12,3,11,6,1,2,9,13,14,10,4,5,8"
14270,commdev-image-keyboard-response,203,848008,learnblock1,547.1999999880791,img/planet11_right.png,11,Community 1,NA,TRUE,j,j,NA,NA,NA,1,6,"7,15,12,3,11,6,1,2,9,13,14,10,4,5,8"
14270,commdev-image-keyboard-response,204,849261,learnblock1,507.4000000357628,img/planet12_left.png,12,Community 1,NA,TRUE,f,f,NA,NA,NA,1,6,"7,15,12,3,11,6,1,2,9,13,14,10,4,5,8"
14270,commdev-image-keyboard-response,205,850514,learnblock1,540.6999999880791,img/planet11_left.png,11,Community 1,NA,TRUE,f,f,NA,NA,NA,1,6,"7,15,12,3,11,6,1,2,9,13,14,10,4,5,8"
14270,commdev-image-keyboard-response,206,851766,learnblock1,578.0999999642372,img/planet7_left.png,7,Community 1,NA,TRUE,f,f,NA,NA,NA,1,6,"7,15,12,3,11,6,1,2,9,13,14,10,4,5,8"
14270,commdev-image-keyboard-response,207,853019,learnblock1,566.1000000238419,img/planet15_right.png,15,Community 1,NA,TRUE,j,j,NA,NA,NA,1,6,"7,15,12,3,11,6,1,2,9,13,14,10,4,5,8"
14270,commdev-image-keyboard-response,208,854272,learnblock1,508.4000000357628,img/planet3_left.png,3,Community 1,NA,TRUE,f,f,NA,NA,NA,1,6,"7,15,12,3,11,6,1,2,9,13,14,10,4,5,8"
14270,commdev-image-keyboard-response,209,855524,learnblock1,572.1000000238419,img/planet12_left.png,12,Community 1,NA,TRUE,f,f,NA,NA,NA,1,6,"7,15,12,3,11,6,1,2,9,13,14,10,4,5,8"
14270,commdev-image-keyboard-response,210,856777,learnblock1,584.6999999880791,img/planet7_left.png,7,Community 1,NA,TRUE,f,f,NA,NA,NA,1,6,"7,15,12,3,11,6,1,2,9,13,14,10,4,5,8"
14270,commdev-image-keyboard-response,211,858031,learnblock1,574.5999999642372,img/planet11_left.png,11,Community 1,NA,TRUE,f,f,NA,NA,NA,1,6,"7,15,12,3,11,6,1,2,9,13,14,10,4,5,8"
14270,commdev-image-keyboard-response,212,859284,learnblock1,556.1999999880791,img/planet14_left.png,14,Community 3,NA,TRUE,f,f,NA,NA,NA,1,6,"7,15,12,3,11,6,1,2,9,13,14,10,4,5,8"
14270,commdev-image-keyboard-response,213,860537,learnblock1,585.8000000119209,img/planet5_right.png,5,Community 3,NA,TRUE,j,j,NA,NA,NA,1,6,"7,15,12,3,11,6,1,2,9,13,14,10,4,5,8"
14270,commdev-image-keyboard-response,214,861790,learnblock1,868.3999999761581,img/planet4_right.png,4,Community 3,NA,TRUE,j,j,NA,NA,NA,1,6,"7,15,12,3,11,6,1,2,9,13,14,10,4,5,8"
14270,commdev-image-keyboard-response,215,863042,learnblock1,863,img/planet14_left.png,14,Community 3,NA,TRUE,f,f,NA,NA,NA,1,6,"7,15,12,3,11,6,1,2,9,13,14,10,4,5,8"
14270,commdev-image-keyboard-response,216,864296,learnblock1,704,img/planet5_right.png,5,Community 3,NA,TRUE,j,j,NA,NA,NA,1,6,"7,15,12,3,11,6,1,2,9,13,14,10,4,5,8"
14270,commdev-image-keyboard-response,217,865549,learnblock1,536.4000000357628,img/planet8_left.png,8,Community 3,NA,TRUE,f,f,NA,NA,NA,1,6,"7,15,12,3,11,6,1,2,9,13,14,10,4,5,8"
14270,commdev-image-keyboard-response,218,866801,learnblock1,616.5,img/planet5_left.png,5,Community 3,NA,TRUE,f,f,NA,NA,NA,1,6,"7,15,12,3,11,6,1,2,9,13,14,10,4,5,8"
14270,commdev-image-keyboard-response,219,868055,learnblock1,567.6999999880791,img/planet4_right.png,4,Community 3,NA,TRUE,j,j,NA,NA,NA,1,6,"7,15,12,3,11,6,1,2,9,13,14,10,4,5,8"
14270,commdev-image-keyboard-response,220,869307,learnblock1,583.6999999880791,img/planet8_right.png,8,Community 3,NA,TRUE,j,j,NA,NA,NA,1,6,"7,15,12,3,11,6,1,2,9,13,14,10,4,5,8"
14270,commdev-image-keyboard-response,221,870561,learnblock1,541,img/planet5_right.png,5,Community 3,NA,TRUE,j,j,NA,NA,NA,1,6,"7,15,12,3,11,6,1,2,9,13,14,10,4,5,8"
14270,commdev-image-keyboard-response,222,871814,learnblock1,521.5999999642372,img/planet14_right.png,14,Community 3,NA,TRUE,j,j,NA,NA,NA,1,6,"7,15,12,3,11,6,1,2,9,13,14,10,4,5,8"
14270,commdev-image-keyboard-response,223,873067,learnblock1,606.4000000357628,img/planet11_left.png,11,Community 1,NA,TRUE,f,f,NA,NA,NA,1,6,"7,15,12,3,11,6,1,2,9,13,14,10,4,5,8"
14270,commdev-image-keyboard-response,224,874319,learnblock1,569.5,img/planet14_right.png,14,Community 3,NA,TRUE,j,j,NA,NA,NA,1,6,"7,15,12,3,11,6,1,2,9,13,14,10,4,5,8"
14270,commdev-image-keyboard-response,225,875573,learnblock1,589.8999999761581,img/planet11_left.png,11,Community 1,NA,TRUE,f,f,NA,NA,NA,1,6,"7,15,12,3,11,6,1,2,9,13,14,10,4,5,8"
14270,commdev-image-keyboard-response,226,876826,learnblock1,635.3999999761581,img/planet14_left.png,14,Community 3,NA,TRUE,f,f,NA,NA,NA,1,6,"7,15,12,3,11,6,1,2,9,13,14,10,4,5,8"
14270,commdev-image-keyboard-response,227,878079,learnblock1,585.7999999523163,img/planet11_right.png,11,Community 1,NA,TRUE,j,j,NA,NA,NA,1,6,"7,15,12,3,11,6,1,2,9,13,14,10,4,5,8"
14270,commdev-image-keyboard-response,228,879331,learnblock1,609.3999999761581,img/planet15_left.png,15,Community 1,NA,TRUE,f,f,NA,NA,NA,1,6,"7,15,12,3,11,6,1,2,9,13,14,10,4,5,8"
14270,commdev-image-keyboard-response,229,880584,learnblock1,558.0999999642372,img/planet7_left.png,7,Community 1,NA,TRUE,f,f,NA,NA,NA,1,6,"7,15,12,3,11,6,1,2,9,13,14,10,4,5,8"
14270,commdev-image-keyboard-response,230,881837,learnblock1,537.5,img/planet12_left.png,12,Community 1,NA,TRUE,f,f,NA,NA,NA,1,6,"7,15,12,3,11,6,1,2,9,13,14,10,4,5,8"
14270,commdev-image-keyboard-response,231,883090,learnblock1,502.80000001192093,img/planet11_right.png,11,Community 1,NA,TRUE,j,j,NA,NA,NA,1,6,"7,15,12,3,11,6,1,2,9,13,14,10,4,5,8"
14270,commdev-image-keyboard-response,232,884342,learnblock1,703.3000000119209,img/planet7_right.png,7,Community 1,NA,FALSE,f,j,NA,NA,NA,1,6,"7,15,12,3,11,6,1,2,9,13,14,10,4,5,8"
14270,commdev-image-keyboard-response,233,885594,learnblock1,944.8999999761581,img/planet15_right.png,15,Community 1,NA,TRUE,j,j,NA,NA,NA,1,6,"7,15,12,3,11,6,1,2,9,13,14,10,4,5,8"
14270,commdev-image-keyboard-response,234,886847,learnblock1,840.5999999642372,img/planet12_right.png,12,Community 1,NA,TRUE,j,j,NA,NA,NA,1,6,"7,15,12,3,11,6,1,2,9,13,14,10,4,5,8"
14270,commdev-image-keyboard-response,235,888100,learnblock1,718.3000000119209,img/planet7_left.png,7,Community 1,NA,TRUE,f,f,NA,NA,NA,1,6,"7,15,12,3,11,6,1,2,9,13,14,10,4,5,8"
14270,commdev-image-keyboard-response,236,889352,learnblock1,756.6000000238419,img/planet11_left.png,11,Community 1,NA,TRUE,f,f,NA,NA,NA,1,6,"7,15,12,3,11,6,1,2,9,13,14,10,4,5,8"
14270,commdev-image-keyboard-response,237,890605,learnblock1,683.8999999761581,img/planet14_left.png,14,Community 3,NA,TRUE,f,f,NA,NA,NA,1,6,"7,15,12,3,11,6,1,2,9,13,14,10,4,5,8"
14270,commdev-image-keyboard-response,238,891858,learnblock1,664.8999999761581,img/planet4_right.png,4,Community 3,NA,TRUE,j,j,NA,NA,NA,1,6,"7,15,12,3,11,6,1,2,9,13,14,10,4,5,8"
14270,commdev-image-keyboard-response,239,893110,learnblock1,655.3000000119209,img/planet14_right.png,14,Community 3,NA,TRUE,j,j,NA,NA,NA,1,6,"7,15,12,3,11,6,1,2,9,13,14,10,4,5,8"
14270,commdev-image-keyboard-response,240,894363,learnblock1,605.5,img/planet8_left.png,8,Community 3,NA,TRUE,f,f,NA,NA,NA,1,6,"7,15,12,3,11,6,1,2,9,13,14,10,4,5,8"
14270,commdev-image-keyboard-response,241,895616,learnblock1,592.8999999761581,img/planet14_left.png,14,Community 3,NA,TRUE,f,f,NA,NA,NA,1,6,"7,15,12,3,11,6,1,2,9,13,14,10,4,5,8"
14270,commdev-image-keyboard-response,242,896870,learnblock1,540.8000000119209,img/planet11_left.png,11,Community 1,NA,TRUE,f,f,NA,NA,NA,1,6,"7,15,12,3,11,6,1,2,9,13,14,10,4,5,8"
14270,commdev-image-keyboard-response,243,898123,learnblock1,647.2000000476837,img/planet12_right.png,12,Community 1,NA,TRUE,j,j,NA,NA,NA,1,6,"7,15,12,3,11,6,1,2,9,13,14,10,4,5,8"
14270,commdev-image-keyboard-response,244,899375,learnblock1,560.1999999880791,img/planet11_left.png,11,Community 1,NA,TRUE,f,f,NA,NA,NA,1,6,"7,15,12,3,11,6,1,2,9,13,14,10,4,5,8"
14270,commdev-image-keyboard-response,245,900628,learnblock1,584.3999999761581,img/planet14_left.png,14,Community 3,NA,TRUE,f,f,NA,NA,NA,1,6,"7,15,12,3,11,6,1,2,9,13,14,10,4,5,8"
14270,commdev-image-keyboard-response,246,901882,learnblock1,637.6000000238419,img/planet8_left.png,8,Community 3,NA,TRUE,f,f,NA,NA,NA,1,6,"7,15,12,3,11,6,1,2,9,13,14,10,4,5,8"
14270,commdev-image-keyboard-response,247,903135,learnblock1,599.3000000119209,img/planet4_right.png,4,Community 3,NA,TRUE,j,j,NA,NA,NA,1,6,"7,15,12,3,11,6,1,2,9,13,14,10,4,5,8"
14270,commdev-image-keyboard-response,248,904387,learnblock1,641.1999999880791,img/planet14_right.png,14,Community 3,NA,TRUE,j,j,NA,NA,NA,1,6,"7,15,12,3,11,6,1,2,9,13,14,10,4,5,8"
14270,commdev-image-keyboard-response,249,905640,learnblock1,578.6000000238419,img/planet5_right.png,5,Community 3,NA,TRUE,j,j,NA,NA,NA,1,6,"7,15,12,3,11,6,1,2,9,13,14,10,4,5,8"
14270,commdev-image-keyboard-response,250,906893,learnblock1,678.3000000119209,img/planet10_right.png,10,Community 3,NA,TRUE,j,j,NA,NA,NA,1,6,"7,15,12,3,11,6,1,2,9,13,14,10,4,5,8"
14270,commdev-image-keyboard-response,251,908145,learnblock1,637.8000000119209,img/planet8_left.png,8,Community 3,NA,TRUE,f,f,NA,NA,NA,1,6,"7,15,12,3,11,6,1,2,9,13,14,10,4,5,8"
14270,commdev-image-keyboard-response,252,909399,learnblock1,561.3000000119209,img/planet10_right.png,10,Community 3,NA,TRUE,j,j,NA,NA,NA,1,6,"7,15,12,3,11,6,1,2,9,13,14,10,4,5,8"
14270,commdev-image-keyboard-response,253,910652,learnblock1,525,img/planet4_left.png,4,Community 3,NA,TRUE,f,f,NA,NA,NA,1,6,"7,15,12,3,11,6,1,2,9,13,14,10,4,5,8"
14270,commdev-image-keyboard-response,254,911905,learnblock1,620.8000000119209,img/planet8_right.png,8,Community 3,NA,TRUE,j,j,NA,NA,NA,1,6,"7,15,12,3,11,6,1,2,9,13,14,10,4,5,8"
14270,commdev-image-keyboard-response,255,913159,learnblock1,532.8999999761581,img/planet10_right.png,10,Community 3,NA,TRUE,j,j,NA,NA,NA,1,6,"7,15,12,3,11,6,1,2,9,13,14,10,4,5,8"
14270,commdev-image-keyboard-response,256,914410,learnblock1,469.5,img/planet2_right.png,2,Community 2,NA,TRUE,j,j,NA,NA,NA,1,6,"7,15,12,3,11,6,1,2,9,13,14,10,4,5,8"
14270,commdev-image-keyboard-response,257,915663,learnblock1,568.8999999761581,img/planet9_right.png,9,Community 2,NA,TRUE,j,j,NA,NA,NA,1,6,"7,15,12,3,11,6,1,2,9,13,14,10,4,5,8"
14270,commdev-image-keyboard-response,258,916916,learnblock1,557,img/planet6_right.png,6,Community 2,NA,TRUE,j,j,NA,NA,NA,1,6,"7,15,12,3,11,6,1,2,9,13,14,10,4,5,8"
14270,commdev-image-keyboard-response,259,918167,learnblock1,583.2999999523163,img/planet13_left.png,13,Community 2,NA,TRUE,f,f,NA,NA,NA,1,6,"7,15,12,3,11,6,1,2,9,13,14,10,4,5,8"
14270,commdev-image-keyboard-response,260,919421,learnblock1,499.30000001192093,img/planet2_right.png,2,Community 2,NA,TRUE,j,j,NA,NA,NA,1,6,"7,15,12,3,11,6,1,2,9,13,14,10,4,5,8"
14270,commdev-image-keyboard-response,261,920674,learnblock1,1015.5,img/planet13_right.png,13,Community 2,NA,TRUE,j,j,NA,NA,NA,1,6,"7,15,12,3,11,6,1,2,9,13,14,10,4,5,8"
14270,commdev-image-keyboard-response,262,921927,learnblock1,772.5,img/planet2_left.png,2,Community 2,NA,TRUE,f,f,NA,NA,NA,1,6,"7,15,12,3,11,6,1,2,9,13,14,10,4,5,8"
14270,commdev-image-keyboard-response,263,923178,learnblock1,591,img/planet10_left.png,10,Community 3,NA,TRUE,f,f,NA,NA,NA,1,6,"7,15,12,3,11,6,1,2,9,13,14,10,4,5,8"
14270,commdev-image-keyboard-response,264,924431,learnblock1,697.6999999880791,img/planet8_left.png,8,Community 3,NA,TRUE,f,f,NA,NA,NA,1,6,"7,15,12,3,11,6,1,2,9,13,14,10,4,5,8"
14270,commdev-image-keyboard-response,265,925684,learnblock1,536.5,img/planet5_left.png,5,Community 3,NA,TRUE,f,f,NA,NA,NA,1,6,"7,15,12,3,11,6,1,2,9,13,14,10,4,5,8"
14270,commdev-image-keyboard-response,266,926937,learnblock1,465.39999997615814,img/planet8_right.png,8,Community 3,NA,FALSE,f,j,NA,NA,NA,1,6,"7,15,12,3,11,6,1,2,9,13,14,10,4,5,8"
14270,commdev-image-keyboard-response,267,928190,learnblock1,959.1000000238419,img/planet10_right.png,10,Community 3,NA,TRUE,j,j,NA,NA,NA,1,6,"7,15,12,3,11,6,1,2,9,13,14,10,4,5,8"
14270,commdev-image-keyboard-response,268,929443,learnblock1,803,img/planet2_right.png,2,Community 2,NA,TRUE,j,j,NA,NA,NA,1,6,"7,15,12,3,11,6,1,2,9,13,14,10,4,5,8"
14270,commdev-image-keyboard-response,269,930696,learnblock1,679.6000000238419,img/planet1_left.png,1,Community 2,NA,TRUE,f,f,NA,NA,NA,1,6,"7,15,12,3,11,6,1,2,9,13,14,10,4,5,8"
14270,commdev-image-keyboard-response,270,931948,learnblock1,770.3999999761581,img/planet6_left.png,6,Community 2,NA,TRUE,f,f,NA,NA,NA,1,6,"7,15,12,3,11,6,1,2,9,13,14,10,4,5,8"
14270,commdev-image-keyboard-response,271,933200,learnblock1,631.5,img/planet13_right.png,13,Community 2,NA,TRUE,j,j,NA,NA,NA,1,6,"7,15,12,3,11,6,1,2,9,13,14,10,4,5,8"
14270,commdev-image-keyboard-response,272,934453,learnblock1,754.6000000238419,img/planet9_right.png,9,Community 2,NA,TRUE,j,j,NA,NA,NA,1,6,"7,15,12,3,11,6,1,2,9,13,14,10,4,5,8"
14270,commdev-image-keyboard-response,273,935706,learnblock1,568.4000000357628,img/planet2_right.png,2,Community 2,NA,TRUE,j,j,NA,NA,NA,1,6,"7,15,12,3,11,6,1,2,9,13,14,10,4,5,8"
14270,commdev-image-keyboard-response,274,936959,learnblock1,815.3000000119209,img/planet13_left.png,13,Community 2,NA,TRUE,f,f,NA,NA,NA,1,6,"7,15,12,3,11,6,1,2,9,13,14,10,4,5,8"
14270,commdev-image-keyboard-response,275,938212,learnblock1,676.3000000119209,img/planet9_left.png,9,Community 2,NA,TRUE,f,f,NA,NA,NA,1,6,"7,15,12,3,11,6,1,2,9,13,14,10,4,5,8"
14270,commdev-image-keyboard-response,276,939464,learnblock1,606.2999999523163,img/planet6_left.png,6,Community 2,NA,TRUE,f,f,NA,NA,NA,1,6,"7,15,12,3,11,6,1,2,9,13,14,10,4,5,8"
14270,commdev-image-keyboard-response,277,940718,learnblock1,620.2999999523163,img/planet9_right.png,9,Community 2,NA,TRUE,j,j,NA,NA,NA,1,6,"7,15,12,3,11,6,1,2,9,13,14,10,4,5,8"
14270,commdev-image-keyboard-response,278,941970,learnblock1,654.6000000238419,img/planet1_right.png,1,Community 2,NA,TRUE,j,j,NA,NA,NA,1,6,"7,15,12,3,11,6,1,2,9,13,14,10,4,5,8"
14270,commdev-image-keyboard-response,279,943223,learnblock1,575.5999999642372,img/planet6_left.png,6,Community 2,NA,TRUE,f,f,NA,NA,NA,1,6,"7,15,12,3,11,6,1,2,9,13,14,10,4,5,8"
14270,commdev-image-keyboard-response,280,944476,learnblock1,635.1999999880791,img/planet1_left.png,1,Community 2,NA,TRUE,f,f,NA,NA,NA,1,6,"7,15,12,3,11,6,1,2,9,13,14,10,4,5,8"
14270,commdev-image-keyboard-response,281,945730,learnblock1,590.0999999642372,img/planet6_left.png,6,Community 2,NA,TRUE,f,f,NA,NA,NA,1,6,"7,15,12,3,11,6,1,2,9,13,14,10,4,5,8"
14270,commdev-image-keyboard-response,282,946984,learnblock1,519,img/planet9_right.png,9,Community 2,NA,TRUE,j,j,NA,NA,NA,1,6,"7,15,12,3,11,6,1,2,9,13,14,10,4,5,8"
14270,commdev-image-keyboard-response,283,948237,learnblock1,697.4000000357628,img/planet6_left.png,6,Community 2,NA,TRUE,f,f,NA,NA,NA,1,6,"7,15,12,3,11,6,1,2,9,13,14,10,4,5,8"
14270,commdev-image-keyboard-response,284,949490,learnblock1,537.2000000476837,img/planet9_right.png,9,Community 2,NA,TRUE,j,j,NA,NA,NA,1,6,"7,15,12,3,11,6,1,2,9,13,14,10,4,5,8"
14270,commdev-image-keyboard-response,285,950744,learnblock1,487.5,img/planet6_left.png,6,Community 2,NA,TRUE,f,f,NA,NA,NA,1,6,"7,15,12,3,11,6,1,2,9,13,14,10,4,5,8"
14270,commdev-image-keyboard-response,286,951997,learnblock1,517.8999999761581,img/planet1_right.png,1,Community 2,NA,TRUE,j,j,NA,NA,NA,1,6,"7,15,12,3,11,6,1,2,9,13,14,10,4,5,8"
14270,commdev-image-keyboard-response,287,953250,learnblock1,500.89999997615814,img/planet6_left.png,6,Community 2,NA,TRUE,f,f,NA,NA,NA,1,6,"7,15,12,3,11,6,1,2,9,13,14,10,4,5,8"
14270,commdev-image-keyboard-response,288,954504,learnblock1,463.5999999642372,img/planet3_right.png,3,Community 1,NA,TRUE,j,j,NA,NA,NA,1,6,"7,15,12,3,11,6,1,2,9,13,14,10,4,5,8"
14270,commdev-image-keyboard-response,289,955756,learnblock1,660.3999999761581,img/planet6_right.png,6,Community 2,NA,TRUE,j,j,NA,NA,NA,1,6,"7,15,12,3,11,6,1,2,9,13,14,10,4,5,8"
14270,commdev-image-keyboard-response,290,957010,learnblock1,586.1999999880791,img/planet13_right.png,13,Community 2,NA,TRUE,j,j,NA,NA,NA,1,6,"7,15,12,3,11,6,1,2,9,13,14,10,4,5,8"
14270,commdev-image-keyboard-response,291,958263,learnblock1,634.8999999761581,img/planet9_right.png,9,Community 2,NA,TRUE,j,j,NA,NA,NA,1,6,"7,15,12,3,11,6,1,2,9,13,14,10,4,5,8"
14270,commdev-image-keyboard-response,292,959515,learnblock1,578.2000000476837,img/planet2_right.png,2,Community 2,NA,TRUE,j,j,NA,NA,NA,1,6,"7,15,12,3,11,6,1,2,9,13,14,10,4,5,8"
14270,commdev-image-keyboard-response,293,960768,learnblock1,548.5,img/planet10_left.png,10,Community 3,NA,TRUE,f,f,NA,NA,NA,1,6,"7,15,12,3,11,6,1,2,9,13,14,10,4,5,8"
14270,commdev-image-keyboard-response,294,962021,learnblock1,645.0999999642372,img/planet2_right.png,2,Community 2,NA,TRUE,j,j,NA,NA,NA,1,6,"7,15,12,3,11,6,1,2,9,13,14,10,4,5,8"
14270,commdev-image-keyboard-response,295,963275,learnblock1,638.2000000476837,img/planet9_right.png,9,Community 2,NA,TRUE,j,j,NA,NA,NA,1,6,"7,15,12,3,11,6,1,2,9,13,14,10,4,5,8"
14270,commdev-image-keyboard-response,296,964529,learnblock1,554.8999999761581,img/planet2_right.png,2,Community 2,NA,TRUE,j,j,NA,NA,NA,1,6,"7,15,12,3,11,6,1,2,9,13,14,10,4,5,8"
14270,commdev-image-keyboard-response,297,965783,learnblock1,491.19999998807907,img/planet10_left.png,10,Community 3,NA,TRUE,f,f,NA,NA,NA,1,6,"7,15,12,3,11,6,1,2,9,13,14,10,4,5,8"
14270,commdev-image-keyboard-response,298,967035,learnblock1,564,img/planet4_right.png,4,Community 3,NA,TRUE,j,j,NA,NA,NA,1,6,"7,15,12,3,11,6,1,2,9,13,14,10,4,5,8"
14270,commdev-image-keyboard-response,299,968288,learnblock1,683.7000000476837,img/planet14_right.png,14,Community 3,NA,TRUE,j,j,NA,NA,NA,1,6,"7,15,12,3,11,6,1,2,9,13,14,10,4,5,8"
14270,commdev-image-keyboard-response,300,969541,learnblock1,624.5,img/planet11_right.png,11,Community 1,NA,TRUE,j,j,NA,NA,NA,1,6,"7,15,12,3,11,6,1,2,9,13,14,10,4,5,8"
14270,commdev-image-keyboard-response,301,970793,learnblock1,557.0999999642372,img/planet12_right.png,12,Community 1,NA,TRUE,j,j,NA,NA,NA,1,6,"7,15,12,3,11,6,1,2,9,13,14,10,4,5,8"
14270,commdev-image-keyboard-response,302,972047,learnblock1,595.6000000238419,img/planet11_right.png,11,Community 1,NA,TRUE,j,j,NA,NA,NA,1,6,"7,15,12,3,11,6,1,2,9,13,14,10,4,5,8"
14270,commdev-image-keyboard-response,303,973299,learnblock1,695.5,img/planet7_left.png,7,Community 1,NA,TRUE,f,f,NA,NA,NA,1,6,"7,15,12,3,11,6,1,2,9,13,14,10,4,5,8"
14270,commdev-image-keyboard-response,304,974553,learnblock1,672.8999999761581,img/planet11_right.png,11,Community 1,NA,TRUE,j,j,NA,NA,NA,1,6,"7,15,12,3,11,6,1,2,9,13,14,10,4,5,8"
14270,commdev-image-keyboard-response,305,975806,learnblock1,621.3999999761581,img/planet12_right.png,12,Community 1,NA,TRUE,j,j,NA,NA,NA,1,6,"7,15,12,3,11,6,1,2,9,13,14,10,4,5,8"
14270,commdev-image-keyboard-response,306,977059,learnblock1,630.8999999761581,img/planet7_right.png,7,Community 1,NA,TRUE,j,j,NA,NA,NA,1,6,"7,15,12,3,11,6,1,2,9,13,14,10,4,5,8"
14270,commdev-image-keyboard-response,307,978312,learnblock1,582.8999999761581,img/planet11_left.png,11,Community 1,NA,TRUE,f,f,NA,NA,NA,1,6,"7,15,12,3,11,6,1,2,9,13,14,10,4,5,8"
14270,commdev-image-keyboard-response,308,979564,learnblock1,663.5999999642372,img/planet14_left.png,14,Community 3,NA,TRUE,f,f,NA,NA,NA,1,6,"7,15,12,3,11,6,1,2,9,13,14,10,4,5,8"
14270,commdev-image-keyboard-response,309,980817,learnblock1,510.5,img/planet4_left.png,4,Community 3,NA,TRUE,f,f,NA,NA,NA,1,6,"7,15,12,3,11,6,1,2,9,13,14,10,4,5,8"
14270,commdev-image-keyboard-response,310,982069,learnblock1,497.19999998807907,img/planet8_right.png,8,Community 3,NA,TRUE,j,j,NA,NA,NA,1,6,"7,15,12,3,11,6,1,2,9,13,14,10,4,5,8"
14270,commdev-image-keyboard-response,311,983322,learnblock1,594.4000000357628,img/planet14_right.png,14,Community 3,NA,TRUE,j,j,NA,NA,NA,1,6,"7,15,12,3,11,6,1,2,9,13,14,10,4,5,8"
14270,commdev-image-keyboard-response,312,984575,learnblock1,508.10000002384186,img/planet11_left.png,11,Community 1,NA,TRUE,f,f,NA,NA,NA,1,6,"7,15,12,3,11,6,1,2,9,13,14,10,4,5,8"
14270,commdev-image-keyboard-response,313,985828,learnblock1,620.5,img/planet12_right.png,12,Community 1,NA,TRUE,j,j,NA,NA,NA,1,6,"7,15,12,3,11,6,1,2,9,13,14,10,4,5,8"
14270,commdev-image-keyboard-response,314,987081,learnblock1,684,img/planet7_right.png,7,Community 1,NA,TRUE,j,j,NA,NA,NA,1,6,"7,15,12,3,11,6,1,2,9,13,14,10,4,5,8"
14270,commdev-image-keyboard-response,315,988334,learnblock1,547.5,img/planet15_right.png,15,Community 1,NA,TRUE,j,j,NA,NA,NA,1,6,"7,15,12,3,11,6,1,2,9,13,14,10,4,5,8"
14270,commdev-image-keyboard-response,316,989587,learnblock1,541,img/planet7_left.png,7,Community 1,NA,TRUE,f,f,NA,NA,NA,1,6,"7,15,12,3,11,6,1,2,9,13,14,10,4,5,8"
14270,commdev-image-keyboard-response,317,990841,learnblock1,675.6000000238419,img/planet12_left.png,12,Community 1,NA,TRUE,f,f,NA,NA,NA,1,6,"7,15,12,3,11,6,1,2,9,13,14,10,4,5,8"
14270,commdev-image-keyboard-response,318,992094,learnblock1,600.5,img/planet11_right.png,11,Community 1,NA,TRUE,j,j,NA,NA,NA,1,6,"7,15,12,3,11,6,1,2,9,13,14,10,4,5,8"
14270,commdev-image-keyboard-response,319,993347,learnblock1,488,img/planet12_right.png,12,Community 1,NA,TRUE,j,j,NA,NA,NA,1,6,"7,15,12,3,11,6,1,2,9,13,14,10,4,5,8"
14270,commdev-image-keyboard-response,320,994600,learnblock1,620.5,img/planet7_right.png,7,Community 1,NA,TRUE,j,j,NA,NA,NA,1,6,"7,15,12,3,11,6,1,2,9,13,14,10,4,5,8"
14270,commdev-image-keyboard-response,321,995853,learnblock1,712.8000000119209,img/planet15_left.png,15,Community 1,NA,TRUE,f,f,NA,NA,NA,1,6,"7,15,12,3,11,6,1,2,9,13,14,10,4,5,8"
14270,commdev-image-keyboard-response,322,997107,learnblock1,676.1000000238419,img/planet12_left.png,12,Community 1,NA,TRUE,f,f,NA,NA,NA,1,6,"7,15,12,3,11,6,1,2,9,13,14,10,4,5,8"
14270,commdev-image-keyboard-response,323,998359,learnblock1,675.1999999880791,img/planet15_left.png,15,Community 1,NA,TRUE,f,f,NA,NA,NA,1,6,"7,15,12,3,11,6,1,2,9,13,14,10,4,5,8"
14270,commdev-image-keyboard-response,324,999612,learnblock1,884.8000000119209,img/planet3_left.png,3,Community 1,NA,TRUE,f,f,NA,NA,NA,1,6,"7,15,12,3,11,6,1,2,9,13,14,10,4,5,8"
14270,commdev-image-keyboard-response,325,1000865,learnblock1,665.5999999642372,img/planet7_left.png,7,Community 1,NA,TRUE,f,f,NA,NA,NA,1,6,"7,15,12,3,11,6,1,2,9,13,14,10,4,5,8"
14270,commdev-image-keyboard-response,326,1002119,learnblock1,484.30000001192093,img/planet11_left.png,11,Community 1,NA,TRUE,f,f,NA,NA,NA,1,6,"7,15,12,3,11,6,1,2,9,13,14,10,4,5,8"
14270,commdev-image-keyboard-response,327,1003371,learnblock1,546.8999999761581,img/planet14_left.png,14,Community 3,NA,TRUE,f,f,NA,NA,NA,1,6,"7,15,12,3,11,6,1,2,9,13,14,10,4,5,8"
14270,commdev-image-keyboard-response,328,1004623,learnblock1,541.6999999880791,img/planet8_right.png,8,Community 3,NA,TRUE,j,j,NA,NA,NA,1,6,"7,15,12,3,11,6,1,2,9,13,14,10,4,5,8"
14270,commdev-image-keyboard-response,329,1005876,learnblock1,594.3000000119209,img/planet14_right.png,14,Community 3,NA,TRUE,j,j,NA,NA,NA,1,6,"7,15,12,3,11,6,1,2,9,13,14,10,4,5,8"
14270,commdev-image-keyboard-response,330,1007129,learnblock1,599.3000000119209,img/planet5_left.png,5,Community 3,NA,TRUE,f,f,NA,NA,NA,1,6,"7,15,12,3,11,6,1,2,9,13,14,10,4,5,8"
14270,commdev-image-keyboard-response,331,1008382,learnblock1,679,img/planet8_left.png,8,Community 3,NA,TRUE,f,f,NA,NA,NA,1,6,"7,15,12,3,11,6,1,2,9,13,14,10,4,5,8"
14270,commdev-image-keyboard-response,332,1009635,learnblock1,558.0999999642372,img/planet10_right.png,10,Community 3,NA,TRUE,j,j,NA,NA,NA,1,6,"7,15,12,3,11,6,1,2,9,13,14,10,4,5,8"
14270,commdev-image-keyboard-response,333,1010888,learnblock1,474,img/planet2_right.png,2,Community 2,NA,TRUE,j,j,NA,NA,NA,1,6,"7,15,12,3,11,6,1,2,9,13,14,10,4,5,8"
14270,commdev-image-keyboard-response,334,1012141,learnblock1,571.1999999880791,img/planet9_right.png,9,Community 2,NA,TRUE,j,j,NA,NA,NA,1,6,"7,15,12,3,11,6,1,2,9,13,14,10,4,5,8"
14270,commdev-image-keyboard-response,335,1013394,learnblock1,656.3000000119209,img/planet13_left.png,13,Community 2,NA,TRUE,f,f,NA,NA,NA,1,6,"7,15,12,3,11,6,1,2,9,13,14,10,4,5,8"
14270,commdev-image-keyboard-response,336,1014647,learnblock1,600,img/planet2_right.png,2,Community 2,NA,TRUE,j,j,NA,NA,NA,1,6,"7,15,12,3,11,6,1,2,9,13,14,10,4,5,8"
14270,commdev-image-keyboard-response,337,1015899,learnblock1,792.2999999523163,img/planet9_left.png,9,Community 2,NA,TRUE,f,f,NA,NA,NA,1,6,"7,15,12,3,11,6,1,2,9,13,14,10,4,5,8"
14270,commdev-image-keyboard-response,338,1017152,learnblock1,535.8999999761581,img/planet6_right.png,6,Community 2,NA,TRUE,j,j,NA,NA,NA,1,6,"7,15,12,3,11,6,1,2,9,13,14,10,4,5,8"
14270,commdev-image-keyboard-response,339,1018404,learnblock1,960.3000000119209,img/planet3_left.png,3,Community 1,NA,TRUE,f,f,NA,NA,NA,1,6,"7,15,12,3,11,6,1,2,9,13,14,10,4,5,8"
14270,commdev-image-keyboard-response,340,1019658,learnblock1,710.5999999642372,img/planet12_left.png,12,Community 1,NA,TRUE,f,f,NA,NA,NA,1,6,"7,15,12,3,11,6,1,2,9,13,14,10,4,5,8"
14270,commdev-image-keyboard-response,341,1020911,learnblock1,564.5,img/planet15_left.png,15,Community 1,NA,TRUE,f,f,NA,NA,NA,1,6,"7,15,12,3,11,6,1,2,9,13,14,10,4,5,8"
14270,commdev-image-keyboard-response,342,1022163,learnblock1,575.1000000238419,img/planet7_right.png,7,Community 1,NA,TRUE,j,j,NA,NA,NA,1,6,"7,15,12,3,11,6,1,2,9,13,14,10,4,5,8"
14270,commdev-image-keyboard-response,343,1023416,learnblock1,611.3999999761581,img/planet12_left.png,12,Community 1,NA,TRUE,f,f,NA,NA,NA,1,6,"7,15,12,3,11,6,1,2,9,13,14,10,4,5,8"
14270,commdev-image-keyboard-response,344,1024669,learnblock1,865.8000000119209,img/planet15_right.png,15,Community 1,NA,TRUE,j,j,NA,NA,NA,1,6,"7,15,12,3,11,6,1,2,9,13,14,10,4,5,8"
14270,commdev-image-keyboard-response,345,1025923,learnblock1,595.0999999642372,img/planet3_right.png,3,Community 1,NA,TRUE,j,j,NA,NA,NA,1,6,"7,15,12,3,11,6,1,2,9,13,14,10,4,5,8"
14270,commdev-image-keyboard-response,346,1027175,learnblock1,548.6000000238419,img/planet6_left.png,6,Community 2,NA,TRUE,f,f,NA,NA,NA,1,6,"7,15,12,3,11,6,1,2,9,13,14,10,4,5,8"
14270,commdev-image-keyboard-response,347,1028429,learnblock1,593.2999999523163,img/planet13_left.png,13,Community 2,NA,TRUE,f,f,NA,NA,NA,1,6,"7,15,12,3,11,6,1,2,9,13,14,10,4,5,8"
14270,commdev-image-keyboard-response,348,1029682,learnblock1,565.3999999761581,img/planet6_left.png,6,Community 2,NA,FALSE,j,f,NA,NA,NA,1,6,"7,15,12,3,11,6,1,2,9,13,14,10,4,5,8"
14270,commdev-image-keyboard-response,349,1030936,learnblock1,724.6999999880791,img/planet3_left.png,3,Community 1,NA,FALSE,j,f,NA,NA,NA,1,6,"7,15,12,3,11,6,1,2,9,13,14,10,4,5,8"
14270,commdev-image-keyboard-response,350,1032189,learnblock1,583.7000000476837,img/planet15_left.png,15,Community 1,NA,TRUE,f,f,NA,NA,NA,1,6,"7,15,12,3,11,6,1,2,9,13,14,10,4,5,8"
14270,commdev-image-keyboard-response,351,1033442,learnblock1,595.4000000357628,img/planet11_right.png,11,Community 1,NA,TRUE,j,j,NA,NA,NA,1,6,"7,15,12,3,11,6,1,2,9,13,14,10,4,5,8"
14270,commdev-image-keyboard-response,352,1034695,learnblock1,550.8999999761581,img/planet14_left.png,14,Community 3,NA,TRUE,f,f,NA,NA,NA,1,6,"7,15,12,3,11,6,1,2,9,13,14,10,4,5,8"
14270,commdev-image-keyboard-response,353,1035949,learnblock1,625.3000000119209,img/planet4_right.png,4,Community 3,NA,TRUE,j,j,NA,NA,NA,1,6,"7,15,12,3,11,6,1,2,9,13,14,10,4,5,8"
14270,commdev-image-keyboard-response,354,1037202,learnblock1,602.9000000357628,img/planet14_left.png,14,Community 3,NA,TRUE,f,f,NA,NA,NA,1,6,"7,15,12,3,11,6,1,2,9,13,14,10,4,5,8"
14270,commdev-image-keyboard-response,355,1038455,learnblock1,663,img/planet4_left.png,4,Community 3,NA,TRUE,f,f,NA,NA,NA,1,6,"7,15,12,3,11,6,1,2,9,13,14,10,4,5,8"
14270,commdev-image-keyboard-response,356,1039707,learnblock1,578,img/planet10_right.png,10,Community 3,NA,TRUE,j,j,NA,NA,NA,1,6,"7,15,12,3,11,6,1,2,9,13,14,10,4,5,8"
14270,commdev-image-keyboard-response,357,1040960,learnblock1,664.3000000119209,img/planet4_left.png,4,Community 3,NA,TRUE,f,f,NA,NA,NA,1,6,"7,15,12,3,11,6,1,2,9,13,14,10,4,5,8"
14270,commdev-image-keyboard-response,358,1042214,learnblock1,531.6999999880791,img/planet10_right.png,10,Community 3,NA,TRUE,j,j,NA,NA,NA,1,6,"7,15,12,3,11,6,1,2,9,13,14,10,4,5,8"
14270,commdev-image-keyboard-response,359,1043466,learnblock1,621.3999999761581,img/planet4_right.png,4,Community 3,NA,TRUE,j,j,NA,NA,NA,1,6,"7,15,12,3,11,6,1,2,9,13,14,10,4,5,8"
14270,commdev-image-keyboard-response,360,1044718,learnblock1,536.9000000357628,img/planet10_left.png,10,Community 3,NA,TRUE,f,f,NA,NA,NA,1,6,"7,15,12,3,11,6,1,2,9,13,14,10,4,5,8"
14270,commdev-image-keyboard-response,361,1045971,learnblock1,625.5999999642372,img/planet8_right.png,8,Community 3,NA,TRUE,j,j,NA,NA,NA,1,6,"7,15,12,3,11,6,1,2,9,13,14,10,4,5,8"
14270,commdev-image-keyboard-response,362,1047223,learnblock1,859.3000000119209,img/planet5_right.png,5,Community 3,NA,TRUE,j,j,NA,NA,NA,1,6,"7,15,12,3,11,6,1,2,9,13,14,10,4,5,8"
14270,commdev-image-keyboard-response,363,1048476,learnblock1,673.1000000238419,img/planet14_right.png,14,Community 3,NA,TRUE,j,j,NA,NA,NA,1,6,"7,15,12,3,11,6,1,2,9,13,14,10,4,5,8"
14270,commdev-image-keyboard-response,364,1049729,learnblock1,669.4000000357628,img/planet4_left.png,4,Community 3,NA,TRUE,f,f,NA,NA,NA,1,6,"7,15,12,3,11,6,1,2,9,13,14,10,4,5,8"
14270,commdev-image-keyboard-response,365,1050982,learnblock1,547.8999999761581,img/planet5_right.png,5,Community 3,NA,TRUE,j,j,NA,NA,NA,1,6,"7,15,12,3,11,6,1,2,9,13,14,10,4,5,8"
14270,commdev-image-keyboard-response,366,1052234,learnblock1,435.30000001192093,img/planet10_right.png,10,Community 3,NA,FALSE,f,j,NA,NA,NA,1,6,"7,15,12,3,11,6,1,2,9,13,14,10,4,5,8"
14270,commdev-image-keyboard-response,367,1053487,learnblock1,659.2999999523163,img/planet8_right.png,8,Community 3,NA,TRUE,j,j,NA,NA,NA,1,6,"7,15,12,3,11,6,1,2,9,13,14,10,4,5,8"
14270,commdev-image-keyboard-response,368,1054741,learnblock1,726.6999999880791,img/planet4_right.png,4,Community 3,NA,TRUE,j,j,NA,NA,NA,1,6,"7,15,12,3,11,6,1,2,9,13,14,10,4,5,8"
14270,commdev-image-keyboard-response,369,1055993,learnblock1,631.3000000119209,img/planet14_left.png,14,Community 3,NA,TRUE,f,f,NA,NA,NA,1,6,"7,15,12,3,11,6,1,2,9,13,14,10,4,5,8"
14270,commdev-image-keyboard-response,370,1057245,learnblock1,611.1999999880791,img/planet4_left.png,4,Community 3,NA,TRUE,f,f,NA,NA,NA,1,6,"7,15,12,3,11,6,1,2,9,13,14,10,4,5,8"
14270,commdev-image-keyboard-response,371,1058498,learnblock1,788.6999999880791,img/planet8_left.png,8,Community 3,NA,TRUE,f,f,NA,NA,NA,1,6,"7,15,12,3,11,6,1,2,9,13,14,10,4,5,8"
14270,commdev-image-keyboard-response,372,1059751,learnblock1,682.3999999761581,img/planet5_left.png,5,Community 3,NA,TRUE,f,f,NA,NA,NA,1,6,"7,15,12,3,11,6,1,2,9,13,14,10,4,5,8"
14270,commdev-image-keyboard-response,373,1061004,learnblock1,604.8999999761581,img/planet14_right.png,14,Community 3,NA,TRUE,j,j,NA,NA,NA,1,6,"7,15,12,3,11,6,1,2,9,13,14,10,4,5,8"
14270,commdev-image-keyboard-response,374,1062258,learnblock1,796.4000000357628,img/planet4_left.png,4,Community 3,NA,FALSE,j,f,NA,NA,NA,1,6,"7,15,12,3,11,6,1,2,9,13,14,10,4,5,8"
14270,commdev-image-keyboard-response,375,1063511,learnblock1,660.6999999880791,img/planet5_right.png,5,Community 3,NA,TRUE,j,j,NA,NA,NA,1,6,"7,15,12,3,11,6,1,2,9,13,14,10,4,5,8"
14270,commdev-image-keyboard-response,376,1064765,learnblock1,655.3000000119209,img/planet4_right.png,4,Community 3,NA,TRUE,j,j,NA,NA,NA,1,6,"7,15,12,3,11,6,1,2,9,13,14,10,4,5,8"
14270,commdev-image-keyboard-response,377,1066018,learnblock1,666.8000000119209,img/planet5_left.png,5,Community 3,NA,TRUE,f,f,NA,NA,NA,1,6,"7,15,12,3,11,6,1,2,9,13,14,10,4,5,8"
14270,commdev-image-keyboard-response,378,1067270,learnblock1,1113.800000011921,img/planet10_right.png,10,Community 3,NA,TRUE,j,j,NA,NA,NA,1,6,"7,15,12,3,11,6,1,2,9,13,14,10,4,5,8"
14270,commdev-image-keyboard-response,379,1068523,learnblock1,768.5,img/planet5_right.png,5,Community 3,NA,TRUE,j,j,NA,NA,NA,1,6,"7,15,12,3,11,6,1,2,9,13,14,10,4,5,8"
14270,commdev-image-keyboard-response,380,1069776,learnblock1,554.5,img/planet14_left.png,14,Community 3,NA,TRUE,f,f,NA,NA,NA,1,6,"7,15,12,3,11,6,1,2,9,13,14,10,4,5,8"
14270,commdev-image-keyboard-response,381,1071029,learnblock1,523.5,img/planet11_right.png,11,Community 1,NA,TRUE,j,j,NA,NA,NA,1,6,"7,15,12,3,11,6,1,2,9,13,14,10,4,5,8"
14270,commdev-image-keyboard-response,382,1072282,learnblock1,541.7999999523163,img/planet14_right.png,14,Community 3,NA,TRUE,j,j,NA,NA,NA,1,6,"7,15,12,3,11,6,1,2,9,13,14,10,4,5,8"
14270,commdev-image-keyboard-response,383,1073534,learnblock1,588.8000000119209,img/planet8_right.png,8,Community 3,NA,TRUE,j,j,NA,NA,NA,1,6,"7,15,12,3,11,6,1,2,9,13,14,10,4,5,8"
14270,commdev-image-keyboard-response,384,1074787,learnblock1,494.60000002384186,img/planet5_right.png,5,Community 3,NA,TRUE,j,j,NA,NA,NA,1,6,"7,15,12,3,11,6,1,2,9,13,14,10,4,5,8"
14270,commdev-image-keyboard-response,385,1076040,learnblock1,627.2000000476837,img/planet14_left.png,14,Community 3,NA,TRUE,f,f,NA,NA,NA,1,6,"7,15,12,3,11,6,1,2,9,13,14,10,4,5,8"
14270,commdev-image-keyboard-response,386,1077292,learnblock1,478.0999999642372,img/planet5_right.png,5,Community 3,NA,TRUE,j,j,NA,NA,NA,1,6,"7,15,12,3,11,6,1,2,9,13,14,10,4,5,8"
14270,commdev-image-keyboard-response,387,1078545,learnblock1,796.4000000357628,img/planet14_left.png,14,Community 3,NA,TRUE,f,f,NA,NA,NA,1,6,"7,15,12,3,11,6,1,2,9,13,14,10,4,5,8"
14270,commdev-image-keyboard-response,388,1079798,learnblock1,517.1000000238419,img/planet11_right.png,11,Community 1,NA,FALSE,f,j,NA,NA,NA,1,6,"7,15,12,3,11,6,1,2,9,13,14,10,4,5,8"
14270,commdev-image-keyboard-response,389,1081051,learnblock1,710.5,img/planet14_right.png,14,Community 3,NA,TRUE,j,j,NA,NA,NA,1,6,"7,15,12,3,11,6,1,2,9,13,14,10,4,5,8"
14270,commdev-image-keyboard-response,390,1082305,learnblock1,807.5,img/planet8_right.png,8,Community 3,NA,TRUE,j,j,NA,NA,NA,1,6,"7,15,12,3,11,6,1,2,9,13,14,10,4,5,8"
14270,commdev-image-keyboard-response,391,1083558,learnblock1,681.1000000238419,img/planet5_left.png,5,Community 3,NA,TRUE,f,f,NA,NA,NA,1,6,"7,15,12,3,11,6,1,2,9,13,14,10,4,5,8"
14270,commdev-image-keyboard-response,392,1084811,learnblock1,833.1000000238419,img/planet8_left.png,8,Community 3,NA,TRUE,f,f,NA,NA,NA,1,6,"7,15,12,3,11,6,1,2,9,13,14,10,4,5,8"
14270,commdev-image-keyboard-response,393,1086065,learnblock1,525.3000000119209,img/planet10_left.png,10,Community 3,NA,TRUE,f,f,NA,NA,NA,1,6,"7,15,12,3,11,6,1,2,9,13,14,10,4,5,8"
14270,commdev-image-keyboard-response,394,1087318,learnblock1,632.6000000238419,img/planet2_right.png,2,Community 2,NA,TRUE,j,j,NA,NA,NA,1,6,"7,15,12,3,11,6,1,2,9,13,14,10,4,5,8"
14270,commdev-image-keyboard-response,395,1088570,learnblock1,612.5,img/planet13_left.png,13,Community 2,NA,TRUE,f,f,NA,NA,NA,1,6,"7,15,12,3,11,6,1,2,9,13,14,10,4,5,8"
14270,commdev-image-keyboard-response,396,1089822,learnblock1,760.8000000119209,img/planet1_left.png,1,Community 2,NA,TRUE,f,f,NA,NA,NA,1,6,"7,15,12,3,11,6,1,2,9,13,14,10,4,5,8"
14270,commdev-image-keyboard-response,397,1091076,learnblock1,733.9000000357628,img/planet13_left.png,13,Community 2,NA,TRUE,f,f,NA,NA,NA,1,6,"7,15,12,3,11,6,1,2,9,13,14,10,4,5,8"
14270,commdev-image-keyboard-response,398,1092329,learnblock1,561,img/planet9_right.png,9,Community 2,NA,TRUE,j,j,NA,NA,NA,1,6,"7,15,12,3,11,6,1,2,9,13,14,10,4,5,8"
14270,commdev-image-keyboard-response,399,1093583,learnblock1,764.8000000119209,img/planet1_left.png,1,Community 2,NA,TRUE,f,f,NA,NA,NA,1,6,"7,15,12,3,11,6,1,2,9,13,14,10,4,5,8"
14270,commdev-image-keyboard-response,400,1094835,learnblock1,576.1999999880791,img/planet13_right.png,13,Community 2,NA,TRUE,j,j,NA,NA,NA,1,6,"7,15,12,3,11,6,1,2,9,13,14,10,4,5,8"
14270,commdev-image-keyboard-response,401,1096088,learnblock1,521.7999999523163,img/planet2_left.png,2,Community 2,NA,TRUE,f,f,NA,NA,NA,1,6,"7,15,12,3,11,6,1,2,9,13,14,10,4,5,8"
14270,commdev-image-keyboard-response,402,1097342,learnblock1,662.8999999761581,img/planet1_left.png,1,Community 2,NA,TRUE,f,f,NA,NA,NA,1,6,"7,15,12,3,11,6,1,2,9,13,14,10,4,5,8"
14270,commdev-image-keyboard-response,403,1098595,learnblock1,548.2000000476837,img/planet9_left.png,9,Community 2,NA,TRUE,f,f,NA,NA,NA,1,6,"7,15,12,3,11,6,1,2,9,13,14,10,4,5,8"
14270,commdev-image-keyboard-response,404,1099847,learnblock1,605.1000000238419,img/planet13_left.png,13,Community 2,NA,TRUE,f,f,NA,NA,NA,1,6,"7,15,12,3,11,6,1,2,9,13,14,10,4,5,8"
14270,commdev-image-keyboard-response,405,1101100,learnblock1,681.1999999880791,img/planet9_right.png,9,Community 2,NA,TRUE,j,j,NA,NA,NA,1,6,"7,15,12,3,11,6,1,2,9,13,14,10,4,5,8"
14270,commdev-image-keyboard-response,406,1102352,learnblock1,638.1000000238419,img/planet2_right.png,2,Community 2,NA,TRUE,j,j,NA,NA,NA,1,6,"7,15,12,3,11,6,1,2,9,13,14,10,4,5,8"
14270,commdev-image-keyboard-response,407,1103606,learnblock1,681.5,img/planet1_left.png,1,Community 2,NA,TRUE,f,f,NA,NA,NA,1,6,"7,15,12,3,11,6,1,2,9,13,14,10,4,5,8"
14270,commdev-image-keyboard-response,408,1104859,learnblock1,535.5,img/planet6_left.png,6,Community 2,NA,TRUE,f,f,NA,NA,NA,1,6,"7,15,12,3,11,6,1,2,9,13,14,10,4,5,8"
14270,commdev-image-keyboard-response,409,1106112,learnblock1,540.3000000119209,img/planet13_left.png,13,Community 2,NA,TRUE,f,f,NA,NA,NA,1,6,"7,15,12,3,11,6,1,2,9,13,14,10,4,5,8"
14270,commdev-image-keyboard-response,410,1107365,learnblock1,613.9000000357628,img/planet9_left.png,9,Community 2,NA,TRUE,f,f,NA,NA,NA,1,6,"7,15,12,3,11,6,1,2,9,13,14,10,4,5,8"
14270,commdev-image-keyboard-response,411,1108618,learnblock1,559.6000000238419,img/planet6_left.png,6,Community 2,NA,TRUE,f,f,NA,NA,NA,1,6,"7,15,12,3,11,6,1,2,9,13,14,10,4,5,8"
14270,commdev-image-keyboard-response,412,1109871,learnblock1,657.1999999880791,img/planet13_right.png,13,Community 2,NA,TRUE,j,j,NA,NA,NA,1,6,"7,15,12,3,11,6,1,2,9,13,14,10,4,5,8"
14270,commdev-image-keyboard-response,413,1111124,learnblock1,560.1000000238419,img/planet6_left.png,6,Community 2,NA,TRUE,f,f,NA,NA,NA,1,6,"7,15,12,3,11,6,1,2,9,13,14,10,4,5,8"
14270,commdev-image-keyboard-response,414,1112377,learnblock1,488.19999998807907,img/planet3_right.png,3,Community 1,NA,TRUE,j,j,NA,NA,NA,1,6,"7,15,12,3,11,6,1,2,9,13,14,10,4,5,8"
14270,commdev-image-keyboard-response,415,1113629,learnblock1,631.9000000357628,img/planet12_right.png,12,Community 1,NA,TRUE,j,j,NA,NA,NA,1,6,"7,15,12,3,11,6,1,2,9,13,14,10,4,5,8"
14270,commdev-image-keyboard-response,416,1114883,learnblock1,1015.1999999880791,img/planet7_left.png,7,Community 1,NA,TRUE,f,f,NA,NA,NA,1,6,"7,15,12,3,11,6,1,2,9,13,14,10,4,5,8"
14270,commdev-image-keyboard-response,417,1116136,learnblock1,573.3999999761581,img/planet12_right.png,12,Community 1,NA,TRUE,j,j,NA,NA,NA,1,6,"7,15,12,3,11,6,1,2,9,13,14,10,4,5,8"
14270,commdev-image-keyboard-response,418,1117389,learnblock1,646.2999999523163,img/planet3_right.png,3,Community 1,NA,TRUE,j,j,NA,NA,NA,1,6,"7,15,12,3,11,6,1,2,9,13,14,10,4,5,8"
14270,commdev-image-keyboard-response,419,1118642,learnblock1,810,img/planet15_right.png,15,Community 1,NA,TRUE,j,j,NA,NA,NA,1,6,"7,15,12,3,11,6,1,2,9,13,14,10,4,5,8"
14270,commdev-image-keyboard-response,420,1119894,learnblock1,613,img/planet7_right.png,7,Community 1,NA,TRUE,j,j,NA,NA,NA,1,6,"7,15,12,3,11,6,1,2,9,13,14,10,4,5,8"
14270,commdev-image-keyboard-response,421,1121148,learnblock1,635.6000000238419,img/planet15_right.png,15,Community 1,NA,TRUE,j,j,NA,NA,NA,1,6,"7,15,12,3,11,6,1,2,9,13,14,10,4,5,8"
14270,commdev-image-keyboard-response,422,1122401,learnblock1,608.0999999642372,img/planet7_right.png,7,Community 1,NA,TRUE,j,j,NA,NA,NA,1,6,"7,15,12,3,11,6,1,2,9,13,14,10,4,5,8"
14270,commdev-image-keyboard-response,423,1123653,learnblock1,552.5999999642372,img/planet11_right.png,11,Community 1,NA,TRUE,j,j,NA,NA,NA,1,6,"7,15,12,3,11,6,1,2,9,13,14,10,4,5,8"
14270,commdev-image-keyboard-response,424,1124906,learnblock1,727,img/planet12_left.png,12,Community 1,NA,TRUE,f,f,NA,NA,NA,1,6,"7,15,12,3,11,6,1,2,9,13,14,10,4,5,8"
14270,commdev-image-keyboard-response,425,1126160,learnblock1,633,img/planet15_right.png,15,Community 1,NA,TRUE,j,j,NA,NA,NA,1,6,"7,15,12,3,11,6,1,2,9,13,14,10,4,5,8"
14270,commdev-image-keyboard-response,426,1127413,learnblock1,582.1999999880791,img/planet12_left.png,12,Community 1,NA,TRUE,f,f,NA,NA,NA,1,6,"7,15,12,3,11,6,1,2,9,13,14,10,4,5,8"
14270,commdev-image-keyboard-response,427,1128667,learnblock1,590.5,img/planet7_left.png,7,Community 1,NA,TRUE,f,f,NA,NA,NA,1,6,"7,15,12,3,11,6,1,2,9,13,14,10,4,5,8"
14270,commdev-image-keyboard-response,428,1129920,learnblock1,644,img/planet3_left.png,3,Community 1,NA,TRUE,f,f,NA,NA,NA,1,6,"7,15,12,3,11,6,1,2,9,13,14,10,4,5,8"
14270,commdev-image-keyboard-response,429,1131173,learnblock1,635.5999999642372,img/planet12_right.png,12,Community 1,NA,TRUE,j,j,NA,NA,NA,1,6,"7,15,12,3,11,6,1,2,9,13,14,10,4,5,8"
14270,commdev-image-keyboard-response,430,1132426,learnblock1,621.6999999880791,img/planet7_left.png,7,Community 1,NA,TRUE,f,f,NA,NA,NA,1,6,"7,15,12,3,11,6,1,2,9,13,14,10,4,5,8"
14270,commdev-image-keyboard-response,431,1133678,learnblock1,523.4000000357628,img/planet12_left.png,12,Community 1,NA,TRUE,f,f,NA,NA,NA,1,6,"7,15,12,3,11,6,1,2,9,13,14,10,4,5,8"
14270,commdev-image-keyboard-response,432,1134931,learnblock1,593.6999999880791,img/planet11_left.png,11,Community 1,NA,TRUE,f,f,NA,NA,NA,1,6,"7,15,12,3,11,6,1,2,9,13,14,10,4,5,8"
14270,commdev-image-keyboard-response,433,1136185,learnblock1,556,img/planet14_left.png,14,Community 3,NA,TRUE,f,f,NA,NA,NA,1,6,"7,15,12,3,11,6,1,2,9,13,14,10,4,5,8"
14270,commdev-image-keyboard-response,434,1137437,learnblock1,584.6000000238419,img/planet11_right.png,11,Community 1,NA,TRUE,j,j,NA,NA,NA,1,6,"7,15,12,3,11,6,1,2,9,13,14,10,4,5,8"
14270,commdev-image-keyboard-response,435,1138691,learnblock1,502.19999998807907,img/planet12_left.png,12,Community 1,NA,TRUE,f,f,NA,NA,NA,1,6,"7,15,12,3,11,6,1,2,9,13,14,10,4,5,8"
14270,commdev-image-keyboard-response,436,1139944,learnblock1,476.60000002384186,img/planet3_right.png,3,Community 1,NA,TRUE,j,j,NA,NA,NA,1,6,"7,15,12,3,11,6,1,2,9,13,14,10,4,5,8"
14270,commdev-image-keyboard-response,437,1141197,learnblock1,664.5999999642372,img/planet15_right.png,15,Community 1,NA,TRUE,j,j,NA,NA,NA,1,6,"7,15,12,3,11,6,1,2,9,13,14,10,4,5,8"
14270,commdev-image-keyboard-response,438,1142449,learnblock1,692.6999999880791,img/planet7_right.png,7,Community 1,NA,TRUE,j,j,NA,NA,NA,1,6,"7,15,12,3,11,6,1,2,9,13,14,10,4,5,8"
14270,commdev-image-keyboard-response,439,1143703,learnblock1,630.4000000357628,img/planet11_right.png,11,Community 1,NA,TRUE,j,j,NA,NA,NA,1,6,"7,15,12,3,11,6,1,2,9,13,14,10,4,5,8"
14270,commdev-image-keyboard-response,440,1144956,learnblock1,503.19999998807907,img/planet14_right.png,14,Community 3,NA,TRUE,j,j,NA,NA,NA,1,6,"7,15,12,3,11,6,1,2,9,13,14,10,4,5,8"
14270,commdev-image-keyboard-response,441,1146209,learnblock1,553.5,img/planet8_left.png,8,Community 3,NA,TRUE,f,f,NA,NA,NA,1,6,"7,15,12,3,11,6,1,2,9,13,14,10,4,5,8"
14270,commdev-image-keyboard-response,442,1147462,learnblock1,571.9000000357628,img/planet4_right.png,4,Community 3,NA,TRUE,j,j,NA,NA,NA,1,6,"7,15,12,3,11,6,1,2,9,13,14,10,4,5,8"
14270,commdev-image-keyboard-response,443,1148715,learnblock1,555.4000000357628,img/planet8_left.png,8,Community 3,NA,FALSE,j,f,NA,NA,NA,1,6,"7,15,12,3,11,6,1,2,9,13,14,10,4,5,8"
14270,commdev-image-keyboard-response,444,1149968,learnblock1,null,img/planet4_right.png,4,Community 3,NA,FALSE,null,j,NA,NA,NA,1,6,"7,15,12,3,11,6,1,2,9,13,14,10,4,5,8"
14270,commdev-image-keyboard-response,445,1151221,learnblock1,73.80000001192093,img/planet5_right.png,5,Community 3,NA,TRUE,j,j,NA,NA,NA,1,6,"7,15,12,3,11,6,1,2,9,13,14,10,4,5,8"
14270,commdev-image-keyboard-response,446,1152474,learnblock1,176.39999997615814,img/planet4_right.png,4,Community 3,NA,TRUE,j,j,NA,NA,NA,1,6,"7,15,12,3,11,6,1,2,9,13,14,10,4,5,8"
14270,commdev-image-keyboard-response,447,1153727,learnblock1,641.4000000357628,img/planet8_right.png,8,Community 3,NA,TRUE,j,j,NA,NA,NA,1,6,"7,15,12,3,11,6,1,2,9,13,14,10,4,5,8"
14270,commdev-image-keyboard-response,448,1154980,learnblock1,717.5,img/planet14_left.png,14,Community 3,NA,TRUE,f,f,NA,NA,NA,1,6,"7,15,12,3,11,6,1,2,9,13,14,10,4,5,8"
14270,commdev-image-keyboard-response,449,1156234,learnblock1,567,img/planet5_right.png,5,Community 3,NA,TRUE,j,j,NA,NA,NA,1,6,"7,15,12,3,11,6,1,2,9,13,14,10,4,5,8"
14270,commdev-image-keyboard-response,450,1157487,learnblock1,645.8000000119209,img/planet4_right.png,4,Community 3,NA,TRUE,j,j,NA,NA,NA,1,6,"7,15,12,3,11,6,1,2,9,13,14,10,4,5,8"
14270,commdev-image-keyboard-response,451,1158740,learnblock1,663.8999999761581,img/planet8_left.png,8,Community 3,NA,TRUE,f,f,NA,NA,NA,1,6,"7,15,12,3,11,6,1,2,9,13,14,10,4,5,8"
14270,commdev-image-keyboard-response,452,1159992,learnblock1,569.1000000238419,img/planet10_right.png,10,Community 3,NA,TRUE,j,j,NA,NA,NA,1,6,"7,15,12,3,11,6,1,2,9,13,14,10,4,5,8"
14270,commdev-image-keyboard-response,453,1161245,learnblock1,681.1000000238419,img/planet2_left.png,2,Community 2,NA,TRUE,f,f,NA,NA,NA,1,6,"7,15,12,3,11,6,1,2,9,13,14,10,4,5,8"
14270,commdev-image-keyboard-response,454,1162498,learnblock1,441,img/planet9_right.png,9,Community 2,NA,TRUE,j,j,NA,NA,NA,1,6,"7,15,12,3,11,6,1,2,9,13,14,10,4,5,8"
14270,commdev-image-keyboard-response,455,1163751,learnblock1,657.5,img/planet2_left.png,2,Community 2,NA,TRUE,f,f,NA,NA,NA,1,6,"7,15,12,3,11,6,1,2,9,13,14,10,4,5,8"
14270,commdev-image-keyboard-response,456,1165004,learnblock1,556.7999999523163,img/planet1_right.png,1,Community 2,NA,TRUE,j,j,NA,NA,NA,1,6,"7,15,12,3,11,6,1,2,9,13,14,10,4,5,8"
14270,commdev-image-keyboard-response,457,1166257,learnblock1,647.5,img/planet9_left.png,9,Community 2,NA,TRUE,f,f,NA,NA,NA,1,6,"7,15,12,3,11,6,1,2,9,13,14,10,4,5,8"
14270,commdev-image-keyboard-response,458,1167510,learnblock1,582.5,img/planet1_left.png,1,Community 2,NA,TRUE,f,f,NA,NA,NA,1,6,"7,15,12,3,11,6,1,2,9,13,14,10,4,5,8"
14270,commdev-image-keyboard-response,459,1168763,learnblock1,910.8000000119209,img/planet2_left.png,2,Community 2,NA,FALSE,j,f,NA,NA,NA,1,6,"7,15,12,3,11,6,1,2,9,13,14,10,4,5,8"
14270,commdev-image-keyboard-response,460,1170016,learnblock1,735.1000000238419,img/planet10_left.png,10,Community 3,NA,TRUE,f,f,NA,NA,NA,1,6,"7,15,12,3,11,6,1,2,9,13,14,10,4,5,8"
14270,commdev-image-keyboard-response,461,1171270,learnblock1,582.3000000119209,img/planet4_left.png,4,Community 3,NA,TRUE,f,f,NA,NA,NA,1,6,"7,15,12,3,11,6,1,2,9,13,14,10,4,5,8"
14270,commdev-image-keyboard-response,462,1172522,learnblock1,672.3000000119209,img/planet8_right.png,8,Community 3,NA,TRUE,j,j,NA,NA,NA,1,6,"7,15,12,3,11,6,1,2,9,13,14,10,4,5,8"
14270,commdev-image-keyboard-response,463,1173776,learnblock1,583.8000000119209,img/planet4_left.png,4,Community 3,NA,TRUE,f,f,NA,NA,NA,1,6,"7,15,12,3,11,6,1,2,9,13,14,10,4,5,8"
14270,commdev-image-keyboard-response,464,1175029,learnblock1,772.2000000476837,img/planet10_right.png,10,Community 3,NA,TRUE,j,j,NA,NA,NA,1,6,"7,15,12,3,11,6,1,2,9,13,14,10,4,5,8"
14270,commdev-image-keyboard-response,465,1176282,learnblock1,457.80000001192093,img/planet4_left.png,4,Community 3,NA,TRUE,f,f,NA,NA,NA,1,6,"7,15,12,3,11,6,1,2,9,13,14,10,4,5,8"
14270,commdev-image-keyboard-response,466,1177534,learnblock1,534.8999999761581,img/planet5_right.png,5,Community 3,NA,TRUE,j,j,NA,NA,NA,1,6,"7,15,12,3,11,6,1,2,9,13,14,10,4,5,8"
14270,commdev-image-keyboard-response,467,1178788,learnblock1,499.19999998807907,img/planet10_left.png,10,Community 3,NA,TRUE,f,f,NA,NA,NA,1,6,"7,15,12,3,11,6,1,2,9,13,14,10,4,5,8"
14270,commdev-image-keyboard-response,468,1180041,learnblock1,897.7999999523163,img/planet8_left.png,8,Community 3,NA,TRUE,f,f,NA,NA,NA,1,6,"7,15,12,3,11,6,1,2,9,13,14,10,4,5,8"
14270,commdev-image-keyboard-response,469,1181294,learnblock1,569.7000000476837,img/planet5_left.png,5,Community 3,NA,TRUE,f,f,NA,NA,NA,1,6,"7,15,12,3,11,6,1,2,9,13,14,10,4,5,8"
14270,commdev-image-keyboard-response,470,1182548,learnblock1,501.30000001192093,img/planet4_left.png,4,Community 3,NA,TRUE,f,f,NA,NA,NA,1,6,"7,15,12,3,11,6,1,2,9,13,14,10,4,5,8"
14270,commdev-image-keyboard-response,471,1183801,learnblock1,581.3000000119209,img/planet14_left.png,14,Community 3,NA,TRUE,f,f,NA,NA,NA,1,6,"7,15,12,3,11,6,1,2,9,13,14,10,4,5,8"
14270,commdev-image-keyboard-response,472,1185054,learnblock1,557.8000000119209,img/planet11_right.png,11,Community 1,NA,TRUE,j,j,NA,NA,NA,1,6,"7,15,12,3,11,6,1,2,9,13,14,10,4,5,8"
14270,commdev-image-keyboard-response,473,1186307,learnblock1,581,img/planet7_right.png,7,Community 1,NA,TRUE,j,j,NA,NA,NA,1,6,"7,15,12,3,11,6,1,2,9,13,14,10,4,5,8"
14270,commdev-image-keyboard-response,474,1187560,learnblock1,726.5,img/planet3_left.png,3,Community 1,NA,TRUE,f,f,NA,NA,NA,1,6,"7,15,12,3,11,6,1,2,9,13,14,10,4,5,8"
14270,commdev-image-keyboard-response,475,1188813,learnblock1,660.0999999642372,img/planet7_left.png,7,Community 1,NA,TRUE,f,f,NA,NA,NA,1,6,"7,15,12,3,11,6,1,2,9,13,14,10,4,5,8"
14270,commdev-image-keyboard-response,476,1190065,learnblock1,517.1000000238419,img/planet3_right.png,3,Community 1,NA,TRUE,j,j,NA,NA,NA,1,6,"7,15,12,3,11,6,1,2,9,13,14,10,4,5,8"
14270,commdev-image-keyboard-response,477,1191319,learnblock1,431.19999998807907,img/planet7_left.png,7,Community 1,NA,TRUE,f,f,NA,NA,NA,1,6,"7,15,12,3,11,6,1,2,9,13,14,10,4,5,8"
14270,commdev-image-keyboard-response,478,1192572,learnblock1,507.39999997615814,img/planet12_left.png,12,Community 1,NA,TRUE,f,f,NA,NA,NA,1,6,"7,15,12,3,11,6,1,2,9,13,14,10,4,5,8"
14270,commdev-image-keyboard-response,479,1193825,learnblock1,581,img/planet11_right.png,11,Community 1,NA,TRUE,j,j,NA,NA,NA,1,6,"7,15,12,3,11,6,1,2,9,13,14,10,4,5,8"
14270,commdev-image-keyboard-response,480,1195078,learnblock1,665.3000000119209,img/planet14_right.png,14,Community 3,NA,TRUE,j,j,NA,NA,NA,1,6,"7,15,12,3,11,6,1,2,9,13,14,10,4,5,8"
14270,commdev-image-keyboard-response,481,1196332,learnblock1,524.9000000357628,img/planet8_left.png,8,Community 3,NA,TRUE,f,f,NA,NA,NA,1,6,"7,15,12,3,11,6,1,2,9,13,14,10,4,5,8"
14270,commdev-image-keyboard-response,482,1197585,learnblock1,510.89999997615814,img/planet5_left.png,5,Community 3,NA,TRUE,f,f,NA,NA,NA,1,6,"7,15,12,3,11,6,1,2,9,13,14,10,4,5,8"
14270,commdev-image-keyboard-response,483,1198838,learnblock1,558.8999999761581,img/planet10_right.png,10,Community 3,NA,TRUE,j,j,NA,NA,NA,1,6,"7,15,12,3,11,6,1,2,9,13,14,10,4,5,8"
14270,commdev-image-keyboard-response,484,1200090,learnblock1,667.6999999880791,img/planet4_left.png,4,Community 3,NA,TRUE,f,f,NA,NA,NA,1,6,"7,15,12,3,11,6,1,2,9,13,14,10,4,5,8"
14270,commdev-image-keyboard-response,485,1201344,learnblock1,558.9000000357628,img/planet5_right.png,5,Community 3,NA,TRUE,j,j,NA,NA,NA,1,6,"7,15,12,3,11,6,1,2,9,13,14,10,4,5,8"
14270,commdev-image-keyboard-response,486,1202596,learnblock1,750.6000000238419,img/planet10_left.png,10,Community 3,NA,TRUE,f,f,NA,NA,NA,1,6,"7,15,12,3,11,6,1,2,9,13,14,10,4,5,8"
14270,commdev-image-keyboard-response,487,1203849,learnblock1,540,img/planet8_right.png,8,Community 3,NA,TRUE,j,j,NA,NA,NA,1,6,"7,15,12,3,11,6,1,2,9,13,14,10,4,5,8"
14270,commdev-image-keyboard-response,488,1205102,learnblock1,614.6000000238419,img/planet4_left.png,4,Community 3,NA,TRUE,f,f,NA,NA,NA,1,6,"7,15,12,3,11,6,1,2,9,13,14,10,4,5,8"
14270,commdev-image-keyboard-response,489,1206356,learnblock1,540.1000000238419,img/planet5_left.png,5,Community 3,NA,TRUE,f,f,NA,NA,NA,1,6,"7,15,12,3,11,6,1,2,9,13,14,10,4,5,8"
14270,commdev-image-keyboard-response,490,1207609,learnblock1,632.1999999880791,img/planet14_left.png,14,Community 3,NA,TRUE,f,f,NA,NA,NA,1,6,"7,15,12,3,11,6,1,2,9,13,14,10,4,5,8"
14270,commdev-image-keyboard-response,491,1208862,learnblock1,601.7000000476837,img/planet5_right.png,5,Community 3,NA,TRUE,j,j,NA,NA,NA,1,6,"7,15,12,3,11,6,1,2,9,13,14,10,4,5,8"
14270,commdev-image-keyboard-response,492,1210115,learnblock1,613.9000000357628,img/planet8_right.png,8,Community 3,NA,TRUE,j,j,NA,NA,NA,1,6,"7,15,12,3,11,6,1,2,9,13,14,10,4,5,8"
14270,commdev-image-keyboard-response,493,1211369,learnblock1,599.4000000357628,img/planet10_right.png,10,Community 3,NA,TRUE,j,j,NA,NA,NA,1,6,"7,15,12,3,11,6,1,2,9,13,14,10,4,5,8"
14270,commdev-image-keyboard-response,494,1212622,learnblock1,522.1999999880791,img/planet8_right.png,8,Community 3,NA,TRUE,j,j,NA,NA,NA,1,6,"7,15,12,3,11,6,1,2,9,13,14,10,4,5,8"
14270,commdev-image-keyboard-response,495,1213875,learnblock1,600.1999999880791,img/planet5_left.png,5,Community 3,NA,TRUE,f,f,NA,NA,NA,1,6,"7,15,12,3,11,6,1,2,9,13,14,10,4,5,8"
14270,commdev-image-keyboard-response,496,1215128,learnblock1,537.4000000357628,img/planet4_left.png,4,Community 3,NA,TRUE,f,f,NA,NA,NA,1,6,"7,15,12,3,11,6,1,2,9,13,14,10,4,5,8"
14270,commdev-image-keyboard-response,497,1216380,learnblock1,493.4000000357628,img/planet5_left.png,5,Community 3,NA,TRUE,f,f,NA,NA,NA,1,6,"7,15,12,3,11,6,1,2,9,13,14,10,4,5,8"
14270,commdev-image-keyboard-response,501,1245099,learnblock2,null,img/planet13_left.png,13,Community 2,NA,FALSE,null,f,NA,NA,NA,1,6,"7,15,12,3,11,6,1,2,9,13,14,10,4,5,8"
14270,commdev-image-keyboard-response,502,1246351,learnblock2,82.29999995231628,img/planet9_right.png,9,Community 2,NA,FALSE,f,j,NA,NA,NA,1,6,"7,15,12,3,11,6,1,2,9,13,14,10,4,5,8"
14270,commdev-image-keyboard-response,503,1247604,learnblock2,596.3999999761581,img/planet6_left.png,6,Community 2,NA,TRUE,f,f,NA,NA,NA,1,6,"7,15,12,3,11,6,1,2,9,13,14,10,4,5,8"
14270,commdev-image-keyboard-response,504,1248857,learnblock2,765.8000000119209,img/planet1_right.png,1,Community 2,NA,TRUE,j,j,NA,NA,NA,1,6,"7,15,12,3,11,6,1,2,9,13,14,10,4,5,8"
14270,commdev-image-keyboard-response,505,1250111,learnblock2,510.39999997615814,img/planet6_left.png,6,Community 2,NA,TRUE,f,f,NA,NA,NA,1,6,"7,15,12,3,11,6,1,2,9,13,14,10,4,5,8"
14270,commdev-image-keyboard-response,506,1251363,learnblock2,594.3999999761581,img/planet1_left.png,1,Community 2,NA,TRUE,f,f,NA,NA,NA,1,6,"7,15,12,3,11,6,1,2,9,13,14,10,4,5,8"
14270,commdev-image-keyboard-response,507,1252617,learnblock2,640.6999999880791,img/planet6_right.png,6,Community 2,NA,TRUE,j,j,NA,NA,NA,1,6,"7,15,12,3,11,6,1,2,9,13,14,10,4,5,8"
14270,commdev-image-keyboard-response,508,1253806,learnblock2,638.0999999642372,img/planet13_right.png,13,Community 2,NA,TRUE,j,j,NA,NA,NA,1,6,"7,15,12,3,11,6,1,2,9,13,14,10,4,5,8"
14270,commdev-image-keyboard-response,509,1255059,learnblock2,558.1999999880791,img/planet1_left.png,1,Community 2,NA,TRUE,f,f,NA,NA,NA,1,6,"7,15,12,3,11,6,1,2,9,13,14,10,4,5,8"
14270,commdev-image-keyboard-response,510,1256313,learnblock2,569.1999999880791,img/planet13_left.png,13,Community 2,NA,TRUE,f,f,NA,NA,NA,1,6,"7,15,12,3,11,6,1,2,9,13,14,10,4,5,8"
14270,commdev-image-keyboard-response,511,1257566,learnblock2,610.6000000238419,img/planet9_left.png,9,Community 2,NA,TRUE,f,f,NA,NA,NA,1,6,"7,15,12,3,11,6,1,2,9,13,14,10,4,5,8"
14270,commdev-image-keyboard-response,512,1258819,learnblock2,607.3999999761581,img/planet2_right.png,2,Community 2,NA,TRUE,j,j,NA,NA,NA,1,6,"7,15,12,3,11,6,1,2,9,13,14,10,4,5,8"
14270,commdev-image-keyboard-response,513,1260071,learnblock2,628.6999999880791,img/planet1_right.png,1,Community 2,NA,TRUE,j,j,NA,NA,NA,1,6,"7,15,12,3,11,6,1,2,9,13,14,10,4,5,8"
14270,commdev-image-keyboard-response,514,1261325,learnblock2,793.6000000238419,img/planet13_right.png,13,Community 2,NA,TRUE,j,j,NA,NA,NA,1,6,"7,15,12,3,11,6,1,2,9,13,14,10,4,5,8"
14270,commdev-image-keyboard-response,515,1262579,learnblock2,599.2000000476837,img/planet2_right.png,2,Community 2,NA,TRUE,j,j,NA,NA,NA,1,6,"7,15,12,3,11,6,1,2,9,13,14,10,4,5,8"
14270,commdev-image-keyboard-response,516,1263832,learnblock2,546,img/planet1_left.png,1,Community 2,NA,TRUE,f,f,NA,NA,NA,1,6,"7,15,12,3,11,6,1,2,9,13,14,10,4,5,8"
14270,commdev-image-keyboard-response,517,1265086,learnblock2,653.1999999880791,img/planet6_left.png,6,Community 2,NA,TRUE,f,f,NA,NA,NA,1,6,"7,15,12,3,11,6,1,2,9,13,14,10,4,5,8"
14270,commdev-image-keyboard-response,518,1266339,learnblock2,652.3000000119209,img/planet1_right.png,1,Community 2,NA,TRUE,j,j,NA,NA,NA,1,6,"7,15,12,3,11,6,1,2,9,13,14,10,4,5,8"
14270,commdev-image-keyboard-response,519,1267592,learnblock2,625.6999999880791,img/planet2_left.png,2,Community 2,NA,TRUE,f,f,NA,NA,NA,1,6,"7,15,12,3,11,6,1,2,9,13,14,10,4,5,8"
14270,commdev-image-keyboard-response,520,1268845,learnblock2,730.0999999642372,img/planet13_right.png,13,Community 2,NA,TRUE,j,j,NA,NA,NA,1,6,"7,15,12,3,11,6,1,2,9,13,14,10,4,5,8"
14270,commdev-image-keyboard-response,521,1270099,learnblock2,503.4000000357628,img/planet2_right.png,2,Community 2,NA,TRUE,j,j,NA,NA,NA,1,6,"7,15,12,3,11,6,1,2,9,13,14,10,4,5,8"
14270,commdev-image-keyboard-response,522,1271352,learnblock2,567.2000000476837,img/planet10_left.png,10,Community 3,NA,TRUE,f,f,NA,NA,NA,1,6,"7,15,12,3,11,6,1,2,9,13,14,10,4,5,8"
14270,commdev-image-keyboard-response,523,1272604,learnblock2,596.7999999523163,img/planet8_right.png,8,Community 3,NA,TRUE,j,j,NA,NA,NA,1,6,"7,15,12,3,11,6,1,2,9,13,14,10,4,5,8"
14270,commdev-image-keyboard-response,524,1273856,learnblock2,552.2999999523163,img/planet4_right.png,4,Community 3,NA,TRUE,j,j,NA,NA,NA,1,6,"7,15,12,3,11,6,1,2,9,13,14,10,4,5,8"
14270,commdev-image-keyboard-response,525,1275110,learnblock2,543.5,img/planet8_right.png,8,Community 3,NA,TRUE,j,j,NA,NA,NA,1,6,"7,15,12,3,11,6,1,2,9,13,14,10,4,5,8"
14270,commdev-image-keyboard-response,526,1276363,learnblock2,458.30000001192093,img/planet4_right.png,4,Community 3,NA,TRUE,j,j,NA,NA,NA,1,6,"7,15,12,3,11,6,1,2,9,13,14,10,4,5,8"
14270,commdev-image-keyboard-response,527,1277616,learnblock2,529.6999999880791,img/planet10_left.png,10,Community 3,NA,TRUE,f,f,NA,NA,NA,1,6,"7,15,12,3,11,6,1,2,9,13,14,10,4,5,8"
14270,commdev-image-keyboard-response,528,1278868,learnblock2,462.5,img/planet2_right.png,2,Community 2,NA,FALSE,f,j,NA,NA,NA,1,6,"7,15,12,3,11,6,1,2,9,13,14,10,4,5,8"
14270,commdev-image-keyboard-response,529,1280120,learnblock2,1143,img/planet9_left.png,9,Community 2,NA,TRUE,f,f,NA,NA,NA,1,6,"7,15,12,3,11,6,1,2,9,13,14,10,4,5,8"
14270,commdev-image-keyboard-response,530,1281373,learnblock2,831.8000000119209,img/planet1_right.png,1,Community 2,NA,TRUE,j,j,NA,NA,NA,1,6,"7,15,12,3,11,6,1,2,9,13,14,10,4,5,8"
14270,commdev-image-keyboard-response,531,1282627,learnblock2,585.5,img/planet2_right.png,2,Community 2,NA,TRUE,j,j,NA,NA,NA,1,6,"7,15,12,3,11,6,1,2,9,13,14,10,4,5,8"
14270,commdev-image-keyboard-response,532,1283880,learnblock2,594.2000000476837,img/planet13_left.png,13,Community 2,NA,TRUE,f,f,NA,NA,NA,1,6,"7,15,12,3,11,6,1,2,9,13,14,10,4,5,8"
14270,commdev-image-keyboard-response,533,1285134,learnblock2,793.1000000238419,img/planet1_right.png,1,Community 2,NA,TRUE,j,j,NA,NA,NA,1,6,"7,15,12,3,11,6,1,2,9,13,14,10,4,5,8"
14270,commdev-image-keyboard-response,534,1286386,learnblock2,628.5,img/planet9_right.png,9,Community 2,NA,TRUE,j,j,NA,NA,NA,1,6,"7,15,12,3,11,6,1,2,9,13,14,10,4,5,8"
14270,commdev-image-keyboard-response,535,1287639,learnblock2,637.7999999523163,img/planet6_right.png,6,Community 2,NA,TRUE,j,j,NA,NA,NA,1,6,"7,15,12,3,11,6,1,2,9,13,14,10,4,5,8"
14270,commdev-image-keyboard-response,536,1288893,learnblock2,645.8999999761581,img/planet3_left.png,3,Community 1,NA,TRUE,f,f,NA,NA,NA,1,6,"7,15,12,3,11,6,1,2,9,13,14,10,4,5,8"
14270,commdev-image-keyboard-response,537,1290146,learnblock2,823.5,img/planet12_left.png,12,Community 1,NA,FALSE,j,f,NA,NA,NA,1,6,"7,15,12,3,11,6,1,2,9,13,14,10,4,5,8"
14270,commdev-image-keyboard-response,538,1291398,learnblock2,851.1000000238419,img/planet7_left.png,7,Community 1,NA,TRUE,f,f,NA,NA,NA,1,6,"7,15,12,3,11,6,1,2,9,13,14,10,4,5,8"
14270,commdev-image-keyboard-response,539,1292651,learnblock2,936.7999999523163,img/planet15_right.png,15,Community 1,NA,TRUE,j,j,NA,NA,NA,1,6,"7,15,12,3,11,6,1,2,9,13,14,10,4,5,8"
14270,commdev-image-keyboard-response,540,1293905,learnblock2,1071.199999988079,img/planet7_left.png,7,Community 1,NA,TRUE,f,f,NA,NA,NA,1,6,"7,15,12,3,11,6,1,2,9,13,14,10,4,5,8"
14270,commdev-image-keyboard-response,541,1295157,learnblock2,639.6999999880791,img/planet11_right.png,11,Community 1,NA,TRUE,j,j,NA,NA,NA,1,6,"7,15,12,3,11,6,1,2,9,13,14,10,4,5,8"
14270,commdev-image-keyboard-response,542,1296410,learnblock2,840.6999999880791,img/planet14_left.png,14,Community 3,NA,TRUE,f,f,NA,NA,NA,1,6,"7,15,12,3,11,6,1,2,9,13,14,10,4,5,8"
14270,commdev-image-keyboard-response,543,1297663,learnblock2,983.1999999880791,img/planet8_right.png,8,Community 3,NA,TRUE,j,j,NA,NA,NA,1,6,"7,15,12,3,11,6,1,2,9,13,14,10,4,5,8"
14270,commdev-image-keyboard-response,544,1298916,learnblock2,591.3000000119209,img/planet5_right.png,5,Community 3,NA,TRUE,j,j,NA,NA,NA,1,6,"7,15,12,3,11,6,1,2,9,13,14,10,4,5,8"
14270,commdev-image-keyboard-response,545,1300169,learnblock2,511.19999998807907,img/planet10_left.png,10,Community 3,NA,TRUE,f,f,NA,NA,NA,1,6,"7,15,12,3,11,6,1,2,9,13,14,10,4,5,8"
14270,commdev-image-keyboard-response,546,1301423,learnblock2,761.3000000119209,img/planet5_right.png,5,Community 3,NA,TRUE,j,j,NA,NA,NA,1,6,"7,15,12,3,11,6,1,2,9,13,14,10,4,5,8"
14270,commdev-image-keyboard-response,547,1302676,learnblock2,697.6999999880791,img/planet8_left.png,8,Community 3,NA,TRUE,f,f,NA,NA,NA,1,6,"7,15,12,3,11,6,1,2,9,13,14,10,4,5,8"
14270,commdev-image-keyboard-response,548,1303928,learnblock2,530,img/planet5_right.png,5,Community 3,NA,TRUE,j,j,NA,NA,NA,1,6,"7,15,12,3,11,6,1,2,9,13,14,10,4,5,8"
14270,commdev-image-keyboard-response,549,1305181,learnblock2,659.8000000119209,img/planet8_right.png,8,Community 3,NA,TRUE,j,j,NA,NA,NA,1,6,"7,15,12,3,11,6,1,2,9,13,14,10,4,5,8"
14270,commdev-image-keyboard-response,550,1306434,learnblock2,546.0999999642372,img/planet14_left.png,14,Community 3,NA,TRUE,f,f,NA,NA,NA,1,6,"7,15,12,3,11,6,1,2,9,13,14,10,4,5,8"
14270,commdev-image-keyboard-response,551,1307687,learnblock2,703.3999999761581,img/planet11_left.png,11,Community 1,NA,TRUE,f,f,NA,NA,NA,1,6,"7,15,12,3,11,6,1,2,9,13,14,10,4,5,8"
14270,commdev-image-keyboard-response,552,1308939,learnblock2,661.1999999880791,img/planet7_left.png,7,Community 1,NA,TRUE,f,f,NA,NA,NA,1,6,"7,15,12,3,11,6,1,2,9,13,14,10,4,5,8"
14270,commdev-image-keyboard-response,553,1310193,learnblock2,572.8999999761581,img/planet12_left.png,12,Community 1,NA,TRUE,f,f,NA,NA,NA,1,6,"7,15,12,3,11,6,1,2,9,13,14,10,4,5,8"
14270,commdev-image-keyboard-response,554,1311446,learnblock2,664.1000000238419,img/planet3_left.png,3,Community 1,NA,TRUE,f,f,NA,NA,NA,1,6,"7,15,12,3,11,6,1,2,9,13,14,10,4,5,8"
14270,commdev-image-keyboard-response,555,1312700,learnblock2,506.39999997615814,img/planet15_left.png,15,Community 1,NA,TRUE,f,f,NA,NA,NA,1,6,"7,15,12,3,11,6,1,2,9,13,14,10,4,5,8"
14270,commdev-image-keyboard-response,556,1313952,learnblock2,576.6999999880791,img/planet3_right.png,3,Community 1,NA,TRUE,j,j,NA,NA,NA,1,6,"7,15,12,3,11,6,1,2,9,13,14,10,4,5,8"
14270,commdev-image-keyboard-response,557,1315206,learnblock2,861.4000000357628,img/planet6_right.png,6,Community 2,NA,TRUE,j,j,NA,NA,NA,1,6,"7,15,12,3,11,6,1,2,9,13,14,10,4,5,8"
14270,commdev-image-keyboard-response,558,1316460,learnblock2,594.8999999761581,img/planet3_right.png,3,Community 1,NA,TRUE,j,j,NA,NA,NA,1,6,"7,15,12,3,11,6,1,2,9,13,14,10,4,5,8"
14270,commdev-image-keyboard-response,559,1317712,learnblock2,513.3000000119209,img/planet6_left.png,6,Community 2,NA,FALSE,j,f,NA,NA,NA,1,6,"7,15,12,3,11,6,1,2,9,13,14,10,4,5,8"
14270,commdev-image-keyboard-response,560,1318965,learnblock2,1236.3999999761581,img/planet1_right.png,1,Community 2,NA,TRUE,j,j,NA,NA,NA,1,6,"7,15,12,3,11,6,1,2,9,13,14,10,4,5,8"
14270,commdev-image-keyboard-response,561,1320219,learnblock2,813.6999999880791,img/planet13_left.png,13,Community 2,NA,TRUE,f,f,NA,NA,NA,1,6,"7,15,12,3,11,6,1,2,9,13,14,10,4,5,8"
14270,commdev-image-keyboard-response,562,1321471,learnblock2,706.5999999642372,img/planet1_left.png,1,Community 2,NA,TRUE,f,f,NA,NA,NA,1,6,"7,15,12,3,11,6,1,2,9,13,14,10,4,5,8"
14270,commdev-image-keyboard-response,563,1322724,learnblock2,872.5999999642372,img/planet6_right.png,6,Community 2,NA,TRUE,j,j,NA,NA,NA,1,6,"7,15,12,3,11,6,1,2,9,13,14,10,4,5,8"
14270,commdev-image-keyboard-response,564,1323978,learnblock2,915.3000000119209,img/planet9_right.png,9,Community 2,NA,TRUE,j,j,NA,NA,NA,1,6,"7,15,12,3,11,6,1,2,9,13,14,10,4,5,8"
14270,commdev-image-keyboard-response,565,1325231,learnblock2,523.6999999880791,img/planet1_left.png,1,Community 2,NA,TRUE,f,f,NA,NA,NA,1,6,"7,15,12,3,11,6,1,2,9,13,14,10,4,5,8"
14270,commdev-image-keyboard-response,566,1326484,learnblock2,563.6000000238419,img/planet13_right.png,13,Community 2,NA,TRUE,j,j,NA,NA,NA,1,6,"7,15,12,3,11,6,1,2,9,13,14,10,4,5,8"
14270,commdev-image-keyboard-response,567,1327737,learnblock2,598.5999999642372,img/planet9_left.png,9,Community 2,NA,TRUE,f,f,NA,NA,NA,1,6,"7,15,12,3,11,6,1,2,9,13,14,10,4,5,8"
14270,commdev-image-keyboard-response,568,1328990,learnblock2,564.3000000119209,img/planet6_right.png,6,Community 2,NA,TRUE,j,j,NA,NA,NA,1,6,"7,15,12,3,11,6,1,2,9,13,14,10,4,5,8"
14270,commdev-image-keyboard-response,569,1330244,learnblock2,558.5,img/planet9_left.png,9,Community 2,NA,TRUE,f,f,NA,NA,NA,1,6,"7,15,12,3,11,6,1,2,9,13,14,10,4,5,8"
14270,commdev-image-keyboard-response,570,1331497,learnblock2,656.9000000357628,img/planet13_left.png,13,Community 2,NA,TRUE,f,f,NA,NA,NA,1,6,"7,15,12,3,11,6,1,2,9,13,14,10,4,5,8"
14270,commdev-image-keyboard-response,571,1332751,learnblock2,750.1999999880791,img/planet9_left.png,9,Community 2,NA,TRUE,f,f,NA,NA,NA,1,6,"7,15,12,3,11,6,1,2,9,13,14,10,4,5,8"
14270,commdev-image-keyboard-response,572,1334003,learnblock2,569.6999999880791,img/planet13_left.png,13,Community 2,NA,TRUE,f,f,NA,NA,NA,1,6,"7,15,12,3,11,6,1,2,9,13,14,10,4,5,8"
14270,commdev-image-keyboard-response,573,1335256,learnblock2,494.9000000357628,img/planet9_left.png,9,Community 2,NA,TRUE,f,f,NA,NA,NA,1,6,"7,15,12,3,11,6,1,2,9,13,14,10,4,5,8"
14270,commdev-image-keyboard-response,574,1336509,learnblock2,486.4000000357628,img/planet2_right.png,2,Community 2,NA,TRUE,j,j,NA,NA,NA,1,6,"7,15,12,3,11,6,1,2,9,13,14,10,4,5,8"
14270,commdev-image-keyboard-response,575,1337761,learnblock2,583,img/planet10_right.png,10,Community 3,NA,TRUE,j,j,NA,NA,NA,1,6,"7,15,12,3,11,6,1,2,9,13,14,10,4,5,8"
14270,commdev-image-keyboard-response,576,1339014,learnblock2,611.1000000238419,img/planet2_left.png,2,Community 2,NA,TRUE,f,f,NA,NA,NA,1,6,"7,15,12,3,11,6,1,2,9,13,14,10,4,5,8"
14270,commdev-image-keyboard-response,577,1340266,learnblock2,939.4000000357628,img/planet1_right.png,1,Community 2,NA,TRUE,j,j,NA,NA,NA,1,6,"7,15,12,3,11,6,1,2,9,13,14,10,4,5,8"
14270,commdev-image-keyboard-response,578,1341520,learnblock2,699.6000000238419,img/planet6_right.png,6,Community 2,NA,TRUE,j,j,NA,NA,NA,1,6,"7,15,12,3,11,6,1,2,9,13,14,10,4,5,8"
14270,commdev-image-keyboard-response,579,1342773,learnblock2,558.8000000119209,img/planet9_left.png,9,Community 2,NA,TRUE,f,f,NA,NA,NA,1,6,"7,15,12,3,11,6,1,2,9,13,14,10,4,5,8"
14270,commdev-image-keyboard-response,580,1344026,learnblock2,542,img/planet2_left.png,2,Community 2,NA,TRUE,f,f,NA,NA,NA,1,6,"7,15,12,3,11,6,1,2,9,13,14,10,4,5,8"
14270,commdev-image-keyboard-response,581,1345279,learnblock2,590.5,img/planet1_left.png,1,Community 2,NA,TRUE,f,f,NA,NA,NA,1,6,"7,15,12,3,11,6,1,2,9,13,14,10,4,5,8"
14270,commdev-image-keyboard-response,582,1346532,learnblock2,542.1000000238419,img/planet9_left.png,9,Community 2,NA,TRUE,f,f,NA,NA,NA,1,6,"7,15,12,3,11,6,1,2,9,13,14,10,4,5,8"
14270,commdev-image-keyboard-response,583,1347785,learnblock2,625.5,img/planet1_right.png,1,Community 2,NA,TRUE,j,j,NA,NA,NA,1,6,"7,15,12,3,11,6,1,2,9,13,14,10,4,5,8"
14270,commdev-image-keyboard-response,584,1349038,learnblock2,503.60000002384186,img/planet2_right.png,2,Community 2,NA,TRUE,j,j,NA,NA,NA,1,6,"7,15,12,3,11,6,1,2,9,13,14,10,4,5,8"
14270,commdev-image-keyboard-response,585,1350291,learnblock2,528,img/planet9_left.png,9,Community 2,NA,TRUE,f,f,NA,NA,NA,1,6,"7,15,12,3,11,6,1,2,9,13,14,10,4,5,8"
14270,commdev-image-keyboard-response,586,1351544,learnblock2,608.4000000357628,img/planet13_left.png,13,Community 2,NA,TRUE,f,f,NA,NA,NA,1,6,"7,15,12,3,11,6,1,2,9,13,14,10,4,5,8"
14270,commdev-image-keyboard-response,587,1352797,learnblock2,583,img/planet6_right.png,6,Community 2,NA,TRUE,j,j,NA,NA,NA,1,6,"7,15,12,3,11,6,1,2,9,13,14,10,4,5,8"
14270,commdev-image-keyboard-response,588,1354049,learnblock2,588.5,img/planet3_left.png,3,Community 1,NA,TRUE,f,f,NA,NA,NA,1,6,"7,15,12,3,11,6,1,2,9,13,14,10,4,5,8"
14270,commdev-image-keyboard-response,589,1355302,learnblock2,495,img/planet6_right.png,6,Community 2,NA,TRUE,j,j,NA,NA,NA,1,6,"7,15,12,3,11,6,1,2,9,13,14,10,4,5,8"
14270,commdev-image-keyboard-response,590,1356555,learnblock2,506,img/planet9_left.png,9,Community 2,NA,TRUE,f,f,NA,NA,NA,1,6,"7,15,12,3,11,6,1,2,9,13,14,10,4,5,8"
14270,commdev-image-keyboard-response,591,1357807,learnblock2,569.8000000119209,img/planet6_left.png,6,Community 2,NA,TRUE,f,f,NA,NA,NA,1,6,"7,15,12,3,11,6,1,2,9,13,14,10,4,5,8"
14270,commdev-image-keyboard-response,592,1359060,learnblock2,553.3000000119209,img/planet1_right.png,1,Community 2,NA,TRUE,j,j,NA,NA,NA,1,6,"7,15,12,3,11,6,1,2,9,13,14,10,4,5,8"
14270,commdev-image-keyboard-response,593,1360313,learnblock2,487.30000001192093,img/planet6_left.png,6,Community 2,NA,TRUE,f,f,NA,NA,NA,1,6,"7,15,12,3,11,6,1,2,9,13,14,10,4,5,8"
14270,commdev-image-keyboard-response,594,1361567,learnblock2,577.6000000238419,img/planet13_left.png,13,Community 2,NA,TRUE,f,f,NA,NA,NA,1,6,"7,15,12,3,11,6,1,2,9,13,14,10,4,5,8"
14270,commdev-image-keyboard-response,595,1362820,learnblock2,581.1000000238419,img/planet9_left.png,9,Community 2,NA,TRUE,f,f,NA,NA,NA,1,6,"7,15,12,3,11,6,1,2,9,13,14,10,4,5,8"
14270,commdev-image-keyboard-response,596,1364071,learnblock2,477.2999999523163,img/planet2_left.png,2,Community 2,NA,TRUE,f,f,NA,NA,NA,1,6,"7,15,12,3,11,6,1,2,9,13,14,10,4,5,8"
14270,commdev-image-keyboard-response,597,1365324,learnblock2,603.2000000476837,img/planet9_right.png,9,Community 2,NA,TRUE,j,j,NA,NA,NA,1,6,"7,15,12,3,11,6,1,2,9,13,14,10,4,5,8"
14270,commdev-image-keyboard-response,598,1366577,learnblock2,597.6000000238419,img/planet2_right.png,2,Community 2,NA,FALSE,f,j,NA,NA,NA,1,6,"7,15,12,3,11,6,1,2,9,13,14,10,4,5,8"
14270,commdev-image-keyboard-response,599,1367830,learnblock2,684.4000000357628,img/planet1_right.png,1,Community 2,NA,TRUE,j,j,NA,NA,NA,1,6,"7,15,12,3,11,6,1,2,9,13,14,10,4,5,8"
14270,commdev-image-keyboard-response,600,1369082,learnblock2,530.9000000357628,img/planet9_left.png,9,Community 2,NA,TRUE,f,f,NA,NA,NA,1,6,"7,15,12,3,11,6,1,2,9,13,14,10,4,5,8"
14270,commdev-image-keyboard-response,601,1370336,learnblock2,741.9000000357628,img/planet13_right.png,13,Community 2,NA,TRUE,j,j,NA,NA,NA,1,6,"7,15,12,3,11,6,1,2,9,13,14,10,4,5,8"
14270,commdev-image-keyboard-response,602,1371589,learnblock2,668.3000000119209,img/planet9_left.png,9,Community 2,NA,TRUE,f,f,NA,NA,NA,1,6,"7,15,12,3,11,6,1,2,9,13,14,10,4,5,8"
14270,commdev-image-keyboard-response,603,1372843,learnblock2,631.4000000357628,img/planet1_left.png,1,Community 2,NA,TRUE,f,f,NA,NA,NA,1,6,"7,15,12,3,11,6,1,2,9,13,14,10,4,5,8"
14270,commdev-image-keyboard-response,604,1374096,learnblock2,618.6999999880791,img/planet13_right.png,13,Community 2,NA,TRUE,j,j,NA,NA,NA,1,6,"7,15,12,3,11,6,1,2,9,13,14,10,4,5,8"
14270,commdev-image-keyboard-response,605,1375349,learnblock2,900,img/planet2_left.png,2,Community 2,NA,TRUE,f,f,NA,NA,NA,1,6,"7,15,12,3,11,6,1,2,9,13,14,10,4,5,8"
14270,commdev-image-keyboard-response,606,1376603,learnblock2,670,img/planet1_right.png,1,Community 2,NA,TRUE,j,j,NA,NA,NA,1,6,"7,15,12,3,11,6,1,2,9,13,14,10,4,5,8"
14270,commdev-image-keyboard-response,607,1377857,learnblock2,478.0999999642372,img/planet13_left.png,13,Community 2,NA,TRUE,f,f,NA,NA,NA,1,6,"7,15,12,3,11,6,1,2,9,13,14,10,4,5,8"
14270,commdev-image-keyboard-response,608,1379110,learnblock2,531.8000000119209,img/planet2_right.png,2,Community 2,NA,TRUE,j,j,NA,NA,NA,1,6,"7,15,12,3,11,6,1,2,9,13,14,10,4,5,8"
14270,commdev-image-keyboard-response,609,1380364,learnblock2,457.19999998807907,img/planet13_left.png,13,Community 2,NA,TRUE,f,f,NA,NA,NA,1,6,"7,15,12,3,11,6,1,2,9,13,14,10,4,5,8"
14270,commdev-image-keyboard-response,610,1381618,learnblock2,650.3999999761581,img/planet1_left.png,1,Community 2,NA,TRUE,f,f,NA,NA,NA,1,6,"7,15,12,3,11,6,1,2,9,13,14,10,4,5,8"
14270,commdev-image-keyboard-response,611,1382870,learnblock2,753.7000000476837,img/planet6_left.png,6,Community 2,NA,TRUE,f,f,NA,NA,NA,1,6,"7,15,12,3,11,6,1,2,9,13,14,10,4,5,8"
14270,commdev-image-keyboard-response,612,1384124,learnblock2,551.8000000119209,img/planet9_right.png,9,Community 2,NA,TRUE,j,j,NA,NA,NA,1,6,"7,15,12,3,11,6,1,2,9,13,14,10,4,5,8"
14270,commdev-image-keyboard-response,613,1385377,learnblock2,1028.7000000476837,img/planet2_left.png,2,Community 2,NA,TRUE,f,f,NA,NA,NA,1,6,"7,15,12,3,11,6,1,2,9,13,14,10,4,5,8"
14270,commdev-image-keyboard-response,614,1386630,learnblock2,592.3999999761581,img/planet13_right.png,13,Community 2,NA,TRUE,j,j,NA,NA,NA,1,6,"7,15,12,3,11,6,1,2,9,13,14,10,4,5,8"
14270,commdev-image-keyboard-response,615,1387882,learnblock2,551,img/planet6_left.png,6,Community 2,NA,TRUE,f,f,NA,NA,NA,1,6,"7,15,12,3,11,6,1,2,9,13,14,10,4,5,8"
14270,commdev-image-keyboard-response,616,1389135,learnblock2,616.5999999642372,img/planet9_right.png,9,Community 2,NA,TRUE,j,j,NA,NA,NA,1,6,"7,15,12,3,11,6,1,2,9,13,14,10,4,5,8"
14270,commdev-image-keyboard-response,617,1390389,learnblock2,933.8000000119209,img/planet6_left.png,6,Community 2,NA,FALSE,j,f,NA,NA,NA,1,6,"7,15,12,3,11,6,1,2,9,13,14,10,4,5,8"
14270,commdev-image-keyboard-response,618,1391642,learnblock2,null,img/planet3_right.png,3,Community 1,NA,FALSE,null,j,NA,NA,NA,1,6,"7,15,12,3,11,6,1,2,9,13,14,10,4,5,8"
14270,commdev-image-keyboard-response,619,1392895,learnblock2,234.4000000357628,img/planet7_left.png,7,Community 1,NA,FALSE,j,f,NA,NA,NA,1,6,"7,15,12,3,11,6,1,2,9,13,14,10,4,5,8"
14270,commdev-image-keyboard-response,620,1394147,learnblock2,801.5999999642372,img/planet3_left.png,3,Community 1,NA,FALSE,j,f,NA,NA,NA,1,6,"7,15,12,3,11,6,1,2,9,13,14,10,4,5,8"
14270,commdev-image-keyboard-response,621,1395401,learnblock2,658.8000000119209,img/planet6_left.png,6,Community 2,NA,TRUE,f,f,NA,NA,NA,1,6,"7,15,12,3,11,6,1,2,9,13,14,10,4,5,8"
14270,commdev-image-keyboard-response,622,1396655,learnblock2,568.4000000357628,img/planet13_left.png,13,Community 2,NA,TRUE,f,f,NA,NA,NA,1,6,"7,15,12,3,11,6,1,2,9,13,14,10,4,5,8"
14270,commdev-image-keyboard-response,623,1397908,learnblock2,553.3999999761581,img/planet6_left.png,6,Community 2,NA,TRUE,f,f,NA,NA,NA,1,6,"7,15,12,3,11,6,1,2,9,13,14,10,4,5,8"
14270,commdev-image-keyboard-response,624,1399161,learnblock2,496.0999999642372,img/planet1_right.png,1,Community 2,NA,TRUE,j,j,NA,NA,NA,1,6,"7,15,12,3,11,6,1,2,9,13,14,10,4,5,8"
14270,commdev-image-keyboard-response,625,1400414,learnblock2,485.5,img/planet6_left.png,6,Community 2,NA,TRUE,f,f,NA,NA,NA,1,6,"7,15,12,3,11,6,1,2,9,13,14,10,4,5,8"
14270,commdev-image-keyboard-response,626,1401668,learnblock2,509.10000002384186,img/planet9_right.png,9,Community 2,NA,TRUE,j,j,NA,NA,NA,1,6,"7,15,12,3,11,6,1,2,9,13,14,10,4,5,8"
14270,commdev-image-keyboard-response,627,1402921,learnblock2,577,img/planet2_left.png,2,Community 2,NA,TRUE,f,f,NA,NA,NA,1,6,"7,15,12,3,11,6,1,2,9,13,14,10,4,5,8"
14270,commdev-image-keyboard-response,628,1404174,learnblock2,685.1999999880791,img/planet1_left.png,1,Community 2,NA,TRUE,f,f,NA,NA,NA,1,6,"7,15,12,3,11,6,1,2,9,13,14,10,4,5,8"
14270,commdev-image-keyboard-response,629,1405427,learnblock2,616.7000000476837,img/planet6_right.png,6,Community 2,NA,TRUE,j,j,NA,NA,NA,1,6,"7,15,12,3,11,6,1,2,9,13,14,10,4,5,8"
14270,commdev-image-keyboard-response,630,1406680,learnblock2,500.5,img/planet9_right.png,9,Community 2,NA,TRUE,j,j,NA,NA,NA,1,6,"7,15,12,3,11,6,1,2,9,13,14,10,4,5,8"
14270,commdev-image-keyboard-response,631,1407934,learnblock2,632.1999999880791,img/planet1_right.png,1,Community 2,NA,TRUE,j,j,NA,NA,NA,1,6,"7,15,12,3,11,6,1,2,9,13,14,10,4,5,8"
14270,commdev-image-keyboard-response,632,1409186,learnblock2,523.3999999761581,img/planet9_right.png,9,Community 2,NA,TRUE,j,j,NA,NA,NA,1,6,"7,15,12,3,11,6,1,2,9,13,14,10,4,5,8"
14270,commdev-image-keyboard-response,633,1410439,learnblock2,621.1999999880791,img/planet13_right.png,13,Community 2,NA,TRUE,j,j,NA,NA,NA,1,6,"7,15,12,3,11,6,1,2,9,13,14,10,4,5,8"
14270,commdev-image-keyboard-response,634,1411693,learnblock2,609.1999999880791,img/planet6_left.png,6,Community 2,NA,TRUE,f,f,NA,NA,NA,1,6,"7,15,12,3,11,6,1,2,9,13,14,10,4,5,8"
14270,commdev-image-keyboard-response,635,1412947,learnblock2,733.0999999642372,img/planet3_left.png,3,Community 1,NA,TRUE,f,f,NA,NA,NA,1,6,"7,15,12,3,11,6,1,2,9,13,14,10,4,5,8"
14270,commdev-image-keyboard-response,636,1414199,learnblock2,724.4000000357628,img/planet7_right.png,7,Community 1,NA,TRUE,j,j,NA,NA,NA,1,6,"7,15,12,3,11,6,1,2,9,13,14,10,4,5,8"
14270,commdev-image-keyboard-response,637,1415452,learnblock2,808.5,img/planet11_left.png,11,Community 1,NA,TRUE,f,f,NA,NA,NA,1,6,"7,15,12,3,11,6,1,2,9,13,14,10,4,5,8"
14270,commdev-image-keyboard-response,638,1416705,learnblock2,564.3999999761581,img/planet15_right.png,15,Community 1,NA,TRUE,j,j,NA,NA,NA,1,6,"7,15,12,3,11,6,1,2,9,13,14,10,4,5,8"
14270,commdev-image-keyboard-response,639,1417958,learnblock2,590,img/planet12_left.png,12,Community 1,NA,FALSE,j,f,NA,NA,NA,1,6,"7,15,12,3,11,6,1,2,9,13,14,10,4,5,8"
14270,commdev-image-keyboard-response,640,1419210,learnblock2,711,img/planet3_left.png,3,Community 1,NA,TRUE,f,f,NA,NA,NA,1,6,"7,15,12,3,11,6,1,2,9,13,14,10,4,5,8"
14270,commdev-image-keyboard-response,641,1420464,learnblock2,609.8999999761581,img/planet6_right.png,6,Community 2,NA,TRUE,j,j,NA,NA,NA,1,6,"7,15,12,3,11,6,1,2,9,13,14,10,4,5,8"
14270,commdev-image-keyboard-response,642,1421717,learnblock2,548.6000000238419,img/planet9_left.png,9,Community 2,NA,FALSE,j,f,NA,NA,NA,1,6,"7,15,12,3,11,6,1,2,9,13,14,10,4,5,8"
14270,commdev-image-keyboard-response,643,1422971,learnblock2,507.9000000357628,img/planet1_left.png,1,Community 2,NA,FALSE,j,f,NA,NA,NA,1,6,"7,15,12,3,11,6,1,2,9,13,14,10,4,5,8"
14270,commdev-image-keyboard-response,644,1424223,learnblock2,528.6999999880791,img/planet6_left.png,6,Community 2,NA,FALSE,j,f,NA,NA,NA,1,6,"7,15,12,3,11,6,1,2,9,13,14,10,4,5,8"
14270,commdev-image-keyboard-response,645,1425477,learnblock2,null,img/planet13_right.png,13,Community 2,NA,FALSE,null,j,NA,NA,NA,1,6,"7,15,12,3,11,6,1,2,9,13,14,10,4,5,8"
14270,commdev-image-keyboard-response,646,1426730,learnblock2,175.5,img/planet9_left.png,9,Community 2,NA,FALSE,j,f,NA,NA,NA,1,6,"7,15,12,3,11,6,1,2,9,13,14,10,4,5,8"
14270,commdev-image-keyboard-response,647,1427983,learnblock2,545.8000000119209,img/planet13_left.png,13,Community 2,NA,TRUE,f,f,NA,NA,NA,1,6,"7,15,12,3,11,6,1,2,9,13,14,10,4,5,8"
14270,commdev-image-keyboard-response,648,1429236,learnblock2,460.10000002384186,img/planet9_left.png,9,Community 2,NA,TRUE,f,f,NA,NA,NA,1,6,"7,15,12,3,11,6,1,2,9,13,14,10,4,5,8"
14270,commdev-image-keyboard-response,649,1430488,learnblock2,436.69999998807907,img/planet13_left.png,13,Community 2,NA,TRUE,f,f,NA,NA,NA,1,6,"7,15,12,3,11,6,1,2,9,13,14,10,4,5,8"
14270,commdev-image-keyboard-response,650,1431741,learnblock2,437.69999998807907,img/planet6_left.png,6,Community 2,NA,TRUE,f,f,NA,NA,NA,1,6,"7,15,12,3,11,6,1,2,9,13,14,10,4,5,8"
14270,commdev-image-keyboard-response,651,1432994,learnblock2,340.7000000476837,img/planet3_left.png,3,Community 1,NA,TRUE,f,f,NA,NA,NA,1,6,"7,15,12,3,11,6,1,2,9,13,14,10,4,5,8"
14270,commdev-image-keyboard-response,652,1434248,learnblock2,573.3000000119209,img/planet6_right.png,6,Community 2,NA,TRUE,j,j,NA,NA,NA,1,6,"7,15,12,3,11,6,1,2,9,13,14,10,4,5,8"
14270,commdev-image-keyboard-response,653,1435501,learnblock2,656.7999999523163,img/planet3_right.png,3,Community 1,NA,TRUE,j,j,NA,NA,NA,1,6,"7,15,12,3,11,6,1,2,9,13,14,10,4,5,8"
14270,commdev-image-keyboard-response,654,1436754,learnblock2,583.4000000357628,img/planet15_right.png,15,Community 1,NA,TRUE,j,j,NA,NA,NA,1,6,"7,15,12,3,11,6,1,2,9,13,14,10,4,5,8"
14270,commdev-image-keyboard-response,655,1438008,learnblock2,531.8000000119209,img/planet3_left.png,3,Community 1,NA,FALSE,j,f,NA,NA,NA,1,6,"7,15,12,3,11,6,1,2,9,13,14,10,4,5,8"
14270,commdev-image-keyboard-response,656,1439261,learnblock2,530.5,img/planet6_right.png,6,Community 2,NA,TRUE,j,j,NA,NA,NA,1,6,"7,15,12,3,11,6,1,2,9,13,14,10,4,5,8"
14270,commdev-image-keyboard-response,657,1440514,learnblock2,588.2000000476837,img/planet9_left.png,9,Community 2,NA,TRUE,f,f,NA,NA,NA,1,6,"7,15,12,3,11,6,1,2,9,13,14,10,4,5,8"
14270,commdev-image-keyboard-response,658,1441768,learnblock2,622.6999999880791,img/planet1_left.png,1,Community 2,NA,TRUE,f,f,NA,NA,NA,1,6,"7,15,12,3,11,6,1,2,9,13,14,10,4,5,8"
14270,commdev-image-keyboard-response,659,1443022,learnblock2,561.8999999761581,img/planet13_right.png,13,Community 2,NA,TRUE,j,j,NA,NA,NA,1,6,"7,15,12,3,11,6,1,2,9,13,14,10,4,5,8"
14270,commdev-image-keyboard-response,660,1444275,learnblock2,551.4000000357628,img/planet6_left.png,6,Community 2,NA,TRUE,f,f,NA,NA,NA,1,6,"7,15,12,3,11,6,1,2,9,13,14,10,4,5,8"
14270,commdev-image-keyboard-response,661,1445527,learnblock2,687.1000000238419,img/planet3_left.png,3,Community 1,NA,TRUE,f,f,NA,NA,NA,1,6,"7,15,12,3,11,6,1,2,9,13,14,10,4,5,8"
14270,commdev-image-keyboard-response,662,1446780,learnblock2,677,img/planet15_left.png,15,Community 1,NA,TRUE,f,f,NA,NA,NA,1,6,"7,15,12,3,11,6,1,2,9,13,14,10,4,5,8"
14270,commdev-image-keyboard-response,663,1448032,learnblock2,577.3000000119209,img/planet11_right.png,11,Community 1,NA,TRUE,j,j,NA,NA,NA,1,6,"7,15,12,3,11,6,1,2,9,13,14,10,4,5,8"
14270,commdev-image-keyboard-response,664,1449285,learnblock2,654.4000000357628,img/planet14_left.png,14,Community 3,NA,TRUE,f,f,NA,NA,NA,1,6,"7,15,12,3,11,6,1,2,9,13,14,10,4,5,8"
14270,commdev-image-keyboard-response,665,1450538,learnblock2,635,img/planet11_right.png,11,Community 1,NA,TRUE,j,j,NA,NA,NA,1,6,"7,15,12,3,11,6,1,2,9,13,14,10,4,5,8"
14270,commdev-image-keyboard-response,666,1451790,learnblock2,623.3999999761581,img/planet14_right.png,14,Community 3,NA,TRUE,j,j,NA,NA,NA,1,6,"7,15,12,3,11,6,1,2,9,13,14,10,4,5,8"
14270,commdev-image-keyboard-response,667,1453042,learnblock2,541.5,img/planet5_right.png,5,Community 3,NA,TRUE,j,j,NA,NA,NA,1,6,"7,15,12,3,11,6,1,2,9,13,14,10,4,5,8"
14270,commdev-image-keyboard-response,668,1454294,learnblock2,730.5999999642372,img/planet14_right.png,14,Community 3,NA,TRUE,j,j,NA,NA,NA,1,6,"7,15,12,3,11,6,1,2,9,13,14,10,4,5,8"
14270,commdev-image-keyboard-response,669,1455545,learnblock2,643.4000000357628,img/planet11_right.png,11,Community 1,NA,TRUE,j,j,NA,NA,NA,1,6,"7,15,12,3,11,6,1,2,9,13,14,10,4,5,8"
14270,commdev-image-keyboard-response,670,1456797,learnblock2,749.6999999880791,img/planet14_left.png,14,Community 3,NA,TRUE,f,f,NA,NA,NA,1,6,"7,15,12,3,11,6,1,2,9,13,14,10,4,5,8"
14270,commdev-image-keyboard-response,671,1458049,learnblock2,509.89999997615814,img/planet11_left.png,11,Community 1,NA,TRUE,f,f,NA,NA,NA,1,6,"7,15,12,3,11,6,1,2,9,13,14,10,4,5,8"
14270,commdev-image-keyboard-response,672,1459300,learnblock2,734,img/planet14_right.png,14,Community 3,NA,TRUE,j,j,NA,NA,NA,1,6,"7,15,12,3,11,6,1,2,9,13,14,10,4,5,8"
14270,commdev-image-keyboard-response,673,1460553,learnblock2,536.3999999761581,img/planet8_left.png,8,Community 3,NA,TRUE,f,f,NA,NA,NA,1,6,"7,15,12,3,11,6,1,2,9,13,14,10,4,5,8"
14270,commdev-image-keyboard-response,674,1461805,learnblock2,790.2000000476837,img/planet14_right.png,14,Community 3,NA,TRUE,j,j,NA,NA,NA,1,6,"7,15,12,3,11,6,1,2,9,13,14,10,4,5,8"
14270,commdev-image-keyboard-response,675,1463057,learnblock2,674.1000000238419,img/planet5_right.png,5,Community 3,NA,TRUE,j,j,NA,NA,NA,1,6,"7,15,12,3,11,6,1,2,9,13,14,10,4,5,8"
14270,commdev-image-keyboard-response,676,1464309,learnblock2,694.6999999880791,img/planet8_right.png,8,Community 3,NA,TRUE,j,j,NA,NA,NA,1,6,"7,15,12,3,11,6,1,2,9,13,14,10,4,5,8"
14270,commdev-image-keyboard-response,677,1465561,learnblock2,649.6000000238419,img/planet10_right.png,10,Community 3,NA,TRUE,j,j,NA,NA,NA,1,6,"7,15,12,3,11,6,1,2,9,13,14,10,4,5,8"
14270,commdev-image-keyboard-response,678,1466813,learnblock2,845.8000000119209,img/planet8_left.png,8,Community 3,NA,TRUE,f,f,NA,NA,NA,1,6,"7,15,12,3,11,6,1,2,9,13,14,10,4,5,8"
14270,commdev-image-keyboard-response,679,1468064,learnblock2,639.1000000238419,img/planet10_left.png,10,Community 3,NA,TRUE,f,f,NA,NA,NA,1,6,"7,15,12,3,11,6,1,2,9,13,14,10,4,5,8"
14270,commdev-image-keyboard-response,680,1469316,learnblock2,504.5,img/planet2_right.png,2,Community 2,NA,TRUE,j,j,NA,NA,NA,1,6,"7,15,12,3,11,6,1,2,9,13,14,10,4,5,8"
14270,commdev-image-keyboard-response,681,1470567,learnblock2,504.0999999642372,img/planet10_left.png,10,Community 3,NA,TRUE,f,f,NA,NA,NA,1,6,"7,15,12,3,11,6,1,2,9,13,14,10,4,5,8"
14270,commdev-image-keyboard-response,682,1471819,learnblock2,451.5999999642372,img/planet4_right.png,4,Community 3,NA,TRUE,j,j,NA,NA,NA,1,6,"7,15,12,3,11,6,1,2,9,13,14,10,4,5,8"
14270,commdev-image-keyboard-response,683,1473071,learnblock2,492,img/planet14_right.png,14,Community 3,NA,TRUE,j,j,NA,NA,NA,1,6,"7,15,12,3,11,6,1,2,9,13,14,10,4,5,8"
14270,commdev-image-keyboard-response,684,1474322,learnblock2,640.8000000119209,img/planet4_right.png,4,Community 3,NA,TRUE,j,j,NA,NA,NA,1,6,"7,15,12,3,11,6,1,2,9,13,14,10,4,5,8"
14270,commdev-image-keyboard-response,685,1475574,learnblock2,534.9000000357628,img/planet14_left.png,14,Community 3,NA,FALSE,j,f,NA,NA,NA,1,6,"7,15,12,3,11,6,1,2,9,13,14,10,4,5,8"
14270,commdev-image-keyboard-response,686,1476825,learnblock2,1212.5999999642372,img/planet4_left.png,4,Community 3,NA,TRUE,f,f,NA,NA,NA,1,6,"7,15,12,3,11,6,1,2,9,13,14,10,4,5,8"
14270,commdev-image-keyboard-response,687,1478077,learnblock2,695.5999999642372,img/planet14_right.png,14,Community 3,NA,TRUE,j,j,NA,NA,NA,1,6,"7,15,12,3,11,6,1,2,9,13,14,10,4,5,8"
14270,commdev-image-keyboard-response,688,1479331,learnblock2,690,img/planet5_right.png,5,Community 3,NA,TRUE,j,j,NA,NA,NA,1,6,"7,15,12,3,11,6,1,2,9,13,14,10,4,5,8"
14270,commdev-image-keyboard-response,689,1480584,learnblock2,711,img/planet14_right.png,14,Community 3,NA,TRUE,j,j,NA,NA,NA,1,6,"7,15,12,3,11,6,1,2,9,13,14,10,4,5,8"
14270,commdev-image-keyboard-response,690,1481836,learnblock2,653.8000000119209,img/planet8_left.png,8,Community 3,NA,TRUE,f,f,NA,NA,NA,1,6,"7,15,12,3,11,6,1,2,9,13,14,10,4,5,8"
14270,commdev-image-keyboard-response,691,1483090,learnblock2,625.0999999642372,img/planet14_right.png,14,Community 3,NA,TRUE,j,j,NA,NA,NA,1,6,"7,15,12,3,11,6,1,2,9,13,14,10,4,5,8"
14270,commdev-image-keyboard-response,692,1484343,learnblock2,531,img/planet5_left.png,5,Community 3,NA,TRUE,f,f,NA,NA,NA,1,6,"7,15,12,3,11,6,1,2,9,13,14,10,4,5,8"
14270,commdev-image-keyboard-response,693,1485596,learnblock2,701,img/planet4_left.png,4,Community 3,NA,TRUE,f,f,NA,NA,NA,1,6,"7,15,12,3,11,6,1,2,9,13,14,10,4,5,8"
14270,commdev-image-keyboard-response,694,1486850,learnblock2,576.1999999880791,img/planet5_right.png,5,Community 3,NA,TRUE,j,j,NA,NA,NA,1,6,"7,15,12,3,11,6,1,2,9,13,14,10,4,5,8"
14270,commdev-image-keyboard-response,695,1488103,learnblock2,619.9000000357628,img/planet14_right.png,14,Community 3,NA,TRUE,j,j,NA,NA,NA,1,6,"7,15,12,3,11,6,1,2,9,13,14,10,4,5,8"
14270,commdev-image-keyboard-response,696,1489356,learnblock2,506.4000000357628,img/planet8_left.png,8,Community 3,NA,TRUE,f,f,NA,NA,NA,1,6,"7,15,12,3,11,6,1,2,9,13,14,10,4,5,8"
14270,commdev-image-keyboard-response,697,1490610,learnblock2,576.3000000119209,img/planet4_right.png,4,Community 3,NA,TRUE,j,j,NA,NA,NA,1,6,"7,15,12,3,11,6,1,2,9,13,14,10,4,5,8"
14270,commdev-image-keyboard-response,698,1491864,learnblock2,519.3999999761581,img/planet14_left.png,14,Community 3,NA,TRUE,f,f,NA,NA,NA,1,6,"7,15,12,3,11,6,1,2,9,13,14,10,4,5,8"
14270,commdev-image-keyboard-response,699,1493117,learnblock2,626.5,img/planet8_left.png,8,Community 3,NA,TRUE,f,f,NA,NA,NA,1,6,"7,15,12,3,11,6,1,2,9,13,14,10,4,5,8"
14270,commdev-image-keyboard-response,700,1494370,learnblock2,574.1999999880791,img/planet5_left.png,5,Community 3,NA,TRUE,f,f,NA,NA,NA,1,6,"7,15,12,3,11,6,1,2,9,13,14,10,4,5,8"
14270,commdev-image-keyboard-response,701,1495624,learnblock2,638.8000000119209,img/planet10_right.png,10,Community 3,NA,TRUE,j,j,NA,NA,NA,1,6,"7,15,12,3,11,6,1,2,9,13,14,10,4,5,8"
14270,commdev-image-keyboard-response,702,1496878,learnblock2,718.0999999642372,img/planet5_left.png,5,Community 3,NA,TRUE,f,f,NA,NA,NA,1,6,"7,15,12,3,11,6,1,2,9,13,14,10,4,5,8"
14270,commdev-image-keyboard-response,703,1498131,learnblock2,660.6999999880791,img/planet8_right.png,8,Community 3,NA,TRUE,j,j,NA,NA,NA,1,6,"7,15,12,3,11,6,1,2,9,13,14,10,4,5,8"
14270,commdev-image-keyboard-response,704,1499384,learnblock2,503.80000001192093,img/planet14_left.png,14,Community 3,NA,TRUE,f,f,NA,NA,NA,1,6,"7,15,12,3,11,6,1,2,9,13,14,10,4,5,8"
14270,commdev-image-keyboard-response,705,1500638,learnblock2,586.6000000238419,img/planet8_right.png,8,Community 3,NA,TRUE,j,j,NA,NA,NA,1,6,"7,15,12,3,11,6,1,2,9,13,14,10,4,5,8"
14270,commdev-image-keyboard-response,706,1501891,learnblock2,682.0999999642372,img/planet14_right.png,14,Community 3,NA,TRUE,j,j,NA,NA,NA,1,6,"7,15,12,3,11,6,1,2,9,13,14,10,4,5,8"
14270,commdev-image-keyboard-response,707,1503145,learnblock2,508.30000001192093,img/planet5_left.png,5,Community 3,NA,TRUE,f,f,NA,NA,NA,1,6,"7,15,12,3,11,6,1,2,9,13,14,10,4,5,8"
14270,commdev-image-keyboard-response,708,1504398,learnblock2,778.8000000119209,img/planet4_right.png,4,Community 3,NA,TRUE,j,j,NA,NA,NA,1,6,"7,15,12,3,11,6,1,2,9,13,14,10,4,5,8"
14270,commdev-image-keyboard-response,709,1505650,learnblock2,809.6000000238419,img/planet14_right.png,14,Community 3,NA,TRUE,j,j,NA,NA,NA,1,6,"7,15,12,3,11,6,1,2,9,13,14,10,4,5,8"
14270,commdev-image-keyboard-response,710,1506904,learnblock2,695.5,img/planet5_left.png,5,Community 3,NA,TRUE,f,f,NA,NA,NA,1,6,"7,15,12,3,11,6,1,2,9,13,14,10,4,5,8"
14270,commdev-image-keyboard-response,711,1508158,learnblock2,527.3999999761581,img/planet10_right.png,10,Community 3,NA,TRUE,j,j,NA,NA,NA,1,6,"7,15,12,3,11,6,1,2,9,13,14,10,4,5,8"
14270,commdev-image-keyboard-response,712,1509411,learnblock2,606,img/planet8_right.png,8,Community 3,NA,TRUE,j,j,NA,NA,NA,1,6,"7,15,12,3,11,6,1,2,9,13,14,10,4,5,8"
14270,commdev-image-keyboard-response,713,1510664,learnblock2,552.6999999880791,img/planet14_right.png,14,Community 3,NA,TRUE,j,j,NA,NA,NA,1,6,"7,15,12,3,11,6,1,2,9,13,14,10,4,5,8"
14270,commdev-image-keyboard-response,714,1511917,learnblock2,540.1000000238419,img/planet5_left.png,5,Community 3,NA,TRUE,f,f,NA,NA,NA,1,6,"7,15,12,3,11,6,1,2,9,13,14,10,4,5,8"
14270,commdev-image-keyboard-response,715,1513171,learnblock2,568.7999999523163,img/planet10_left.png,10,Community 3,NA,TRUE,f,f,NA,NA,NA,1,6,"7,15,12,3,11,6,1,2,9,13,14,10,4,5,8"
14270,commdev-image-keyboard-response,716,1514423,learnblock2,453.80000001192093,img/planet4_left.png,4,Community 3,NA,TRUE,f,f,NA,NA,NA,1,6,"7,15,12,3,11,6,1,2,9,13,14,10,4,5,8"
14270,commdev-image-keyboard-response,717,1515677,learnblock2,569.4000000357628,img/planet10_right.png,10,Community 3,NA,TRUE,j,j,NA,NA,NA,1,6,"7,15,12,3,11,6,1,2,9,13,14,10,4,5,8"
14270,commdev-image-keyboard-response,718,1516928,learnblock2,515.4000000357628,img/planet2_left.png,2,Community 2,NA,TRUE,f,f,NA,NA,NA,1,6,"7,15,12,3,11,6,1,2,9,13,14,10,4,5,8"
14270,commdev-image-keyboard-response,719,1518181,learnblock2,504.60000002384186,img/planet13_left.png,13,Community 2,NA,TRUE,f,f,NA,NA,NA,1,6,"7,15,12,3,11,6,1,2,9,13,14,10,4,5,8"
14270,commdev-image-keyboard-response,720,1519434,learnblock2,474.30000001192093,img/planet2_left.png,2,Community 2,NA,TRUE,f,f,NA,NA,NA,1,6,"7,15,12,3,11,6,1,2,9,13,14,10,4,5,8"
14270,commdev-image-keyboard-response,721,1520686,learnblock2,496.80000001192093,img/planet9_left.png,9,Community 2,NA,TRUE,f,f,NA,NA,NA,1,6,"7,15,12,3,11,6,1,2,9,13,14,10,4,5,8"
14270,commdev-image-keyboard-response,722,1521939,learnblock2,590,img/planet1_right.png,1,Community 2,NA,TRUE,j,j,NA,NA,NA,1,6,"7,15,12,3,11,6,1,2,9,13,14,10,4,5,8"
14270,commdev-image-keyboard-response,723,1523192,learnblock2,542,img/planet2_right.png,2,Community 2,NA,TRUE,j,j,NA,NA,NA,1,6,"7,15,12,3,11,6,1,2,9,13,14,10,4,5,8"
14270,commdev-image-keyboard-response,724,1524446,learnblock2,648.1000000238419,img/planet10_right.png,10,Community 3,NA,TRUE,j,j,NA,NA,NA,1,6,"7,15,12,3,11,6,1,2,9,13,14,10,4,5,8"
14270,commdev-image-keyboard-response,725,1525699,learnblock2,604.8000000119209,img/planet4_left.png,4,Community 3,NA,TRUE,f,f,NA,NA,NA,1,6,"7,15,12,3,11,6,1,2,9,13,14,10,4,5,8"
14270,commdev-image-keyboard-response,726,1526952,learnblock2,528.5,img/planet5_right.png,5,Community 3,NA,TRUE,j,j,NA,NA,NA,1,6,"7,15,12,3,11,6,1,2,9,13,14,10,4,5,8"
