subject_id,trial_type,trial_index,time_elapsed,block,rt,stimulus,planet,community,response,correct,key_press,learning_correct_response,parse,init_locations,final_locations,browser_interactions,num_comp,planet_map
14969,commdev-instructions,7,35267,NA,3020,"<p>In this game, you will be shown a 3x3 grid of patterns.</p> <p>The last one in the bottom right-hand corner, <strong>will be missing:</strong></p> <div style='width: 700px;'><div style='float: top;'><img style='width: 200px;' src='practice/p1_M1.png'></img><p class='small'>You need to select<strong> which of the four possible patterns </strong>along the bottom<strong> fits into the gap:</strong></p></div><div style='float: top;'><img style='width: 300px;' src='practice/p1_T1.png'></img></div><br>",NA,NA,NA,NA,NA,NA,NA,NA,NA,1,6,"14,10,3,12,11,5,9,6,2,1,7,4,15,8,13"
14969,commdev-instructions,8,54115,NA,738,"<p>Try to be as fast and as accurate as you can be.</p> <p>If you cannot solve the puzzle then you should guess - you will not be penalised for an incorrect answer.</p> <p>The task contains a shuffled mix of easy, medium and hard puzzles.</p> <p>You will have <strong>30 seconds</strong> to complete each puzzle.</p><br>",NA,NA,NA,NA,NA,NA,NA,NA,NA,1,6,"14,10,3,12,11,5,9,6,2,1,7,4,15,8,13"
14969,commdev-instructions,15,77089,NA,1140,<p><strong>Success!</strong></p> <p>You seem to be getting the hang of this...</p> <p>Let's move on to the real trials.</p><br>,NA,NA,NA,NA,NA,NA,NA,NA,NA,1,6,"14,10,3,12,11,5,9,6,2,1,7,4,15,8,13"
14969,commdev-instructions,178,557181,NA,NA,NA,NA,NA,NA,NA,NA,NA,NA,NA,NA,1,6,"14,10,3,12,11,5,9,6,2,1,7,4,15,8,13"
14969,commdev-instructions,190,653962,NA,2126.9999999998836,"<p>Great, now try a short practice mission. </p><p> This time, you will have 1 second to respond and you won't know whether you pressed the right or wrong key for each planet.</p>",NA,NA,NA,NA,NA,NA,NA,NA,NA,1,6,"14,10,3,12,11,5,9,6,2,1,7,4,15,8,13"
14969,commdev-image-keyboard-response,191,655316,practice,1107,img/practice4_right.png,NA,Number not found in mappings,NA,TRUE,j,j,NA,NA,NA,1,6,"14,10,3,12,11,5,9,6,2,1,7,4,15,8,13"
14969,commdev-image-keyboard-response,192,656568,practice,863,img/practice3_right.png,NA,Number not found in mappings,NA,TRUE,j,j,NA,NA,NA,1,6,"14,10,3,12,11,5,9,6,2,1,7,4,15,8,13"
14969,commdev-image-keyboard-response,193,657820,practice,544,img/practice1_right.png,NA,Number not found in mappings,NA,TRUE,j,j,NA,NA,NA,1,6,"14,10,3,12,11,5,9,6,2,1,7,4,15,8,13"
14969,commdev-image-keyboard-response,194,659072,practice,525,img/practice2_left.png,NA,Number not found in mappings,NA,TRUE,f,f,NA,NA,NA,1,6,"14,10,3,12,11,5,9,6,2,1,7,4,15,8,13"
14969,commdev-image-keyboard-response,195,660324,practice,530,img/practice4_right.png,NA,Number not found in mappings,NA,TRUE,j,j,NA,NA,NA,1,6,"14,10,3,12,11,5,9,6,2,1,7,4,15,8,13"
14969,commdev-image-keyboard-response,196,661576,practice,743,img/practice2_right.png,NA,Number not found in mappings,NA,TRUE,j,j,NA,NA,NA,1,6,"14,10,3,12,11,5,9,6,2,1,7,4,15,8,13"
14969,commdev-image-keyboard-response,197,662828,practice,601,img/practice1_right.png,NA,Number not found in mappings,NA,TRUE,j,j,NA,NA,NA,1,6,"14,10,3,12,11,5,9,6,2,1,7,4,15,8,13"
14969,commdev-image-keyboard-response,198,664080,practice,458,img/practice2_left.png,NA,Number not found in mappings,NA,FALSE,j,f,NA,NA,NA,1,6,"14,10,3,12,11,5,9,6,2,1,7,4,15,8,13"
14969,commdev-instructions,199,674112,NA,480,"<p>Great job with the practice round.</p><p>During real missions, you won't know whether you pressed the right or wrong key for each planet.</p><p>But between missions, we will tell you how you did overall.</p>",NA,NA,NA,NA,NA,NA,NA,NA,NA,1,6,"14,10,3,12,11,5,9,6,2,1,7,4,15,8,13"
14969,commdev-instructions,200,682965,NA,616,<p>Try your best! You will be paid a bonus based on how many correct responses you make!</p><p>Responses that are too slow will not count toward your bonus.</p>,NA,NA,NA,NA,NA,NA,NA,NA,NA,1,6,"14,10,3,12,11,5,9,6,2,1,7,4,15,8,13"
14969,commdev-instructions,201,689596,NA,433,"<p>You are almost ready to start the real game.</p><p> First, we are going to ask you some questions about how the game works.</p>",NA,NA,NA,NA,NA,NA,NA,NA,NA,1,6,"14,10,3,12,11,5,9,6,2,1,7,4,15,8,13"
14969,commdev-instructions,210,768202,NA,1018.0000000001164,"<p> Nice work! It is now time to start the real game.<p></p>You will go on two missions to record wind directions of different planets.<p></p>Each one will take about 5 minutes. You will get to take a break between missions.<p><p> Remember, press <strong>F</strong> or <strong>J</strong> depending on the wind direction. Good luck!<br><img src=""img/categorize_planet_example.png""",NA,NA,NA,NA,NA,NA,NA,NA,NA,1,6,"14,10,3,12,11,5,9,6,2,1,7,4,15,8,13"
14969,commdev-image-keyboard-response,212,771533,learnblock1,982,img/planet1_right.png,1,Community 2,NA,TRUE,j,j,NA,NA,NA,1,6,"14,10,3,12,11,5,9,6,2,1,7,4,15,8,13"
14969,commdev-image-keyboard-response,213,772784,learnblock1,616,img/planet9_left.png,9,Community 2,NA,TRUE,f,f,NA,NA,NA,1,6,"14,10,3,12,11,5,9,6,2,1,7,4,15,8,13"
14969,commdev-image-keyboard-response,214,774036,learnblock1,575,img/planet1_right.png,1,Community 2,NA,TRUE,j,j,NA,NA,NA,1,6,"14,10,3,12,11,5,9,6,2,1,7,4,15,8,13"
14969,commdev-image-keyboard-response,215,775288,learnblock1,624,img/planet9_right.png,9,Community 2,NA,TRUE,j,j,NA,NA,NA,1,6,"14,10,3,12,11,5,9,6,2,1,7,4,15,8,13"
14969,commdev-image-keyboard-response,216,776539,learnblock1,591,img/planet2_right.png,2,Community 2,NA,TRUE,j,j,NA,NA,NA,1,6,"14,10,3,12,11,5,9,6,2,1,7,4,15,8,13"
14969,commdev-image-keyboard-response,217,777791,learnblock1,556,img/planet5_right.png,5,Community 2,NA,TRUE,j,j,NA,NA,NA,1,6,"14,10,3,12,11,5,9,6,2,1,7,4,15,8,13"
14969,commdev-image-keyboard-response,218,779043,learnblock1,525,img/planet2_right.png,2,Community 2,NA,TRUE,j,j,NA,NA,NA,1,6,"14,10,3,12,11,5,9,6,2,1,7,4,15,8,13"
14969,commdev-image-keyboard-response,219,780295,learnblock1,649,img/planet5_left.png,5,Community 2,NA,TRUE,f,f,NA,NA,NA,1,6,"14,10,3,12,11,5,9,6,2,1,7,4,15,8,13"
14969,commdev-image-keyboard-response,220,781547,learnblock1,493.0000000001164,img/planet1_left.png,1,Community 2,NA,TRUE,f,f,NA,NA,NA,1,6,"14,10,3,12,11,5,9,6,2,1,7,4,15,8,13"
14969,commdev-image-keyboard-response,221,782799,learnblock1,566,img/planet5_left.png,5,Community 2,NA,TRUE,f,f,NA,NA,NA,1,6,"14,10,3,12,11,5,9,6,2,1,7,4,15,8,13"
14969,commdev-image-keyboard-response,222,784051,learnblock1,532.0000000001164,img/planet1_left.png,1,Community 2,NA,TRUE,f,f,NA,NA,NA,1,6,"14,10,3,12,11,5,9,6,2,1,7,4,15,8,13"
14969,commdev-image-keyboard-response,223,785302,learnblock1,750,img/planet5_left.png,5,Community 2,NA,TRUE,f,f,NA,NA,NA,1,6,"14,10,3,12,11,5,9,6,2,1,7,4,15,8,13"
14969,commdev-image-keyboard-response,224,786554,learnblock1,507.9999999998836,img/planet2_left.png,2,Community 2,NA,TRUE,f,f,NA,NA,NA,1,6,"14,10,3,12,11,5,9,6,2,1,7,4,15,8,13"
14969,commdev-image-keyboard-response,225,787806,learnblock1,588,img/planet5_left.png,5,Community 2,NA,TRUE,f,f,NA,NA,NA,1,6,"14,10,3,12,11,5,9,6,2,1,7,4,15,8,13"
14969,commdev-image-keyboard-response,226,789058,learnblock1,546,img/planet2_right.png,2,Community 2,NA,TRUE,j,j,NA,NA,NA,1,6,"14,10,3,12,11,5,9,6,2,1,7,4,15,8,13"
14969,commdev-image-keyboard-response,227,790310,learnblock1,596,img/planet1_left.png,1,Community 2,NA,TRUE,f,f,NA,NA,NA,1,6,"14,10,3,12,11,5,9,6,2,1,7,4,15,8,13"
14969,commdev-image-keyboard-response,228,791562,learnblock1,632,img/planet2_right.png,2,Community 2,NA,TRUE,j,j,NA,NA,NA,1,6,"14,10,3,12,11,5,9,6,2,1,7,4,15,8,13"
14969,commdev-image-keyboard-response,229,792814,learnblock1,572.9999999998836,img/planet5_left.png,5,Community 2,NA,TRUE,f,f,NA,NA,NA,1,6,"14,10,3,12,11,5,9,6,2,1,7,4,15,8,13"
14969,commdev-image-keyboard-response,230,794066,learnblock1,513,img/planet1_right.png,1,Community 2,NA,TRUE,j,j,NA,NA,NA,1,6,"14,10,3,12,11,5,9,6,2,1,7,4,15,8,13"
14969,commdev-image-keyboard-response,231,795318,learnblock1,506,img/planet5_left.png,5,Community 2,NA,TRUE,f,f,NA,NA,NA,1,6,"14,10,3,12,11,5,9,6,2,1,7,4,15,8,13"
14969,commdev-image-keyboard-response,232,796570,learnblock1,460.0000000001164,img/planet9_right.png,9,Community 2,NA,FALSE,f,j,NA,NA,NA,1,6,"14,10,3,12,11,5,9,6,2,1,7,4,15,8,13"
14969,commdev-image-keyboard-response,233,797822,learnblock1,600,img/planet2_left.png,2,Community 2,NA,TRUE,f,f,NA,NA,NA,1,6,"14,10,3,12,11,5,9,6,2,1,7,4,15,8,13"
14969,commdev-image-keyboard-response,234,799074,learnblock1,584,img/planet1_right.png,1,Community 2,NA,TRUE,j,j,NA,NA,NA,1,6,"14,10,3,12,11,5,9,6,2,1,7,4,15,8,13"
14969,commdev-image-keyboard-response,235,800325,learnblock1,562,img/planet5_left.png,5,Community 2,NA,TRUE,f,f,NA,NA,NA,1,6,"14,10,3,12,11,5,9,6,2,1,7,4,15,8,13"
14969,commdev-image-keyboard-response,236,801576,learnblock1,876.0000000001164,img/planet12_left.png,12,Community 1,NA,TRUE,f,f,NA,NA,NA,1,6,"14,10,3,12,11,5,9,6,2,1,7,4,15,8,13"
14969,commdev-image-keyboard-response,237,802829,learnblock1,753,img/planet14_left.png,14,Community 1,NA,TRUE,f,f,NA,NA,NA,1,6,"14,10,3,12,11,5,9,6,2,1,7,4,15,8,13"
14969,commdev-image-keyboard-response,238,804080,learnblock1,703,img/planet11_right.png,11,Community 1,NA,TRUE,j,j,NA,NA,NA,1,6,"14,10,3,12,11,5,9,6,2,1,7,4,15,8,13"
14969,commdev-image-keyboard-response,239,805331,learnblock1,648,img/planet10_left.png,10,Community 1,NA,TRUE,f,f,NA,NA,NA,1,6,"14,10,3,12,11,5,9,6,2,1,7,4,15,8,13"
14969,commdev-image-keyboard-response,240,806583,learnblock1,727.9999999998836,img/planet3_right.png,3,Community 1,NA,TRUE,j,j,NA,NA,NA,1,6,"14,10,3,12,11,5,9,6,2,1,7,4,15,8,13"
14969,commdev-image-keyboard-response,241,807835,learnblock1,550.0000000001164,img/planet12_left.png,12,Community 1,NA,TRUE,f,f,NA,NA,NA,1,6,"14,10,3,12,11,5,9,6,2,1,7,4,15,8,13"
14969,commdev-image-keyboard-response,242,809087,learnblock1,503,img/planet10_right.png,10,Community 1,NA,TRUE,j,j,NA,NA,NA,1,6,"14,10,3,12,11,5,9,6,2,1,7,4,15,8,13"
14969,commdev-image-keyboard-response,243,810339,learnblock1,586,img/planet12_right.png,12,Community 1,NA,TRUE,j,j,NA,NA,NA,1,6,"14,10,3,12,11,5,9,6,2,1,7,4,15,8,13"
14969,commdev-image-keyboard-response,244,811591,learnblock1,714,img/planet14_right.png,14,Community 1,NA,TRUE,j,j,NA,NA,NA,1,6,"14,10,3,12,11,5,9,6,2,1,7,4,15,8,13"
14969,commdev-image-keyboard-response,245,812843,learnblock1,570,img/planet10_right.png,10,Community 1,NA,TRUE,j,j,NA,NA,NA,1,6,"14,10,3,12,11,5,9,6,2,1,7,4,15,8,13"
14969,commdev-image-keyboard-response,246,814095,learnblock1,664,img/planet3_left.png,3,Community 1,NA,TRUE,f,f,NA,NA,NA,1,6,"14,10,3,12,11,5,9,6,2,1,7,4,15,8,13"
14969,commdev-image-keyboard-response,247,815347,learnblock1,1129.0000000001164,img/planet10_right.png,10,Community 1,NA,TRUE,j,j,NA,NA,NA,1,6,"14,10,3,12,11,5,9,6,2,1,7,4,15,8,13"
14969,commdev-image-keyboard-response,248,816598,learnblock1,618,img/planet14_left.png,14,Community 1,NA,TRUE,f,f,NA,NA,NA,1,6,"14,10,3,12,11,5,9,6,2,1,7,4,15,8,13"
14969,commdev-image-keyboard-response,249,817850,learnblock1,568,img/planet3_right.png,3,Community 1,NA,TRUE,j,j,NA,NA,NA,1,6,"14,10,3,12,11,5,9,6,2,1,7,4,15,8,13"
14969,commdev-image-keyboard-response,250,819102,learnblock1,674,img/planet10_right.png,10,Community 1,NA,TRUE,j,j,NA,NA,NA,1,6,"14,10,3,12,11,5,9,6,2,1,7,4,15,8,13"
14969,commdev-image-keyboard-response,251,820354,learnblock1,618,img/planet14_right.png,14,Community 1,NA,TRUE,j,j,NA,NA,NA,1,6,"14,10,3,12,11,5,9,6,2,1,7,4,15,8,13"
14969,commdev-image-keyboard-response,252,821606,learnblock1,640.9999999998836,img/planet12_left.png,12,Community 1,NA,TRUE,f,f,NA,NA,NA,1,6,"14,10,3,12,11,5,9,6,2,1,7,4,15,8,13"
14969,commdev-image-keyboard-response,253,822858,learnblock1,583,img/planet10_right.png,10,Community 1,NA,TRUE,j,j,NA,NA,NA,1,6,"14,10,3,12,11,5,9,6,2,1,7,4,15,8,13"
14969,commdev-image-keyboard-response,254,824110,learnblock1,666,img/planet11_left.png,11,Community 1,NA,TRUE,f,f,NA,NA,NA,1,6,"14,10,3,12,11,5,9,6,2,1,7,4,15,8,13"
14969,commdev-image-keyboard-response,255,825362,learnblock1,530.9999999998836,img/planet7_left.png,7,Community 3,NA,TRUE,f,f,NA,NA,NA,1,6,"14,10,3,12,11,5,9,6,2,1,7,4,15,8,13"
14969,commdev-image-keyboard-response,256,826614,learnblock1,554,img/planet15_left.png,15,Community 3,NA,TRUE,f,f,NA,NA,NA,1,6,"14,10,3,12,11,5,9,6,2,1,7,4,15,8,13"
14969,commdev-image-keyboard-response,257,827866,learnblock1,535,img/planet13_right.png,13,Community 3,NA,FALSE,f,j,NA,NA,NA,1,6,"14,10,3,12,11,5,9,6,2,1,7,4,15,8,13"
14969,commdev-image-keyboard-response,258,829120,learnblock1,887,img/planet7_left.png,7,Community 3,NA,TRUE,f,f,NA,NA,NA,1,6,"14,10,3,12,11,5,9,6,2,1,7,4,15,8,13"
14969,commdev-image-keyboard-response,259,830372,learnblock1,673,img/planet8_left.png,8,Community 3,NA,TRUE,f,f,NA,NA,NA,1,6,"14,10,3,12,11,5,9,6,2,1,7,4,15,8,13"
14969,commdev-image-keyboard-response,260,831624,learnblock1,666,img/planet4_left.png,4,Community 3,NA,TRUE,f,f,NA,NA,NA,1,6,"14,10,3,12,11,5,9,6,2,1,7,4,15,8,13"
14969,commdev-image-keyboard-response,261,832877,learnblock1,612,img/planet15_left.png,15,Community 3,NA,TRUE,f,f,NA,NA,NA,1,6,"14,10,3,12,11,5,9,6,2,1,7,4,15,8,13"
14969,commdev-image-keyboard-response,262,834128,learnblock1,628,img/planet4_left.png,4,Community 3,NA,TRUE,f,f,NA,NA,NA,1,6,"14,10,3,12,11,5,9,6,2,1,7,4,15,8,13"
14969,commdev-image-keyboard-response,263,835380,learnblock1,627.9999999998836,img/planet13_left.png,13,Community 3,NA,TRUE,f,f,NA,NA,NA,1,6,"14,10,3,12,11,5,9,6,2,1,7,4,15,8,13"
14969,commdev-image-keyboard-response,264,836632,learnblock1,685,img/planet15_right.png,15,Community 3,NA,TRUE,j,j,NA,NA,NA,1,6,"14,10,3,12,11,5,9,6,2,1,7,4,15,8,13"
14969,commdev-image-keyboard-response,265,837883,learnblock1,678,img/planet7_left.png,7,Community 3,NA,TRUE,f,f,NA,NA,NA,1,6,"14,10,3,12,11,5,9,6,2,1,7,4,15,8,13"
14969,commdev-image-keyboard-response,266,839135,learnblock1,630.9999999998836,img/planet15_right.png,15,Community 3,NA,TRUE,j,j,NA,NA,NA,1,6,"14,10,3,12,11,5,9,6,2,1,7,4,15,8,13"
14969,commdev-image-keyboard-response,267,840387,learnblock1,588,img/planet4_right.png,4,Community 3,NA,TRUE,j,j,NA,NA,NA,1,6,"14,10,3,12,11,5,9,6,2,1,7,4,15,8,13"
14969,commdev-image-keyboard-response,268,841640,learnblock1,647,img/planet15_right.png,15,Community 3,NA,TRUE,j,j,NA,NA,NA,1,6,"14,10,3,12,11,5,9,6,2,1,7,4,15,8,13"
14969,commdev-image-keyboard-response,269,842891,learnblock1,764,img/planet13_right.png,13,Community 3,NA,TRUE,j,j,NA,NA,NA,1,6,"14,10,3,12,11,5,9,6,2,1,7,4,15,8,13"
14969,commdev-image-keyboard-response,270,844143,learnblock1,669,img/planet8_right.png,8,Community 3,NA,TRUE,j,j,NA,NA,NA,1,6,"14,10,3,12,11,5,9,6,2,1,7,4,15,8,13"
14969,commdev-image-keyboard-response,271,845395,learnblock1,596,img/planet4_right.png,4,Community 3,NA,TRUE,j,j,NA,NA,NA,1,6,"14,10,3,12,11,5,9,6,2,1,7,4,15,8,13"
14969,commdev-image-keyboard-response,272,846647,learnblock1,875,img/planet8_left.png,8,Community 3,NA,TRUE,f,f,NA,NA,NA,1,6,"14,10,3,12,11,5,9,6,2,1,7,4,15,8,13"
14969,commdev-image-keyboard-response,273,847899,learnblock1,578,img/planet15_left.png,15,Community 3,NA,TRUE,f,f,NA,NA,NA,1,6,"14,10,3,12,11,5,9,6,2,1,7,4,15,8,13"
14969,commdev-image-keyboard-response,274,849151,learnblock1,562,img/planet8_left.png,8,Community 3,NA,TRUE,f,f,NA,NA,NA,1,6,"14,10,3,12,11,5,9,6,2,1,7,4,15,8,13"
14969,commdev-image-keyboard-response,275,850403,learnblock1,617.9999999998836,img/planet15_right.png,15,Community 3,NA,TRUE,j,j,NA,NA,NA,1,6,"14,10,3,12,11,5,9,6,2,1,7,4,15,8,13"
14969,commdev-image-keyboard-response,276,851655,learnblock1,539,img/planet8_right.png,8,Community 3,NA,TRUE,j,j,NA,NA,NA,1,6,"14,10,3,12,11,5,9,6,2,1,7,4,15,8,13"
14969,commdev-image-keyboard-response,277,852907,learnblock1,638,img/planet13_right.png,13,Community 3,NA,TRUE,j,j,NA,NA,NA,1,6,"14,10,3,12,11,5,9,6,2,1,7,4,15,8,13"
14969,commdev-image-keyboard-response,278,854159,learnblock1,585.9999999998836,img/planet8_right.png,8,Community 3,NA,TRUE,j,j,NA,NA,NA,1,6,"14,10,3,12,11,5,9,6,2,1,7,4,15,8,13"
14969,commdev-image-keyboard-response,279,855411,learnblock1,779,img/planet15_left.png,15,Community 3,NA,TRUE,f,f,NA,NA,NA,1,6,"14,10,3,12,11,5,9,6,2,1,7,4,15,8,13"
14969,commdev-image-keyboard-response,280,856664,learnblock1,541.9999999998836,img/planet4_left.png,4,Community 3,NA,TRUE,f,f,NA,NA,NA,1,6,"14,10,3,12,11,5,9,6,2,1,7,4,15,8,13"
14969,commdev-image-keyboard-response,281,857917,learnblock1,612.0000000001164,img/planet8_left.png,8,Community 3,NA,TRUE,f,f,NA,NA,NA,1,6,"14,10,3,12,11,5,9,6,2,1,7,4,15,8,13"
14969,commdev-image-keyboard-response,282,859168,learnblock1,598,img/planet15_left.png,15,Community 3,NA,TRUE,f,f,NA,NA,NA,1,6,"14,10,3,12,11,5,9,6,2,1,7,4,15,8,13"
14969,commdev-image-keyboard-response,283,860420,learnblock1,804,img/planet4_right.png,4,Community 3,NA,TRUE,j,j,NA,NA,NA,1,6,"14,10,3,12,11,5,9,6,2,1,7,4,15,8,13"
14969,commdev-image-keyboard-response,284,861672,learnblock1,691,img/planet15_right.png,15,Community 3,NA,TRUE,j,j,NA,NA,NA,1,6,"14,10,3,12,11,5,9,6,2,1,7,4,15,8,13"
14969,commdev-image-keyboard-response,285,862924,learnblock1,778,img/planet7_right.png,7,Community 3,NA,TRUE,j,j,NA,NA,NA,1,6,"14,10,3,12,11,5,9,6,2,1,7,4,15,8,13"
14969,commdev-image-keyboard-response,286,864177,learnblock1,805,img/planet11_left.png,11,Community 1,NA,TRUE,f,f,NA,NA,NA,1,6,"14,10,3,12,11,5,9,6,2,1,7,4,15,8,13"
14969,commdev-image-keyboard-response,287,865428,learnblock1,589,img/planet10_left.png,10,Community 1,NA,TRUE,f,f,NA,NA,NA,1,6,"14,10,3,12,11,5,9,6,2,1,7,4,15,8,13"
14969,commdev-image-keyboard-response,288,866680,learnblock1,637,img/planet11_right.png,11,Community 1,NA,TRUE,j,j,NA,NA,NA,1,6,"14,10,3,12,11,5,9,6,2,1,7,4,15,8,13"
14969,commdev-image-keyboard-response,289,867933,learnblock1,596,img/planet10_right.png,10,Community 1,NA,TRUE,j,j,NA,NA,NA,1,6,"14,10,3,12,11,5,9,6,2,1,7,4,15,8,13"
14969,commdev-image-keyboard-response,290,869185,learnblock1,532,img/planet12_right.png,12,Community 1,NA,TRUE,j,j,NA,NA,NA,1,6,"14,10,3,12,11,5,9,6,2,1,7,4,15,8,13"
14969,commdev-image-keyboard-response,291,870436,learnblock1,655,img/planet14_right.png,14,Community 1,NA,TRUE,j,j,NA,NA,NA,1,6,"14,10,3,12,11,5,9,6,2,1,7,4,15,8,13"
14969,commdev-image-keyboard-response,292,871688,learnblock1,700.9999999998836,img/planet11_left.png,11,Community 1,NA,TRUE,f,f,NA,NA,NA,1,6,"14,10,3,12,11,5,9,6,2,1,7,4,15,8,13"
14969,commdev-image-keyboard-response,293,872939,learnblock1,664,img/planet7_right.png,7,Community 3,NA,TRUE,j,j,NA,NA,NA,1,6,"14,10,3,12,11,5,9,6,2,1,7,4,15,8,13"
14969,commdev-image-keyboard-response,294,874191,learnblock1,625,img/planet13_right.png,13,Community 3,NA,TRUE,j,j,NA,NA,NA,1,6,"14,10,3,12,11,5,9,6,2,1,7,4,15,8,13"
14969,commdev-image-keyboard-response,295,875443,learnblock1,616,img/planet8_right.png,8,Community 3,NA,TRUE,j,j,NA,NA,NA,1,6,"14,10,3,12,11,5,9,6,2,1,7,4,15,8,13"
14969,commdev-image-keyboard-response,296,876695,learnblock1,840,img/planet15_left.png,15,Community 3,NA,TRUE,f,f,NA,NA,NA,1,6,"14,10,3,12,11,5,9,6,2,1,7,4,15,8,13"
14969,commdev-image-keyboard-response,297,877947,learnblock1,706,img/planet7_right.png,7,Community 3,NA,TRUE,j,j,NA,NA,NA,1,6,"14,10,3,12,11,5,9,6,2,1,7,4,15,8,13"
14969,commdev-image-keyboard-response,298,879199,learnblock1,721,img/planet15_left.png,15,Community 3,NA,FALSE,j,f,NA,NA,NA,1,6,"14,10,3,12,11,5,9,6,2,1,7,4,15,8,13"
14969,commdev-image-keyboard-response,299,880451,learnblock1,775,img/planet4_right.png,4,Community 3,NA,TRUE,j,j,NA,NA,NA,1,6,"14,10,3,12,11,5,9,6,2,1,7,4,15,8,13"
14969,commdev-image-keyboard-response,300,881703,learnblock1,597,img/planet8_right.png,8,Community 3,NA,TRUE,j,j,NA,NA,NA,1,6,"14,10,3,12,11,5,9,6,2,1,7,4,15,8,13"
14969,commdev-image-keyboard-response,301,882955,learnblock1,570,img/planet13_right.png,13,Community 3,NA,TRUE,j,j,NA,NA,NA,1,6,"14,10,3,12,11,5,9,6,2,1,7,4,15,8,13"
14969,commdev-image-keyboard-response,302,884207,learnblock1,681,img/planet8_left.png,8,Community 3,NA,TRUE,f,f,NA,NA,NA,1,6,"14,10,3,12,11,5,9,6,2,1,7,4,15,8,13"
14969,commdev-image-keyboard-response,303,885459,learnblock1,709,img/planet7_right.png,7,Community 3,NA,TRUE,j,j,NA,NA,NA,1,6,"14,10,3,12,11,5,9,6,2,1,7,4,15,8,13"
14969,commdev-image-keyboard-response,304,886712,learnblock1,438,img/planet15_left.png,15,Community 3,NA,FALSE,j,f,NA,NA,NA,1,6,"14,10,3,12,11,5,9,6,2,1,7,4,15,8,13"
14969,commdev-image-keyboard-response,305,887965,learnblock1,667,img/planet4_right.png,4,Community 3,NA,TRUE,j,j,NA,NA,NA,1,6,"14,10,3,12,11,5,9,6,2,1,7,4,15,8,13"
14969,commdev-image-keyboard-response,306,889217,learnblock1,662,img/planet6_right.png,6,Community 2,NA,TRUE,j,j,NA,NA,NA,1,6,"14,10,3,12,11,5,9,6,2,1,7,4,15,8,13"
14969,commdev-image-keyboard-response,307,890468,learnblock1,494,img/planet2_right.png,2,Community 2,NA,TRUE,j,j,NA,NA,NA,1,6,"14,10,3,12,11,5,9,6,2,1,7,4,15,8,13"
14969,commdev-image-keyboard-response,308,891721,learnblock1,470,img/planet1_left.png,1,Community 2,NA,FALSE,j,f,NA,NA,NA,1,6,"14,10,3,12,11,5,9,6,2,1,7,4,15,8,13"
14969,commdev-image-keyboard-response,309,892973,learnblock1,658,img/planet5_left.png,5,Community 2,NA,TRUE,f,f,NA,NA,NA,1,6,"14,10,3,12,11,5,9,6,2,1,7,4,15,8,13"
14969,commdev-image-keyboard-response,310,894225,learnblock1,554.9999999998836,img/planet1_left.png,1,Community 2,NA,TRUE,f,f,NA,NA,NA,1,6,"14,10,3,12,11,5,9,6,2,1,7,4,15,8,13"
14969,commdev-image-keyboard-response,311,895476,learnblock1,633.0000000001164,img/planet9_left.png,9,Community 2,NA,TRUE,f,f,NA,NA,NA,1,6,"14,10,3,12,11,5,9,6,2,1,7,4,15,8,13"
14969,commdev-image-keyboard-response,312,896728,learnblock1,496,img/planet1_right.png,1,Community 2,NA,TRUE,j,j,NA,NA,NA,1,6,"14,10,3,12,11,5,9,6,2,1,7,4,15,8,13"
14969,commdev-image-keyboard-response,313,897981,learnblock1,644,img/planet6_left.png,6,Community 2,NA,TRUE,f,f,NA,NA,NA,1,6,"14,10,3,12,11,5,9,6,2,1,7,4,15,8,13"
14969,commdev-image-keyboard-response,314,899233,learnblock1,514,img/planet1_left.png,1,Community 2,NA,TRUE,f,f,NA,NA,NA,1,6,"14,10,3,12,11,5,9,6,2,1,7,4,15,8,13"
14969,commdev-image-keyboard-response,315,900484,learnblock1,670.9999999998836,img/planet2_right.png,2,Community 2,NA,TRUE,j,j,NA,NA,NA,1,6,"14,10,3,12,11,5,9,6,2,1,7,4,15,8,13"
14969,commdev-image-keyboard-response,316,901736,learnblock1,529,img/planet9_left.png,9,Community 2,NA,TRUE,f,f,NA,NA,NA,1,6,"14,10,3,12,11,5,9,6,2,1,7,4,15,8,13"
14969,commdev-image-keyboard-response,317,902989,learnblock1,673,img/planet5_left.png,5,Community 2,NA,TRUE,f,f,NA,NA,NA,1,6,"14,10,3,12,11,5,9,6,2,1,7,4,15,8,13"
14969,commdev-image-keyboard-response,318,904241,learnblock1,487,img/planet12_right.png,12,Community 1,NA,TRUE,j,j,NA,NA,NA,1,6,"14,10,3,12,11,5,9,6,2,1,7,4,15,8,13"
14969,commdev-image-keyboard-response,319,905493,learnblock1,590,img/planet5_left.png,5,Community 2,NA,TRUE,f,f,NA,NA,NA,1,6,"14,10,3,12,11,5,9,6,2,1,7,4,15,8,13"
14969,commdev-image-keyboard-response,320,906745,learnblock1,554,img/planet12_left.png,12,Community 1,NA,TRUE,f,f,NA,NA,NA,1,6,"14,10,3,12,11,5,9,6,2,1,7,4,15,8,13"
14969,commdev-image-keyboard-response,321,907997,learnblock1,644,img/planet5_left.png,5,Community 2,NA,TRUE,f,f,NA,NA,NA,1,6,"14,10,3,12,11,5,9,6,2,1,7,4,15,8,13"
14969,commdev-image-keyboard-response,322,909249,learnblock1,567.9999999998836,img/planet2_left.png,2,Community 2,NA,TRUE,f,f,NA,NA,NA,1,6,"14,10,3,12,11,5,9,6,2,1,7,4,15,8,13"
14969,commdev-image-keyboard-response,323,910501,learnblock1,524,img/planet5_right.png,5,Community 2,NA,TRUE,j,j,NA,NA,NA,1,6,"14,10,3,12,11,5,9,6,2,1,7,4,15,8,13"
14969,commdev-image-keyboard-response,324,911753,learnblock1,665.9999999998836,img/planet12_right.png,12,Community 1,NA,TRUE,j,j,NA,NA,NA,1,6,"14,10,3,12,11,5,9,6,2,1,7,4,15,8,13"
14969,commdev-image-keyboard-response,325,913005,learnblock1,546,img/planet5_left.png,5,Community 2,NA,TRUE,f,f,NA,NA,NA,1,6,"14,10,3,12,11,5,9,6,2,1,7,4,15,8,13"
14969,commdev-image-keyboard-response,326,914257,learnblock1,605,img/planet9_right.png,9,Community 2,NA,TRUE,j,j,NA,NA,NA,1,6,"14,10,3,12,11,5,9,6,2,1,7,4,15,8,13"
14969,commdev-image-keyboard-response,327,915509,learnblock1,692.9999999998836,img/planet6_right.png,6,Community 2,NA,TRUE,j,j,NA,NA,NA,1,6,"14,10,3,12,11,5,9,6,2,1,7,4,15,8,13"
14969,commdev-image-keyboard-response,328,916761,learnblock1,706,img/planet4_right.png,4,Community 3,NA,TRUE,j,j,NA,NA,NA,1,6,"14,10,3,12,11,5,9,6,2,1,7,4,15,8,13"
14969,commdev-image-keyboard-response,329,918013,learnblock1,698.0000000001164,img/planet13_right.png,13,Community 3,NA,TRUE,j,j,NA,NA,NA,1,6,"14,10,3,12,11,5,9,6,2,1,7,4,15,8,13"
14969,commdev-image-keyboard-response,330,919265,learnblock1,856,img/planet7_left.png,7,Community 3,NA,TRUE,f,f,NA,NA,NA,1,6,"14,10,3,12,11,5,9,6,2,1,7,4,15,8,13"
14969,commdev-image-keyboard-response,331,920517,learnblock1,775,img/planet13_left.png,13,Community 3,NA,TRUE,f,f,NA,NA,NA,1,6,"14,10,3,12,11,5,9,6,2,1,7,4,15,8,13"
14969,commdev-image-keyboard-response,332,921769,learnblock1,522,img/planet4_right.png,4,Community 3,NA,TRUE,j,j,NA,NA,NA,1,6,"14,10,3,12,11,5,9,6,2,1,7,4,15,8,13"
14969,commdev-image-keyboard-response,333,923021,learnblock1,615,img/planet13_left.png,13,Community 3,NA,TRUE,f,f,NA,NA,NA,1,6,"14,10,3,12,11,5,9,6,2,1,7,4,15,8,13"
14969,commdev-image-keyboard-response,334,924273,learnblock1,674,img/planet4_right.png,4,Community 3,NA,TRUE,j,j,NA,NA,NA,1,6,"14,10,3,12,11,5,9,6,2,1,7,4,15,8,13"
14969,commdev-image-keyboard-response,335,925525,learnblock1,1034,img/planet13_right.png,13,Community 3,NA,TRUE,j,j,NA,NA,NA,1,6,"14,10,3,12,11,5,9,6,2,1,7,4,15,8,13"
14969,commdev-image-keyboard-response,336,926777,learnblock1,599.9999999998836,img/planet15_left.png,15,Community 3,NA,TRUE,f,f,NA,NA,NA,1,6,"14,10,3,12,11,5,9,6,2,1,7,4,15,8,13"
14969,commdev-image-keyboard-response,337,928029,learnblock1,732,img/planet4_left.png,4,Community 3,NA,TRUE,f,f,NA,NA,NA,1,6,"14,10,3,12,11,5,9,6,2,1,7,4,15,8,13"
14969,commdev-image-keyboard-response,338,929281,learnblock1,751.0000000001164,img/planet8_right.png,8,Community 3,NA,TRUE,j,j,NA,NA,NA,1,6,"14,10,3,12,11,5,9,6,2,1,7,4,15,8,13"
14969,commdev-image-keyboard-response,339,930533,learnblock1,746,img/planet7_right.png,7,Community 3,NA,TRUE,j,j,NA,NA,NA,1,6,"14,10,3,12,11,5,9,6,2,1,7,4,15,8,13"
14969,commdev-image-keyboard-response,340,931785,learnblock1,642,img/planet15_right.png,15,Community 3,NA,TRUE,j,j,NA,NA,NA,1,6,"14,10,3,12,11,5,9,6,2,1,7,4,15,8,13"
14969,commdev-image-keyboard-response,341,933037,learnblock1,464.9999999998836,img/planet13_right.png,13,Community 3,NA,TRUE,j,j,NA,NA,NA,1,6,"14,10,3,12,11,5,9,6,2,1,7,4,15,8,13"
14969,commdev-image-keyboard-response,342,934289,learnblock1,480,img/planet8_right.png,8,Community 3,NA,TRUE,j,j,NA,NA,NA,1,6,"14,10,3,12,11,5,9,6,2,1,7,4,15,8,13"
14969,commdev-image-keyboard-response,343,935541,learnblock1,566,img/planet13_right.png,13,Community 3,NA,TRUE,j,j,NA,NA,NA,1,6,"14,10,3,12,11,5,9,6,2,1,7,4,15,8,13"
14969,commdev-image-keyboard-response,344,936793,learnblock1,731,img/planet7_left.png,7,Community 3,NA,TRUE,f,f,NA,NA,NA,1,6,"14,10,3,12,11,5,9,6,2,1,7,4,15,8,13"
14969,commdev-image-keyboard-response,345,938045,learnblock1,803,img/planet11_right.png,11,Community 1,NA,TRUE,j,j,NA,NA,NA,1,6,"14,10,3,12,11,5,9,6,2,1,7,4,15,8,13"
14969,commdev-image-keyboard-response,346,939297,learnblock1,606,img/planet14_right.png,14,Community 1,NA,TRUE,j,j,NA,NA,NA,1,6,"14,10,3,12,11,5,9,6,2,1,7,4,15,8,13"
14969,commdev-image-keyboard-response,347,940549,learnblock1,737,img/planet3_right.png,3,Community 1,NA,TRUE,j,j,NA,NA,NA,1,6,"14,10,3,12,11,5,9,6,2,1,7,4,15,8,13"
14969,commdev-image-keyboard-response,348,941801,learnblock1,588.9999999998836,img/planet12_left.png,12,Community 1,NA,TRUE,f,f,NA,NA,NA,1,6,"14,10,3,12,11,5,9,6,2,1,7,4,15,8,13"
14969,commdev-image-keyboard-response,349,943053,learnblock1,666.0000000001164,img/planet5_right.png,5,Community 2,NA,TRUE,j,j,NA,NA,NA,1,6,"14,10,3,12,11,5,9,6,2,1,7,4,15,8,13"
14969,commdev-image-keyboard-response,350,944305,learnblock1,555,img/planet1_right.png,1,Community 2,NA,TRUE,j,j,NA,NA,NA,1,6,"14,10,3,12,11,5,9,6,2,1,7,4,15,8,13"
14969,commdev-image-keyboard-response,351,945557,learnblock1,583,img/planet5_left.png,5,Community 2,NA,TRUE,f,f,NA,NA,NA,1,6,"14,10,3,12,11,5,9,6,2,1,7,4,15,8,13"
14969,commdev-image-keyboard-response,352,946809,learnblock1,605,img/planet1_right.png,1,Community 2,NA,TRUE,j,j,NA,NA,NA,1,6,"14,10,3,12,11,5,9,6,2,1,7,4,15,8,13"
14969,commdev-image-keyboard-response,353,948061,learnblock1,493.9999999998836,img/planet5_right.png,5,Community 2,NA,FALSE,f,j,NA,NA,NA,1,6,"14,10,3,12,11,5,9,6,2,1,7,4,15,8,13"
14969,commdev-image-keyboard-response,354,949313,learnblock1,410.0000000001164,img/planet1_left.png,1,Community 2,NA,TRUE,f,f,NA,NA,NA,1,6,"14,10,3,12,11,5,9,6,2,1,7,4,15,8,13"
14969,commdev-image-keyboard-response,355,950565,learnblock1,474,img/planet6_left.png,6,Community 2,NA,TRUE,f,f,NA,NA,NA,1,6,"14,10,3,12,11,5,9,6,2,1,7,4,15,8,13"
14969,commdev-image-keyboard-response,356,951817,learnblock1,336,img/planet1_left.png,1,Community 2,NA,TRUE,f,f,NA,NA,NA,1,6,"14,10,3,12,11,5,9,6,2,1,7,4,15,8,13"
14969,commdev-image-keyboard-response,357,953069,learnblock1,422,img/planet9_left.png,9,Community 2,NA,TRUE,f,f,NA,NA,NA,1,6,"14,10,3,12,11,5,9,6,2,1,7,4,15,8,13"
14969,commdev-image-keyboard-response,358,954321,learnblock1,424,img/planet5_right.png,5,Community 2,NA,FALSE,f,j,NA,NA,NA,1,6,"14,10,3,12,11,5,9,6,2,1,7,4,15,8,13"
14969,commdev-image-keyboard-response,359,955573,learnblock1,718,img/planet2_right.png,2,Community 2,NA,TRUE,j,j,NA,NA,NA,1,6,"14,10,3,12,11,5,9,6,2,1,7,4,15,8,13"
14969,commdev-image-keyboard-response,360,956825,learnblock1,562.0000000001164,img/planet9_right.png,9,Community 2,NA,TRUE,j,j,NA,NA,NA,1,6,"14,10,3,12,11,5,9,6,2,1,7,4,15,8,13"
14969,commdev-image-keyboard-response,361,958077,learnblock1,812,img/planet1_left.png,1,Community 2,NA,TRUE,f,f,NA,NA,NA,1,6,"14,10,3,12,11,5,9,6,2,1,7,4,15,8,13"
14969,commdev-image-keyboard-response,362,959329,learnblock1,769.9999999998836,img/planet5_right.png,5,Community 2,NA,TRUE,j,j,NA,NA,NA,1,6,"14,10,3,12,11,5,9,6,2,1,7,4,15,8,13"
14969,commdev-image-keyboard-response,363,960582,learnblock1,622,img/planet9_left.png,9,Community 2,NA,TRUE,f,f,NA,NA,NA,1,6,"14,10,3,12,11,5,9,6,2,1,7,4,15,8,13"
14969,commdev-image-keyboard-response,364,961833,learnblock1,516,img/planet2_right.png,2,Community 2,NA,TRUE,j,j,NA,NA,NA,1,6,"14,10,3,12,11,5,9,6,2,1,7,4,15,8,13"
14969,commdev-image-keyboard-response,365,963085,learnblock1,641,img/planet1_right.png,1,Community 2,NA,TRUE,j,j,NA,NA,NA,1,6,"14,10,3,12,11,5,9,6,2,1,7,4,15,8,13"
14969,commdev-image-keyboard-response,366,964337,learnblock1,641.0000000001164,img/planet5_left.png,5,Community 2,NA,TRUE,f,f,NA,NA,NA,1,6,"14,10,3,12,11,5,9,6,2,1,7,4,15,8,13"
14969,commdev-image-keyboard-response,367,965589,learnblock1,561,img/planet12_right.png,12,Community 1,NA,TRUE,j,j,NA,NA,NA,1,6,"14,10,3,12,11,5,9,6,2,1,7,4,15,8,13"
14969,commdev-image-keyboard-response,368,966841,learnblock1,549,img/planet3_right.png,3,Community 1,NA,TRUE,j,j,NA,NA,NA,1,6,"14,10,3,12,11,5,9,6,2,1,7,4,15,8,13"
14969,commdev-image-keyboard-response,369,968093,learnblock1,606.9999999998836,img/planet10_right.png,10,Community 1,NA,TRUE,j,j,NA,NA,NA,1,6,"14,10,3,12,11,5,9,6,2,1,7,4,15,8,13"
14969,commdev-image-keyboard-response,370,969345,learnblock1,529,img/planet3_left.png,3,Community 1,NA,FALSE,j,f,NA,NA,NA,1,6,"14,10,3,12,11,5,9,6,2,1,7,4,15,8,13"
14969,commdev-image-keyboard-response,371,970597,learnblock1,484,img/planet12_left.png,12,Community 1,NA,TRUE,f,f,NA,NA,NA,1,6,"14,10,3,12,11,5,9,6,2,1,7,4,15,8,13"
14969,commdev-image-keyboard-response,372,971849,learnblock1,567,img/planet5_right.png,5,Community 2,NA,TRUE,j,j,NA,NA,NA,1,6,"14,10,3,12,11,5,9,6,2,1,7,4,15,8,13"
14969,commdev-image-keyboard-response,373,973101,learnblock1,516,img/planet2_left.png,2,Community 2,NA,TRUE,f,f,NA,NA,NA,1,6,"14,10,3,12,11,5,9,6,2,1,7,4,15,8,13"
14969,commdev-image-keyboard-response,374,974353,learnblock1,543,img/planet1_right.png,1,Community 2,NA,TRUE,j,j,NA,NA,NA,1,6,"14,10,3,12,11,5,9,6,2,1,7,4,15,8,13"
14969,commdev-image-keyboard-response,375,975604,learnblock1,487,img/planet9_left.png,9,Community 2,NA,TRUE,f,f,NA,NA,NA,1,6,"14,10,3,12,11,5,9,6,2,1,7,4,15,8,13"
14969,commdev-image-keyboard-response,376,976856,learnblock1,503,img/planet2_left.png,2,Community 2,NA,TRUE,f,f,NA,NA,NA,1,6,"14,10,3,12,11,5,9,6,2,1,7,4,15,8,13"
14969,commdev-image-keyboard-response,377,978109,learnblock1,615,img/planet1_right.png,1,Community 2,NA,TRUE,j,j,NA,NA,NA,1,6,"14,10,3,12,11,5,9,6,2,1,7,4,15,8,13"
14969,commdev-image-keyboard-response,378,979360,learnblock1,669,img/planet2_right.png,2,Community 2,NA,TRUE,j,j,NA,NA,NA,1,6,"14,10,3,12,11,5,9,6,2,1,7,4,15,8,13"
14969,commdev-image-keyboard-response,379,980612,learnblock1,614,img/planet9_left.png,9,Community 2,NA,TRUE,f,f,NA,NA,NA,1,6,"14,10,3,12,11,5,9,6,2,1,7,4,15,8,13"
14969,commdev-image-keyboard-response,380,981864,learnblock1,762,img/planet5_left.png,5,Community 2,NA,TRUE,f,f,NA,NA,NA,1,6,"14,10,3,12,11,5,9,6,2,1,7,4,15,8,13"
14969,commdev-image-keyboard-response,381,983115,learnblock1,652,img/planet12_left.png,12,Community 1,NA,TRUE,f,f,NA,NA,NA,1,6,"14,10,3,12,11,5,9,6,2,1,7,4,15,8,13"
14969,commdev-image-keyboard-response,382,984367,learnblock1,520,img/planet3_left.png,3,Community 1,NA,TRUE,f,f,NA,NA,NA,1,6,"14,10,3,12,11,5,9,6,2,1,7,4,15,8,13"
14969,commdev-image-keyboard-response,383,985619,learnblock1,626,img/planet10_right.png,10,Community 1,NA,FALSE,f,j,NA,NA,NA,1,6,"14,10,3,12,11,5,9,6,2,1,7,4,15,8,13"
14969,commdev-image-keyboard-response,384,986872,learnblock1,736,img/planet14_right.png,14,Community 1,NA,TRUE,j,j,NA,NA,NA,1,6,"14,10,3,12,11,5,9,6,2,1,7,4,15,8,13"
14969,commdev-image-keyboard-response,385,988124,learnblock1,726,img/planet3_left.png,3,Community 1,NA,TRUE,f,f,NA,NA,NA,1,6,"14,10,3,12,11,5,9,6,2,1,7,4,15,8,13"
14969,commdev-image-keyboard-response,386,989376,learnblock1,537,img/planet14_left.png,14,Community 1,NA,TRUE,f,f,NA,NA,NA,1,6,"14,10,3,12,11,5,9,6,2,1,7,4,15,8,13"
14969,commdev-image-keyboard-response,387,990628,learnblock1,530,img/planet10_right.png,10,Community 1,NA,TRUE,j,j,NA,NA,NA,1,6,"14,10,3,12,11,5,9,6,2,1,7,4,15,8,13"
14969,commdev-image-keyboard-response,388,991880,learnblock1,615,img/planet12_right.png,12,Community 1,NA,TRUE,j,j,NA,NA,NA,1,6,"14,10,3,12,11,5,9,6,2,1,7,4,15,8,13"
14969,commdev-image-keyboard-response,389,993132,learnblock1,617.9999999998836,img/planet14_right.png,14,Community 1,NA,TRUE,j,j,NA,NA,NA,1,6,"14,10,3,12,11,5,9,6,2,1,7,4,15,8,13"
14969,commdev-image-keyboard-response,390,994384,learnblock1,617,img/planet10_right.png,10,Community 1,NA,TRUE,j,j,NA,NA,NA,1,6,"14,10,3,12,11,5,9,6,2,1,7,4,15,8,13"
14969,commdev-image-keyboard-response,391,995636,learnblock1,789.0000000001164,img/planet3_right.png,3,Community 1,NA,TRUE,j,j,NA,NA,NA,1,6,"14,10,3,12,11,5,9,6,2,1,7,4,15,8,13"
14969,commdev-image-keyboard-response,392,996888,learnblock1,781,img/planet11_right.png,11,Community 1,NA,TRUE,j,j,NA,NA,NA,1,6,"14,10,3,12,11,5,9,6,2,1,7,4,15,8,13"
14969,commdev-image-keyboard-response,393,998141,learnblock1,735,img/planet3_right.png,3,Community 1,NA,TRUE,j,j,NA,NA,NA,1,6,"14,10,3,12,11,5,9,6,2,1,7,4,15,8,13"
14969,commdev-image-keyboard-response,394,999393,learnblock1,604.0000000001164,img/planet11_right.png,11,Community 1,NA,TRUE,j,j,NA,NA,NA,1,6,"14,10,3,12,11,5,9,6,2,1,7,4,15,8,13"
14969,commdev-image-keyboard-response,395,1000646,learnblock1,675.9999999998836,img/planet14_left.png,14,Community 1,NA,TRUE,f,f,NA,NA,NA,1,6,"14,10,3,12,11,5,9,6,2,1,7,4,15,8,13"
14969,commdev-image-keyboard-response,396,1001898,learnblock1,759,img/planet3_left.png,3,Community 1,NA,TRUE,f,f,NA,NA,NA,1,6,"14,10,3,12,11,5,9,6,2,1,7,4,15,8,13"
14969,commdev-image-keyboard-response,397,1003150,learnblock1,685.9999999998836,img/planet10_right.png,10,Community 1,NA,TRUE,j,j,NA,NA,NA,1,6,"14,10,3,12,11,5,9,6,2,1,7,4,15,8,13"
14969,commdev-image-keyboard-response,398,1004403,learnblock1,794,img/planet14_right.png,14,Community 1,NA,TRUE,j,j,NA,NA,NA,1,6,"14,10,3,12,11,5,9,6,2,1,7,4,15,8,13"
14969,commdev-image-keyboard-response,399,1005654,learnblock1,721,img/planet10_left.png,10,Community 1,NA,TRUE,f,f,NA,NA,NA,1,6,"14,10,3,12,11,5,9,6,2,1,7,4,15,8,13"
14969,commdev-image-keyboard-response,400,1006906,learnblock1,650,img/planet11_left.png,11,Community 1,NA,TRUE,f,f,NA,NA,NA,1,6,"14,10,3,12,11,5,9,6,2,1,7,4,15,8,13"
14969,commdev-image-keyboard-response,401,1008158,learnblock1,638,img/planet7_right.png,7,Community 3,NA,TRUE,j,j,NA,NA,NA,1,6,"14,10,3,12,11,5,9,6,2,1,7,4,15,8,13"
14969,commdev-image-keyboard-response,402,1009411,learnblock1,620.9999999998836,img/planet13_right.png,13,Community 3,NA,TRUE,j,j,NA,NA,NA,1,6,"14,10,3,12,11,5,9,6,2,1,7,4,15,8,13"
14969,commdev-image-keyboard-response,403,1010662,learnblock1,537,img/planet15_left.png,15,Community 3,NA,FALSE,j,f,NA,NA,NA,1,6,"14,10,3,12,11,5,9,6,2,1,7,4,15,8,13"
14969,commdev-image-keyboard-response,404,1011913,learnblock1,659.0000000001164,img/planet8_left.png,8,Community 3,NA,FALSE,j,f,NA,NA,NA,1,6,"14,10,3,12,11,5,9,6,2,1,7,4,15,8,13"
14969,commdev-image-keyboard-response,405,1013165,learnblock1,572,img/planet15_right.png,15,Community 3,NA,TRUE,j,j,NA,NA,NA,1,6,"14,10,3,12,11,5,9,6,2,1,7,4,15,8,13"
14969,commdev-image-keyboard-response,406,1014417,learnblock1,701,img/planet4_left.png,4,Community 3,NA,TRUE,f,f,NA,NA,NA,1,6,"14,10,3,12,11,5,9,6,2,1,7,4,15,8,13"
14969,commdev-image-keyboard-response,407,1015668,learnblock1,611.9999999998836,img/planet15_right.png,15,Community 3,NA,TRUE,j,j,NA,NA,NA,1,6,"14,10,3,12,11,5,9,6,2,1,7,4,15,8,13"
14969,commdev-image-keyboard-response,408,1016920,learnblock1,591.0000000001164,img/planet13_right.png,13,Community 3,NA,TRUE,j,j,NA,NA,NA,1,6,"14,10,3,12,11,5,9,6,2,1,7,4,15,8,13"
14969,commdev-image-keyboard-response,409,1018172,learnblock1,836,img/planet7_right.png,7,Community 3,NA,TRUE,j,j,NA,NA,NA,1,6,"14,10,3,12,11,5,9,6,2,1,7,4,15,8,13"
14969,commdev-image-keyboard-response,410,1019424,learnblock1,856.9999999998836,img/planet15_right.png,15,Community 3,NA,TRUE,j,j,NA,NA,NA,1,6,"14,10,3,12,11,5,9,6,2,1,7,4,15,8,13"
14969,commdev-image-keyboard-response,411,1020677,learnblock1,770,img/planet8_left.png,8,Community 3,NA,TRUE,f,f,NA,NA,NA,1,6,"14,10,3,12,11,5,9,6,2,1,7,4,15,8,13"
14969,commdev-image-keyboard-response,412,1021929,learnblock1,538,img/planet4_left.png,4,Community 3,NA,TRUE,f,f,NA,NA,NA,1,6,"14,10,3,12,11,5,9,6,2,1,7,4,15,8,13"
14969,commdev-image-keyboard-response,413,1023182,learnblock1,580.0000000001164,img/planet15_left.png,15,Community 3,NA,TRUE,f,f,NA,NA,NA,1,6,"14,10,3,12,11,5,9,6,2,1,7,4,15,8,13"
14969,commdev-image-keyboard-response,414,1024433,learnblock1,594,img/planet4_left.png,4,Community 3,NA,TRUE,f,f,NA,NA,NA,1,6,"14,10,3,12,11,5,9,6,2,1,7,4,15,8,13"
14969,commdev-image-keyboard-response,415,1025685,learnblock1,676.0000000002328,img/planet8_left.png,8,Community 3,NA,TRUE,f,f,NA,NA,NA,1,6,"14,10,3,12,11,5,9,6,2,1,7,4,15,8,13"
14969,commdev-image-keyboard-response,416,1026938,learnblock1,516.9999999997672,img/planet15_left.png,15,Community 3,NA,TRUE,f,f,NA,NA,NA,1,6,"14,10,3,12,11,5,9,6,2,1,7,4,15,8,13"
14969,commdev-image-keyboard-response,417,1028190,learnblock1,491,img/planet8_right.png,8,Community 3,NA,FALSE,f,j,NA,NA,NA,1,6,"14,10,3,12,11,5,9,6,2,1,7,4,15,8,13"
14969,commdev-image-keyboard-response,418,1029443,learnblock1,661,img/planet15_right.png,15,Community 3,NA,TRUE,j,j,NA,NA,NA,1,6,"14,10,3,12,11,5,9,6,2,1,7,4,15,8,13"
14969,commdev-image-keyboard-response,419,1030694,learnblock1,644,img/planet8_right.png,8,Community 3,NA,TRUE,j,j,NA,NA,NA,1,6,"14,10,3,12,11,5,9,6,2,1,7,4,15,8,13"
14969,commdev-image-keyboard-response,420,1031946,learnblock1,653,img/planet15_left.png,15,Community 3,NA,TRUE,f,f,NA,NA,NA,1,6,"14,10,3,12,11,5,9,6,2,1,7,4,15,8,13"
14969,commdev-image-keyboard-response,421,1033198,learnblock1,701.0000000001164,img/planet7_right.png,7,Community 3,NA,TRUE,j,j,NA,NA,NA,1,6,"14,10,3,12,11,5,9,6,2,1,7,4,15,8,13"
14969,commdev-image-keyboard-response,422,1034451,learnblock1,575.0000000001164,img/planet13_right.png,13,Community 3,NA,TRUE,j,j,NA,NA,NA,1,6,"14,10,3,12,11,5,9,6,2,1,7,4,15,8,13"
14969,commdev-image-keyboard-response,423,1035702,learnblock1,603,img/planet8_left.png,8,Community 3,NA,TRUE,f,f,NA,NA,NA,1,6,"14,10,3,12,11,5,9,6,2,1,7,4,15,8,13"
14969,commdev-image-keyboard-response,424,1036955,learnblock1,776.9999999998836,img/planet4_left.png,4,Community 3,NA,TRUE,f,f,NA,NA,NA,1,6,"14,10,3,12,11,5,9,6,2,1,7,4,15,8,13"
14969,commdev-image-keyboard-response,425,1038207,learnblock1,724.9999999998836,img/planet8_right.png,8,Community 3,NA,TRUE,j,j,NA,NA,NA,1,6,"14,10,3,12,11,5,9,6,2,1,7,4,15,8,13"
14969,commdev-image-keyboard-response,426,1039459,learnblock1,619.9999999998836,img/planet4_left.png,4,Community 3,NA,TRUE,f,f,NA,NA,NA,1,6,"14,10,3,12,11,5,9,6,2,1,7,4,15,8,13"
14969,commdev-image-keyboard-response,427,1040710,learnblock1,741,img/planet6_left.png,6,Community 2,NA,TRUE,f,f,NA,NA,NA,1,6,"14,10,3,12,11,5,9,6,2,1,7,4,15,8,13"
14969,commdev-image-keyboard-response,428,1041962,learnblock1,1051.0000000001164,img/planet1_right.png,1,Community 2,NA,TRUE,j,j,NA,NA,NA,1,6,"14,10,3,12,11,5,9,6,2,1,7,4,15,8,13"
14969,commdev-image-keyboard-response,429,1043215,learnblock1,710.9999999997672,img/planet2_right.png,2,Community 2,NA,TRUE,j,j,NA,NA,NA,1,6,"14,10,3,12,11,5,9,6,2,1,7,4,15,8,13"
14969,commdev-image-keyboard-response,430,1044467,learnblock1,671,img/planet5_left.png,5,Community 2,NA,TRUE,f,f,NA,NA,NA,1,6,"14,10,3,12,11,5,9,6,2,1,7,4,15,8,13"
14969,commdev-image-keyboard-response,431,1045718,learnblock1,746.0000000001164,img/planet9_left.png,9,Community 2,NA,TRUE,f,f,NA,NA,NA,1,6,"14,10,3,12,11,5,9,6,2,1,7,4,15,8,13"
14969,commdev-image-keyboard-response,432,1046970,learnblock1,559.9999999998836,img/planet1_left.png,1,Community 2,NA,TRUE,f,f,NA,NA,NA,1,6,"14,10,3,12,11,5,9,6,2,1,7,4,15,8,13"
14969,commdev-image-keyboard-response,433,1048222,learnblock1,573.0000000001164,img/planet6_right.png,6,Community 2,NA,TRUE,j,j,NA,NA,NA,1,6,"14,10,3,12,11,5,9,6,2,1,7,4,15,8,13"
14969,commdev-image-keyboard-response,434,1049474,learnblock1,580,img/planet4_right.png,4,Community 3,NA,TRUE,j,j,NA,NA,NA,1,6,"14,10,3,12,11,5,9,6,2,1,7,4,15,8,13"
14969,commdev-image-keyboard-response,435,1050726,learnblock1,618,img/planet13_right.png,13,Community 3,NA,TRUE,j,j,NA,NA,NA,1,6,"14,10,3,12,11,5,9,6,2,1,7,4,15,8,13"
14969,commdev-image-keyboard-response,436,1051979,learnblock1,482,img/planet4_right.png,4,Community 3,NA,TRUE,j,j,NA,NA,NA,1,6,"14,10,3,12,11,5,9,6,2,1,7,4,15,8,13"
14969,commdev-image-keyboard-response,437,1053232,learnblock1,503,img/planet6_right.png,6,Community 2,NA,TRUE,j,j,NA,NA,NA,1,6,"14,10,3,12,11,5,9,6,2,1,7,4,15,8,13"
14969,commdev-image-keyboard-response,438,1054484,learnblock1,538,img/planet9_right.png,9,Community 2,NA,TRUE,j,j,NA,NA,NA,1,6,"14,10,3,12,11,5,9,6,2,1,7,4,15,8,13"
14969,commdev-image-keyboard-response,439,1055736,learnblock1,516,img/planet5_right.png,5,Community 2,NA,TRUE,j,j,NA,NA,NA,1,6,"14,10,3,12,11,5,9,6,2,1,7,4,15,8,13"
14969,commdev-image-keyboard-response,440,1056988,learnblock1,638.0000000002328,img/planet2_left.png,2,Community 2,NA,TRUE,f,f,NA,NA,NA,1,6,"14,10,3,12,11,5,9,6,2,1,7,4,15,8,13"
14969,commdev-image-keyboard-response,441,1058240,learnblock1,676.0000000002328,img/planet9_right.png,9,Community 2,NA,TRUE,j,j,NA,NA,NA,1,6,"14,10,3,12,11,5,9,6,2,1,7,4,15,8,13"
14969,commdev-image-keyboard-response,442,1059492,learnblock1,637,img/planet2_left.png,2,Community 2,NA,TRUE,f,f,NA,NA,NA,1,6,"14,10,3,12,11,5,9,6,2,1,7,4,15,8,13"
14969,commdev-image-keyboard-response,443,1060744,learnblock1,621,img/planet1_left.png,1,Community 2,NA,TRUE,f,f,NA,NA,NA,1,6,"14,10,3,12,11,5,9,6,2,1,7,4,15,8,13"
14969,commdev-image-keyboard-response,444,1061996,learnblock1,506.00000000023283,img/planet2_right.png,2,Community 2,NA,TRUE,j,j,NA,NA,NA,1,6,"14,10,3,12,11,5,9,6,2,1,7,4,15,8,13"
14969,commdev-image-keyboard-response,445,1063248,learnblock1,639.0000000002328,img/planet5_right.png,5,Community 2,NA,TRUE,j,j,NA,NA,NA,1,6,"14,10,3,12,11,5,9,6,2,1,7,4,15,8,13"
14969,commdev-image-keyboard-response,446,1064500,learnblock1,703,img/planet12_right.png,12,Community 1,NA,TRUE,j,j,NA,NA,NA,1,6,"14,10,3,12,11,5,9,6,2,1,7,4,15,8,13"
14969,commdev-image-keyboard-response,447,1065752,learnblock1,654,img/planet10_left.png,10,Community 1,NA,TRUE,f,f,NA,NA,NA,1,6,"14,10,3,12,11,5,9,6,2,1,7,4,15,8,13"
14969,commdev-image-keyboard-response,448,1067004,learnblock1,717,img/planet14_right.png,14,Community 1,NA,TRUE,j,j,NA,NA,NA,1,6,"14,10,3,12,11,5,9,6,2,1,7,4,15,8,13"
14969,commdev-image-keyboard-response,449,1068256,learnblock1,638,img/planet10_right.png,10,Community 1,NA,TRUE,j,j,NA,NA,NA,1,6,"14,10,3,12,11,5,9,6,2,1,7,4,15,8,13"
14969,commdev-image-keyboard-response,450,1069508,learnblock1,733,img/planet11_left.png,11,Community 1,NA,TRUE,f,f,NA,NA,NA,1,6,"14,10,3,12,11,5,9,6,2,1,7,4,15,8,13"
14969,commdev-image-keyboard-response,451,1070760,learnblock1,679,img/planet10_left.png,10,Community 1,NA,TRUE,f,f,NA,NA,NA,1,6,"14,10,3,12,11,5,9,6,2,1,7,4,15,8,13"
14969,commdev-image-keyboard-response,452,1072012,learnblock1,622,img/planet11_right.png,11,Community 1,NA,TRUE,j,j,NA,NA,NA,1,6,"14,10,3,12,11,5,9,6,2,1,7,4,15,8,13"
14969,commdev-image-keyboard-response,453,1073264,learnblock1,684,img/planet7_left.png,7,Community 3,NA,TRUE,f,f,NA,NA,NA,1,6,"14,10,3,12,11,5,9,6,2,1,7,4,15,8,13"
14969,commdev-image-keyboard-response,454,1074516,learnblock1,610.0000000002328,img/planet15_left.png,15,Community 3,NA,TRUE,f,f,NA,NA,NA,1,6,"14,10,3,12,11,5,9,6,2,1,7,4,15,8,13"
14969,commdev-image-keyboard-response,455,1075768,learnblock1,751,img/planet13_right.png,13,Community 3,NA,TRUE,j,j,NA,NA,NA,1,6,"14,10,3,12,11,5,9,6,2,1,7,4,15,8,13"
14969,commdev-image-keyboard-response,456,1077020,learnblock1,568,img/planet8_right.png,8,Community 3,NA,TRUE,j,j,NA,NA,NA,1,6,"14,10,3,12,11,5,9,6,2,1,7,4,15,8,13"
14969,commdev-image-keyboard-response,457,1078272,learnblock1,554,img/planet13_left.png,13,Community 3,NA,FALSE,j,f,NA,NA,NA,1,6,"14,10,3,12,11,5,9,6,2,1,7,4,15,8,13"
14969,commdev-image-keyboard-response,458,1079524,learnblock1,586,img/planet7_right.png,7,Community 3,NA,TRUE,j,j,NA,NA,NA,1,6,"14,10,3,12,11,5,9,6,2,1,7,4,15,8,13"
14969,commdev-image-keyboard-response,459,1080776,learnblock1,585,img/planet11_right.png,11,Community 1,NA,TRUE,j,j,NA,NA,NA,1,6,"14,10,3,12,11,5,9,6,2,1,7,4,15,8,13"
14969,commdev-image-keyboard-response,460,1082028,learnblock1,646,img/planet10_left.png,10,Community 1,NA,TRUE,f,f,NA,NA,NA,1,6,"14,10,3,12,11,5,9,6,2,1,7,4,15,8,13"
14969,commdev-image-keyboard-response,461,1083280,learnblock1,589,img/planet12_right.png,12,Community 1,NA,TRUE,j,j,NA,NA,NA,1,6,"14,10,3,12,11,5,9,6,2,1,7,4,15,8,13"
14969,commdev-image-keyboard-response,462,1084532,learnblock1,576.0000000002328,img/planet14_left.png,14,Community 1,NA,TRUE,f,f,NA,NA,NA,1,6,"14,10,3,12,11,5,9,6,2,1,7,4,15,8,13"
14969,commdev-image-keyboard-response,463,1085784,learnblock1,508,img/planet10_left.png,10,Community 1,NA,TRUE,f,f,NA,NA,NA,1,6,"14,10,3,12,11,5,9,6,2,1,7,4,15,8,13"
14969,commdev-image-keyboard-response,464,1087036,learnblock1,542.0000000002328,img/planet3_right.png,3,Community 1,NA,TRUE,j,j,NA,NA,NA,1,6,"14,10,3,12,11,5,9,6,2,1,7,4,15,8,13"
14969,commdev-image-keyboard-response,465,1088288,learnblock1,649,img/planet11_right.png,11,Community 1,NA,TRUE,j,j,NA,NA,NA,1,6,"14,10,3,12,11,5,9,6,2,1,7,4,15,8,13"
14969,commdev-image-keyboard-response,466,1089540,learnblock1,1025.9999999997672,img/planet10_left.png,10,Community 1,NA,TRUE,f,f,NA,NA,NA,1,6,"14,10,3,12,11,5,9,6,2,1,7,4,15,8,13"
14969,commdev-image-keyboard-response,467,1090792,learnblock1,1234,img/planet11_left.png,11,Community 1,NA,TRUE,f,f,NA,NA,NA,1,6,"14,10,3,12,11,5,9,6,2,1,7,4,15,8,13"
14969,commdev-image-keyboard-response,468,1092044,learnblock1,930,img/planet7_left.png,7,Community 3,NA,TRUE,f,f,NA,NA,NA,1,6,"14,10,3,12,11,5,9,6,2,1,7,4,15,8,13"
14969,commdev-image-keyboard-response,469,1093296,learnblock1,541,img/planet11_left.png,11,Community 1,NA,TRUE,f,f,NA,NA,NA,1,6,"14,10,3,12,11,5,9,6,2,1,7,4,15,8,13"
14969,commdev-image-keyboard-response,470,1094548,learnblock1,461,img/planet10_right.png,10,Community 1,NA,FALSE,f,j,NA,NA,NA,1,6,"14,10,3,12,11,5,9,6,2,1,7,4,15,8,13"
14969,commdev-image-keyboard-response,471,1095799,learnblock1,702,img/planet12_right.png,12,Community 1,NA,TRUE,j,j,NA,NA,NA,1,6,"14,10,3,12,11,5,9,6,2,1,7,4,15,8,13"
14969,commdev-image-keyboard-response,472,1097052,learnblock1,1126,img/planet14_right.png,14,Community 1,NA,TRUE,j,j,NA,NA,NA,1,6,"14,10,3,12,11,5,9,6,2,1,7,4,15,8,13"
14969,commdev-image-keyboard-response,473,1098304,learnblock1,595,img/planet12_left.png,12,Community 1,NA,TRUE,f,f,NA,NA,NA,1,6,"14,10,3,12,11,5,9,6,2,1,7,4,15,8,13"
14969,commdev-image-keyboard-response,474,1099556,learnblock1,527,img/planet5_left.png,5,Community 2,NA,TRUE,f,f,NA,NA,NA,1,6,"14,10,3,12,11,5,9,6,2,1,7,4,15,8,13"
14969,commdev-image-keyboard-response,475,1100808,learnblock1,607.0000000002328,img/planet12_right.png,12,Community 1,NA,TRUE,j,j,NA,NA,NA,1,6,"14,10,3,12,11,5,9,6,2,1,7,4,15,8,13"
14969,commdev-image-keyboard-response,476,1102060,learnblock1,690,img/planet14_right.png,14,Community 1,NA,TRUE,j,j,NA,NA,NA,1,6,"14,10,3,12,11,5,9,6,2,1,7,4,15,8,13"
14969,commdev-image-keyboard-response,477,1103312,learnblock1,553,img/planet3_right.png,3,Community 1,NA,TRUE,j,j,NA,NA,NA,1,6,"14,10,3,12,11,5,9,6,2,1,7,4,15,8,13"
14969,commdev-image-keyboard-response,478,1104564,learnblock1,389.00000000023283,img/planet10_right.png,10,Community 1,NA,TRUE,j,j,NA,NA,NA,1,6,"14,10,3,12,11,5,9,6,2,1,7,4,15,8,13"
14969,commdev-image-keyboard-response,479,1105815,learnblock1,534,img/planet11_left.png,11,Community 1,NA,FALSE,j,f,NA,NA,NA,1,6,"14,10,3,12,11,5,9,6,2,1,7,4,15,8,13"
14969,commdev-image-keyboard-response,480,1107067,learnblock1,582,img/planet14_right.png,14,Community 1,NA,TRUE,j,j,NA,NA,NA,1,6,"14,10,3,12,11,5,9,6,2,1,7,4,15,8,13"
14969,commdev-image-keyboard-response,481,1108319,learnblock1,676.9999999997672,img/planet12_left.png,12,Community 1,NA,TRUE,f,f,NA,NA,NA,1,6,"14,10,3,12,11,5,9,6,2,1,7,4,15,8,13"
14969,commdev-image-keyboard-response,482,1109571,learnblock1,619,img/planet10_right.png,10,Community 1,NA,TRUE,j,j,NA,NA,NA,1,6,"14,10,3,12,11,5,9,6,2,1,7,4,15,8,13"
14969,commdev-image-keyboard-response,483,1110823,learnblock1,554,img/planet11_right.png,11,Community 1,NA,TRUE,j,j,NA,NA,NA,1,6,"14,10,3,12,11,5,9,6,2,1,7,4,15,8,13"
14969,commdev-image-keyboard-response,484,1112075,learnblock1,624,img/planet7_right.png,7,Community 3,NA,TRUE,j,j,NA,NA,NA,1,6,"14,10,3,12,11,5,9,6,2,1,7,4,15,8,13"
14969,commdev-image-keyboard-response,485,1113327,learnblock1,562,img/planet13_left.png,13,Community 3,NA,TRUE,f,f,NA,NA,NA,1,6,"14,10,3,12,11,5,9,6,2,1,7,4,15,8,13"
14969,commdev-image-keyboard-response,486,1114579,learnblock1,605.0000000002328,img/planet8_right.png,8,Community 3,NA,TRUE,j,j,NA,NA,NA,1,6,"14,10,3,12,11,5,9,6,2,1,7,4,15,8,13"
14969,commdev-image-keyboard-response,487,1115831,learnblock1,552,img/planet13_right.png,13,Community 3,NA,TRUE,j,j,NA,NA,NA,1,6,"14,10,3,12,11,5,9,6,2,1,7,4,15,8,13"
14969,commdev-image-keyboard-response,488,1117083,learnblock1,521,img/planet7_right.png,7,Community 3,NA,TRUE,j,j,NA,NA,NA,1,6,"14,10,3,12,11,5,9,6,2,1,7,4,15,8,13"
14969,commdev-image-keyboard-response,489,1118336,learnblock1,684,img/planet13_left.png,13,Community 3,NA,TRUE,f,f,NA,NA,NA,1,6,"14,10,3,12,11,5,9,6,2,1,7,4,15,8,13"
14969,commdev-image-keyboard-response,490,1119588,learnblock1,617,img/planet7_right.png,7,Community 3,NA,TRUE,j,j,NA,NA,NA,1,6,"14,10,3,12,11,5,9,6,2,1,7,4,15,8,13"
14969,commdev-image-keyboard-response,491,1120840,learnblock1,615,img/planet13_left.png,13,Community 3,NA,TRUE,f,f,NA,NA,NA,1,6,"14,10,3,12,11,5,9,6,2,1,7,4,15,8,13"
14969,commdev-image-keyboard-response,492,1122092,learnblock1,576,img/planet15_right.png,15,Community 3,NA,TRUE,j,j,NA,NA,NA,1,6,"14,10,3,12,11,5,9,6,2,1,7,4,15,8,13"
14969,commdev-image-keyboard-response,493,1123344,learnblock1,615,img/planet8_right.png,8,Community 3,NA,TRUE,j,j,NA,NA,NA,1,6,"14,10,3,12,11,5,9,6,2,1,7,4,15,8,13"
14969,commdev-image-keyboard-response,494,1124596,learnblock1,626,img/planet4_right.png,4,Community 3,NA,TRUE,j,j,NA,NA,NA,1,6,"14,10,3,12,11,5,9,6,2,1,7,4,15,8,13"
14969,commdev-image-keyboard-response,495,1125848,learnblock1,633,img/planet15_right.png,15,Community 3,NA,TRUE,j,j,NA,NA,NA,1,6,"14,10,3,12,11,5,9,6,2,1,7,4,15,8,13"
14969,commdev-image-keyboard-response,496,1127100,learnblock1,482,img/planet7_right.png,7,Community 3,NA,TRUE,j,j,NA,NA,NA,1,6,"14,10,3,12,11,5,9,6,2,1,7,4,15,8,13"
14969,commdev-image-keyboard-response,497,1128351,learnblock1,758,img/planet11_left.png,11,Community 1,NA,TRUE,f,f,NA,NA,NA,1,6,"14,10,3,12,11,5,9,6,2,1,7,4,15,8,13"
14969,commdev-image-keyboard-response,498,1129603,learnblock1,738,img/planet7_left.png,7,Community 3,NA,TRUE,f,f,NA,NA,NA,1,6,"14,10,3,12,11,5,9,6,2,1,7,4,15,8,13"
14969,commdev-image-keyboard-response,499,1130855,learnblock1,634,img/planet11_right.png,11,Community 1,NA,TRUE,j,j,NA,NA,NA,1,6,"14,10,3,12,11,5,9,6,2,1,7,4,15,8,13"
14969,commdev-image-keyboard-response,500,1132106,learnblock1,680.9999999997672,img/planet14_left.png,14,Community 1,NA,TRUE,f,f,NA,NA,NA,1,6,"14,10,3,12,11,5,9,6,2,1,7,4,15,8,13"
14969,commdev-image-keyboard-response,501,1133358,learnblock1,692,img/planet11_right.png,11,Community 1,NA,TRUE,j,j,NA,NA,NA,1,6,"14,10,3,12,11,5,9,6,2,1,7,4,15,8,13"
14969,commdev-image-keyboard-response,502,1134611,learnblock1,643,img/planet14_left.png,14,Community 1,NA,TRUE,f,f,NA,NA,NA,1,6,"14,10,3,12,11,5,9,6,2,1,7,4,15,8,13"
14969,commdev-image-keyboard-response,503,1135863,learnblock1,530,img/planet10_right.png,10,Community 1,NA,TRUE,j,j,NA,NA,NA,1,6,"14,10,3,12,11,5,9,6,2,1,7,4,15,8,13"
14969,commdev-image-keyboard-response,504,1137115,learnblock1,543,img/planet3_left.png,3,Community 1,NA,TRUE,f,f,NA,NA,NA,1,6,"14,10,3,12,11,5,9,6,2,1,7,4,15,8,13"
14969,commdev-image-keyboard-response,505,1138367,learnblock1,564,img/planet10_right.png,10,Community 1,NA,TRUE,j,j,NA,NA,NA,1,6,"14,10,3,12,11,5,9,6,2,1,7,4,15,8,13"
14969,commdev-image-keyboard-response,506,1139619,learnblock1,631,img/planet3_right.png,3,Community 1,NA,TRUE,j,j,NA,NA,NA,1,6,"14,10,3,12,11,5,9,6,2,1,7,4,15,8,13"
14969,commdev-image-keyboard-response,507,1140871,learnblock1,583,img/planet14_right.png,14,Community 1,NA,TRUE,j,j,NA,NA,NA,1,6,"14,10,3,12,11,5,9,6,2,1,7,4,15,8,13"
14969,commdev-image-keyboard-response,508,1142123,learnblock1,503.00000000023283,img/planet3_right.png,3,Community 1,NA,TRUE,j,j,NA,NA,NA,1,6,"14,10,3,12,11,5,9,6,2,1,7,4,15,8,13"
14969,commdev-image-keyboard-response,509,1143375,learnblock1,566.9999999997672,img/planet10_left.png,10,Community 1,NA,TRUE,f,f,NA,NA,NA,1,6,"14,10,3,12,11,5,9,6,2,1,7,4,15,8,13"
14969,commdev-image-keyboard-response,510,1144627,learnblock1,811,img/planet3_left.png,3,Community 1,NA,TRUE,f,f,NA,NA,NA,1,6,"14,10,3,12,11,5,9,6,2,1,7,4,15,8,13"
14969,commdev-image-keyboard-response,511,1145879,learnblock1,552,img/planet10_right.png,10,Community 1,NA,TRUE,j,j,NA,NA,NA,1,6,"14,10,3,12,11,5,9,6,2,1,7,4,15,8,13"
14969,commdev-image-keyboard-response,515,1220634,learnblock2,820,img/planet11_left.png,11,Community 1,NA,TRUE,f,f,NA,NA,NA,1,6,"14,10,3,12,11,5,9,6,2,1,7,4,15,8,13"
14969,commdev-image-keyboard-response,516,1221886,learnblock2,514,img/planet7_left.png,7,Community 3,NA,TRUE,f,f,NA,NA,NA,1,6,"14,10,3,12,11,5,9,6,2,1,7,4,15,8,13"
14969,commdev-image-keyboard-response,517,1223139,learnblock2,527,img/planet11_right.png,11,Community 1,NA,TRUE,j,j,NA,NA,NA,1,6,"14,10,3,12,11,5,9,6,2,1,7,4,15,8,13"
14969,commdev-image-keyboard-response,518,1224391,learnblock2,883,img/planet14_right.png,14,Community 1,NA,TRUE,j,j,NA,NA,NA,1,6,"14,10,3,12,11,5,9,6,2,1,7,4,15,8,13"
14969,commdev-image-keyboard-response,519,1225643,learnblock2,576.0000000002328,img/planet12_left.png,12,Community 1,NA,TRUE,f,f,NA,NA,NA,1,6,"14,10,3,12,11,5,9,6,2,1,7,4,15,8,13"
14969,commdev-image-keyboard-response,520,1226895,learnblock2,531,img/planet3_right.png,3,Community 1,NA,TRUE,j,j,NA,NA,NA,1,6,"14,10,3,12,11,5,9,6,2,1,7,4,15,8,13"
14969,commdev-image-keyboard-response,521,1228148,learnblock2,534.0000000002328,img/planet11_left.png,11,Community 1,NA,TRUE,f,f,NA,NA,NA,1,6,"14,10,3,12,11,5,9,6,2,1,7,4,15,8,13"
14969,commdev-image-keyboard-response,522,1229399,learnblock2,514,img/planet7_left.png,7,Community 3,NA,TRUE,f,f,NA,NA,NA,1,6,"14,10,3,12,11,5,9,6,2,1,7,4,15,8,13"
14969,commdev-image-keyboard-response,523,1230651,learnblock2,720,img/planet11_right.png,11,Community 1,NA,TRUE,j,j,NA,NA,NA,1,6,"14,10,3,12,11,5,9,6,2,1,7,4,15,8,13"
14969,commdev-image-keyboard-response,524,1231903,learnblock2,586.0000000002328,img/planet3_left.png,3,Community 1,NA,TRUE,f,f,NA,NA,NA,1,6,"14,10,3,12,11,5,9,6,2,1,7,4,15,8,13"
14969,commdev-image-keyboard-response,525,1233156,learnblock2,558,img/planet10_right.png,10,Community 1,NA,TRUE,j,j,NA,NA,NA,1,6,"14,10,3,12,11,5,9,6,2,1,7,4,15,8,13"
14969,commdev-image-keyboard-response,526,1234407,learnblock2,585,img/planet14_right.png,14,Community 1,NA,TRUE,j,j,NA,NA,NA,1,6,"14,10,3,12,11,5,9,6,2,1,7,4,15,8,13"
14969,commdev-image-keyboard-response,527,1235659,learnblock2,563,img/planet3_right.png,3,Community 1,NA,TRUE,j,j,NA,NA,NA,1,6,"14,10,3,12,11,5,9,6,2,1,7,4,15,8,13"
14969,commdev-image-keyboard-response,528,1236911,learnblock2,523,img/planet11_right.png,11,Community 1,NA,TRUE,j,j,NA,NA,NA,1,6,"14,10,3,12,11,5,9,6,2,1,7,4,15,8,13"
14969,commdev-image-keyboard-response,529,1238163,learnblock2,683,img/planet7_left.png,7,Community 3,NA,TRUE,f,f,NA,NA,NA,1,6,"14,10,3,12,11,5,9,6,2,1,7,4,15,8,13"
14969,commdev-image-keyboard-response,530,1239415,learnblock2,576,img/planet8_right.png,8,Community 3,NA,TRUE,j,j,NA,NA,NA,1,6,"14,10,3,12,11,5,9,6,2,1,7,4,15,8,13"
14969,commdev-image-keyboard-response,531,1240667,learnblock2,628,img/planet13_left.png,13,Community 3,NA,TRUE,f,f,NA,NA,NA,1,6,"14,10,3,12,11,5,9,6,2,1,7,4,15,8,13"
14969,commdev-image-keyboard-response,532,1241919,learnblock2,688,img/planet7_right.png,7,Community 3,NA,TRUE,j,j,NA,NA,NA,1,6,"14,10,3,12,11,5,9,6,2,1,7,4,15,8,13"
14969,commdev-image-keyboard-response,533,1243171,learnblock2,502.99999999976717,img/planet11_right.png,11,Community 1,NA,TRUE,j,j,NA,NA,NA,1,6,"14,10,3,12,11,5,9,6,2,1,7,4,15,8,13"
14969,commdev-image-keyboard-response,534,1244423,learnblock2,718,img/planet7_right.png,7,Community 3,NA,TRUE,j,j,NA,NA,NA,1,6,"14,10,3,12,11,5,9,6,2,1,7,4,15,8,13"
14969,commdev-image-keyboard-response,535,1245674,learnblock2,511,img/planet13_right.png,13,Community 3,NA,TRUE,j,j,NA,NA,NA,1,6,"14,10,3,12,11,5,9,6,2,1,7,4,15,8,13"
14969,commdev-image-keyboard-response,536,1246926,learnblock2,684,img/planet7_left.png,7,Community 3,NA,TRUE,f,f,NA,NA,NA,1,6,"14,10,3,12,11,5,9,6,2,1,7,4,15,8,13"
14969,commdev-image-keyboard-response,537,1248178,learnblock2,822,img/planet11_left.png,11,Community 1,NA,TRUE,f,f,NA,NA,NA,1,6,"14,10,3,12,11,5,9,6,2,1,7,4,15,8,13"
14969,commdev-image-keyboard-response,538,1249429,learnblock2,557,img/planet7_right.png,7,Community 3,NA,TRUE,j,j,NA,NA,NA,1,6,"14,10,3,12,11,5,9,6,2,1,7,4,15,8,13"
14969,commdev-image-keyboard-response,539,1250682,learnblock2,644,img/planet8_right.png,8,Community 3,NA,TRUE,j,j,NA,NA,NA,1,6,"14,10,3,12,11,5,9,6,2,1,7,4,15,8,13"
14969,commdev-image-keyboard-response,540,1251934,learnblock2,601,img/planet13_left.png,13,Community 3,NA,TRUE,f,f,NA,NA,NA,1,6,"14,10,3,12,11,5,9,6,2,1,7,4,15,8,13"
14969,commdev-image-keyboard-response,541,1253186,learnblock2,776,img/planet8_right.png,8,Community 3,NA,TRUE,j,j,NA,NA,NA,1,6,"14,10,3,12,11,5,9,6,2,1,7,4,15,8,13"
14969,commdev-image-keyboard-response,542,1254437,learnblock2,564,img/planet7_right.png,7,Community 3,NA,TRUE,j,j,NA,NA,NA,1,6,"14,10,3,12,11,5,9,6,2,1,7,4,15,8,13"
14969,commdev-image-keyboard-response,543,1255689,learnblock2,583,img/planet13_right.png,13,Community 3,NA,TRUE,j,j,NA,NA,NA,1,6,"14,10,3,12,11,5,9,6,2,1,7,4,15,8,13"
14969,commdev-image-keyboard-response,544,1256940,learnblock2,507.99999999976717,img/planet4_right.png,4,Community 3,NA,TRUE,j,j,NA,NA,NA,1,6,"14,10,3,12,11,5,9,6,2,1,7,4,15,8,13"
14969,commdev-image-keyboard-response,545,1258191,learnblock2,594,img/planet6_right.png,6,Community 2,NA,TRUE,j,j,NA,NA,NA,1,6,"14,10,3,12,11,5,9,6,2,1,7,4,15,8,13"
14969,commdev-image-keyboard-response,546,1259442,learnblock2,541,img/planet9_left.png,9,Community 2,NA,TRUE,f,f,NA,NA,NA,1,6,"14,10,3,12,11,5,9,6,2,1,7,4,15,8,13"
14969,commdev-image-keyboard-response,547,1260694,learnblock2,518,img/planet6_right.png,6,Community 2,NA,TRUE,j,j,NA,NA,NA,1,6,"14,10,3,12,11,5,9,6,2,1,7,4,15,8,13"
14969,commdev-image-keyboard-response,548,1261946,learnblock2,523.0000000002328,img/planet4_right.png,4,Community 3,NA,TRUE,j,j,NA,NA,NA,1,6,"14,10,3,12,11,5,9,6,2,1,7,4,15,8,13"
14969,commdev-image-keyboard-response,549,1263198,learnblock2,647,img/planet15_right.png,15,Community 3,NA,TRUE,j,j,NA,NA,NA,1,6,"14,10,3,12,11,5,9,6,2,1,7,4,15,8,13"
14969,commdev-image-keyboard-response,550,1264450,learnblock2,684,img/planet8_right.png,8,Community 3,NA,TRUE,j,j,NA,NA,NA,1,6,"14,10,3,12,11,5,9,6,2,1,7,4,15,8,13"
14969,commdev-image-keyboard-response,551,1265702,learnblock2,650,img/planet15_left.png,15,Community 3,NA,TRUE,f,f,NA,NA,NA,1,6,"14,10,3,12,11,5,9,6,2,1,7,4,15,8,13"
14969,commdev-image-keyboard-response,552,1266954,learnblock2,688.0000000002328,img/planet4_left.png,4,Community 3,NA,TRUE,f,f,NA,NA,NA,1,6,"14,10,3,12,11,5,9,6,2,1,7,4,15,8,13"
14969,commdev-image-keyboard-response,553,1268206,learnblock2,476,img/planet13_left.png,13,Community 3,NA,TRUE,f,f,NA,NA,NA,1,6,"14,10,3,12,11,5,9,6,2,1,7,4,15,8,13"
14969,commdev-image-keyboard-response,554,1269458,learnblock2,443,img/planet4_right.png,4,Community 3,NA,TRUE,j,j,NA,NA,NA,1,6,"14,10,3,12,11,5,9,6,2,1,7,4,15,8,13"
14969,commdev-image-keyboard-response,555,1270710,learnblock2,571.9999999997672,img/planet8_right.png,8,Community 3,NA,TRUE,j,j,NA,NA,NA,1,6,"14,10,3,12,11,5,9,6,2,1,7,4,15,8,13"
14969,commdev-image-keyboard-response,556,1271962,learnblock2,523,img/planet13_left.png,13,Community 3,NA,FALSE,j,f,NA,NA,NA,1,6,"14,10,3,12,11,5,9,6,2,1,7,4,15,8,13"
14969,commdev-image-keyboard-response,557,1273214,learnblock2,643,img/planet7_right.png,7,Community 3,NA,TRUE,j,j,NA,NA,NA,1,6,"14,10,3,12,11,5,9,6,2,1,7,4,15,8,13"
14969,commdev-image-keyboard-response,558,1274466,learnblock2,483,img/planet15_left.png,15,Community 3,NA,TRUE,f,f,NA,NA,NA,1,6,"14,10,3,12,11,5,9,6,2,1,7,4,15,8,13"
14969,commdev-image-keyboard-response,559,1275718,learnblock2,560,img/planet4_right.png,4,Community 3,NA,TRUE,j,j,NA,NA,NA,1,6,"14,10,3,12,11,5,9,6,2,1,7,4,15,8,13"
14969,commdev-image-keyboard-response,560,1276970,learnblock2,437,img/planet13_left.png,13,Community 3,NA,TRUE,f,f,NA,NA,NA,1,6,"14,10,3,12,11,5,9,6,2,1,7,4,15,8,13"
14969,commdev-image-keyboard-response,561,1278221,learnblock2,633,img/planet4_right.png,4,Community 3,NA,TRUE,j,j,NA,NA,NA,1,6,"14,10,3,12,11,5,9,6,2,1,7,4,15,8,13"
14969,commdev-image-keyboard-response,562,1279473,learnblock2,678,img/planet8_right.png,8,Community 3,NA,TRUE,j,j,NA,NA,NA,1,6,"14,10,3,12,11,5,9,6,2,1,7,4,15,8,13"
14969,commdev-image-keyboard-response,563,1280725,learnblock2,513.0000000002328,img/planet13_left.png,13,Community 3,NA,TRUE,f,f,NA,NA,NA,1,6,"14,10,3,12,11,5,9,6,2,1,7,4,15,8,13"
14969,commdev-image-keyboard-response,564,1281977,learnblock2,547,img/planet7_right.png,7,Community 3,NA,TRUE,j,j,NA,NA,NA,1,6,"14,10,3,12,11,5,9,6,2,1,7,4,15,8,13"
14969,commdev-image-keyboard-response,565,1283228,learnblock2,645,img/planet13_right.png,13,Community 3,NA,TRUE,j,j,NA,NA,NA,1,6,"14,10,3,12,11,5,9,6,2,1,7,4,15,8,13"
14969,commdev-image-keyboard-response,566,1284480,learnblock2,559,img/planet4_left.png,4,Community 3,NA,TRUE,f,f,NA,NA,NA,1,6,"14,10,3,12,11,5,9,6,2,1,7,4,15,8,13"
14969,commdev-image-keyboard-response,567,1285732,learnblock2,1026,img/planet8_right.png,8,Community 3,NA,FALSE,f,j,NA,NA,NA,1,6,"14,10,3,12,11,5,9,6,2,1,7,4,15,8,13"
14969,commdev-image-keyboard-response,568,1286983,learnblock2,84,img/planet13_left.png,13,Community 3,NA,FALSE,j,f,NA,NA,NA,1,6,"14,10,3,12,11,5,9,6,2,1,7,4,15,8,13"
14969,commdev-image-keyboard-response,569,1288235,learnblock2,630,img/planet7_left.png,7,Community 3,NA,TRUE,f,f,NA,NA,NA,1,6,"14,10,3,12,11,5,9,6,2,1,7,4,15,8,13"
14969,commdev-image-keyboard-response,570,1289487,learnblock2,558.0000000002328,img/planet15_right.png,15,Community 3,NA,TRUE,j,j,NA,NA,NA,1,6,"14,10,3,12,11,5,9,6,2,1,7,4,15,8,13"
14969,commdev-image-keyboard-response,571,1290738,learnblock2,575,img/planet13_right.png,13,Community 3,NA,TRUE,j,j,NA,NA,NA,1,6,"14,10,3,12,11,5,9,6,2,1,7,4,15,8,13"
14969,commdev-image-keyboard-response,572,1291990,learnblock2,550,img/planet8_right.png,8,Community 3,NA,TRUE,j,j,NA,NA,NA,1,6,"14,10,3,12,11,5,9,6,2,1,7,4,15,8,13"
14969,commdev-image-keyboard-response,573,1293242,learnblock2,509,img/planet13_right.png,13,Community 3,NA,TRUE,j,j,NA,NA,NA,1,6,"14,10,3,12,11,5,9,6,2,1,7,4,15,8,13"
14969,commdev-image-keyboard-response,574,1294494,learnblock2,492,img/planet8_right.png,8,Community 3,NA,TRUE,j,j,NA,NA,NA,1,6,"14,10,3,12,11,5,9,6,2,1,7,4,15,8,13"
14969,commdev-image-keyboard-response,575,1295746,learnblock2,600,img/planet7_right.png,7,Community 3,NA,TRUE,j,j,NA,NA,NA,1,6,"14,10,3,12,11,5,9,6,2,1,7,4,15,8,13"
14969,commdev-image-keyboard-response,576,1296997,learnblock2,596,img/planet13_left.png,13,Community 3,NA,TRUE,f,f,NA,NA,NA,1,6,"14,10,3,12,11,5,9,6,2,1,7,4,15,8,13"
14969,commdev-image-keyboard-response,577,1298249,learnblock2,487,img/planet15_left.png,15,Community 3,NA,TRUE,f,f,NA,NA,NA,1,6,"14,10,3,12,11,5,9,6,2,1,7,4,15,8,13"
14969,commdev-image-keyboard-response,578,1299500,learnblock2,669.0000000002328,img/planet7_right.png,7,Community 3,NA,TRUE,j,j,NA,NA,NA,1,6,"14,10,3,12,11,5,9,6,2,1,7,4,15,8,13"
14969,commdev-image-keyboard-response,579,1300751,learnblock2,989,img/planet15_left.png,15,Community 3,NA,TRUE,f,f,NA,NA,NA,1,6,"14,10,3,12,11,5,9,6,2,1,7,4,15,8,13"
14969,commdev-image-keyboard-response,580,1302003,learnblock2,591,img/planet13_left.png,13,Community 3,NA,TRUE,f,f,NA,NA,NA,1,6,"14,10,3,12,11,5,9,6,2,1,7,4,15,8,13"
14969,commdev-image-keyboard-response,581,1303255,learnblock2,575,img/planet15_left.png,15,Community 3,NA,TRUE,f,f,NA,NA,NA,1,6,"14,10,3,12,11,5,9,6,2,1,7,4,15,8,13"
14969,commdev-image-keyboard-response,582,1304508,learnblock2,526,img/planet8_right.png,8,Community 3,NA,TRUE,j,j,NA,NA,NA,1,6,"14,10,3,12,11,5,9,6,2,1,7,4,15,8,13"
14969,commdev-image-keyboard-response,583,1305759,learnblock2,717,img/planet7_left.png,7,Community 3,NA,TRUE,f,f,NA,NA,NA,1,6,"14,10,3,12,11,5,9,6,2,1,7,4,15,8,13"
14969,commdev-image-keyboard-response,584,1307010,learnblock2,455,img/planet13_left.png,13,Community 3,NA,TRUE,f,f,NA,NA,NA,1,6,"14,10,3,12,11,5,9,6,2,1,7,4,15,8,13"
14969,commdev-image-keyboard-response,585,1308263,learnblock2,521,img/planet8_right.png,8,Community 3,NA,FALSE,f,j,NA,NA,NA,1,6,"14,10,3,12,11,5,9,6,2,1,7,4,15,8,13"
14969,commdev-image-keyboard-response,586,1309514,learnblock2,505,img/planet13_left.png,13,Community 3,NA,TRUE,f,f,NA,NA,NA,1,6,"14,10,3,12,11,5,9,6,2,1,7,4,15,8,13"
14969,commdev-image-keyboard-response,587,1310766,learnblock2,539,img/planet4_left.png,4,Community 3,NA,TRUE,f,f,NA,NA,NA,1,6,"14,10,3,12,11,5,9,6,2,1,7,4,15,8,13"
14969,commdev-image-keyboard-response,588,1312018,learnblock2,518.0000000002328,img/planet15_right.png,15,Community 3,NA,FALSE,f,j,NA,NA,NA,1,6,"14,10,3,12,11,5,9,6,2,1,7,4,15,8,13"
14969,commdev-image-keyboard-response,589,1313270,learnblock2,550,img/planet8_right.png,8,Community 3,NA,TRUE,j,j,NA,NA,NA,1,6,"14,10,3,12,11,5,9,6,2,1,7,4,15,8,13"
14969,commdev-image-keyboard-response,590,1314522,learnblock2,1191,img/planet15_left.png,15,Community 3,NA,TRUE,f,f,NA,NA,NA,1,6,"14,10,3,12,11,5,9,6,2,1,7,4,15,8,13"
14969,commdev-image-keyboard-response,591,1315773,learnblock2,603,img/planet4_left.png,4,Community 3,NA,TRUE,f,f,NA,NA,NA,1,6,"14,10,3,12,11,5,9,6,2,1,7,4,15,8,13"
14969,commdev-image-keyboard-response,592,1317025,learnblock2,573,img/planet15_right.png,15,Community 3,NA,TRUE,j,j,NA,NA,NA,1,6,"14,10,3,12,11,5,9,6,2,1,7,4,15,8,13"
14969,commdev-image-keyboard-response,593,1318277,learnblock2,828,img/planet7_right.png,7,Community 3,NA,TRUE,j,j,NA,NA,NA,1,6,"14,10,3,12,11,5,9,6,2,1,7,4,15,8,13"
14969,commdev-image-keyboard-response,594,1319529,learnblock2,552,img/planet13_left.png,13,Community 3,NA,TRUE,f,f,NA,NA,NA,1,6,"14,10,3,12,11,5,9,6,2,1,7,4,15,8,13"
14969,commdev-image-keyboard-response,595,1320780,learnblock2,498,img/planet4_right.png,4,Community 3,NA,FALSE,f,j,NA,NA,NA,1,6,"14,10,3,12,11,5,9,6,2,1,7,4,15,8,13"
14969,commdev-image-keyboard-response,596,1322032,learnblock2,762.0000000002328,img/planet13_right.png,13,Community 3,NA,TRUE,j,j,NA,NA,NA,1,6,"14,10,3,12,11,5,9,6,2,1,7,4,15,8,13"
14969,commdev-image-keyboard-response,597,1323284,learnblock2,542,img/planet8_left.png,8,Community 3,NA,TRUE,f,f,NA,NA,NA,1,6,"14,10,3,12,11,5,9,6,2,1,7,4,15,8,13"
14969,commdev-image-keyboard-response,598,1324536,learnblock2,711,img/planet15_left.png,15,Community 3,NA,TRUE,f,f,NA,NA,NA,1,6,"14,10,3,12,11,5,9,6,2,1,7,4,15,8,13"
14969,commdev-image-keyboard-response,599,1325788,learnblock2,836,img/planet7_left.png,7,Community 3,NA,TRUE,f,f,NA,NA,NA,1,6,"14,10,3,12,11,5,9,6,2,1,7,4,15,8,13"
14969,commdev-image-keyboard-response,600,1327039,learnblock2,627,img/planet8_left.png,8,Community 3,NA,FALSE,j,f,NA,NA,NA,1,6,"14,10,3,12,11,5,9,6,2,1,7,4,15,8,13"
14969,commdev-image-keyboard-response,601,1328290,learnblock2,662,img/planet7_right.png,7,Community 3,NA,TRUE,j,j,NA,NA,NA,1,6,"14,10,3,12,11,5,9,6,2,1,7,4,15,8,13"
14969,commdev-image-keyboard-response,602,1329542,learnblock2,605,img/planet15_right.png,15,Community 3,NA,TRUE,j,j,NA,NA,NA,1,6,"14,10,3,12,11,5,9,6,2,1,7,4,15,8,13"
14969,commdev-image-keyboard-response,603,1330794,learnblock2,554.9999999997672,img/planet13_left.png,13,Community 3,NA,TRUE,f,f,NA,NA,NA,1,6,"14,10,3,12,11,5,9,6,2,1,7,4,15,8,13"
14969,commdev-image-keyboard-response,604,1332046,learnblock2,595,img/planet15_right.png,15,Community 3,NA,TRUE,j,j,NA,NA,NA,1,6,"14,10,3,12,11,5,9,6,2,1,7,4,15,8,13"
14969,commdev-image-keyboard-response,605,1333298,learnblock2,573.0000000002328,img/planet13_right.png,13,Community 3,NA,TRUE,j,j,NA,NA,NA,1,6,"14,10,3,12,11,5,9,6,2,1,7,4,15,8,13"
14969,commdev-image-keyboard-response,606,1334548,learnblock2,745.0000000002328,img/planet7_right.png,7,Community 3,NA,TRUE,j,j,NA,NA,NA,1,6,"14,10,3,12,11,5,9,6,2,1,7,4,15,8,13"
14969,commdev-image-keyboard-response,607,1335800,learnblock2,631,img/planet15_right.png,15,Community 3,NA,TRUE,j,j,NA,NA,NA,1,6,"14,10,3,12,11,5,9,6,2,1,7,4,15,8,13"
14969,commdev-image-keyboard-response,608,1337052,learnblock2,489,img/planet4_left.png,4,Community 3,NA,TRUE,f,f,NA,NA,NA,1,6,"14,10,3,12,11,5,9,6,2,1,7,4,15,8,13"
14969,commdev-image-keyboard-response,609,1338303,learnblock2,668.9999999997672,img/planet8_right.png,8,Community 3,NA,TRUE,j,j,NA,NA,NA,1,6,"14,10,3,12,11,5,9,6,2,1,7,4,15,8,13"
14969,commdev-image-keyboard-response,610,1339554,learnblock2,568,img/planet4_left.png,4,Community 3,NA,TRUE,f,f,NA,NA,NA,1,6,"14,10,3,12,11,5,9,6,2,1,7,4,15,8,13"
14969,commdev-image-keyboard-response,611,1340806,learnblock2,611,img/planet15_left.png,15,Community 3,NA,TRUE,f,f,NA,NA,NA,1,6,"14,10,3,12,11,5,9,6,2,1,7,4,15,8,13"
14969,commdev-image-keyboard-response,612,1342058,learnblock2,550,img/planet13_left.png,13,Community 3,NA,TRUE,f,f,NA,NA,NA,1,6,"14,10,3,12,11,5,9,6,2,1,7,4,15,8,13"
14969,commdev-image-keyboard-response,613,1343310,learnblock2,523.0000000002328,img/planet4_right.png,4,Community 3,NA,TRUE,j,j,NA,NA,NA,1,6,"14,10,3,12,11,5,9,6,2,1,7,4,15,8,13"
14969,commdev-image-keyboard-response,614,1344562,learnblock2,666,img/planet6_right.png,6,Community 2,NA,TRUE,j,j,NA,NA,NA,1,6,"14,10,3,12,11,5,9,6,2,1,7,4,15,8,13"
14969,commdev-image-keyboard-response,615,1345814,learnblock2,484.99999999976717,img/planet4_right.png,4,Community 3,NA,TRUE,j,j,NA,NA,NA,1,6,"14,10,3,12,11,5,9,6,2,1,7,4,15,8,13"
14969,commdev-image-keyboard-response,616,1347066,learnblock2,498.00000000023283,img/planet13_left.png,13,Community 3,NA,FALSE,j,f,NA,NA,NA,1,6,"14,10,3,12,11,5,9,6,2,1,7,4,15,8,13"
14969,commdev-image-keyboard-response,617,1348318,learnblock2,641,img/planet4_left.png,4,Community 3,NA,TRUE,f,f,NA,NA,NA,1,6,"14,10,3,12,11,5,9,6,2,1,7,4,15,8,13"
14969,commdev-image-keyboard-response,618,1349570,learnblock2,652,img/planet6_left.png,6,Community 2,NA,TRUE,f,f,NA,NA,NA,1,6,"14,10,3,12,11,5,9,6,2,1,7,4,15,8,13"
14969,commdev-image-keyboard-response,619,1350821,learnblock2,503,img/planet2_left.png,2,Community 2,NA,TRUE,f,f,NA,NA,NA,1,6,"14,10,3,12,11,5,9,6,2,1,7,4,15,8,13"
14969,commdev-image-keyboard-response,620,1352073,learnblock2,654.9999999997672,img/planet6_right.png,6,Community 2,NA,TRUE,j,j,NA,NA,NA,1,6,"14,10,3,12,11,5,9,6,2,1,7,4,15,8,13"
14969,commdev-image-keyboard-response,621,1353325,learnblock2,709,img/planet4_right.png,4,Community 3,NA,TRUE,j,j,NA,NA,NA,1,6,"14,10,3,12,11,5,9,6,2,1,7,4,15,8,13"
14969,commdev-image-keyboard-response,622,1354576,learnblock2,703,img/planet13_left.png,13,Community 3,NA,TRUE,f,f,NA,NA,NA,1,6,"14,10,3,12,11,5,9,6,2,1,7,4,15,8,13"
14969,commdev-image-keyboard-response,623,1355827,learnblock2,449,img/planet4_right.png,4,Community 3,NA,TRUE,j,j,NA,NA,NA,1,6,"14,10,3,12,11,5,9,6,2,1,7,4,15,8,13"
14969,commdev-image-keyboard-response,624,1357078,learnblock2,716,img/planet6_left.png,6,Community 2,NA,FALSE,j,f,NA,NA,NA,1,6,"14,10,3,12,11,5,9,6,2,1,7,4,15,8,13"
14969,commdev-image-keyboard-response,625,1358330,learnblock2,591,img/planet2_right.png,2,Community 2,NA,TRUE,j,j,NA,NA,NA,1,6,"14,10,3,12,11,5,9,6,2,1,7,4,15,8,13"
14969,commdev-image-keyboard-response,626,1359582,learnblock2,574,img/planet5_left.png,5,Community 2,NA,TRUE,f,f,NA,NA,NA,1,6,"14,10,3,12,11,5,9,6,2,1,7,4,15,8,13"
14969,commdev-image-keyboard-response,627,1360834,learnblock2,543,img/planet2_right.png,2,Community 2,NA,TRUE,j,j,NA,NA,NA,1,6,"14,10,3,12,11,5,9,6,2,1,7,4,15,8,13"
14969,commdev-image-keyboard-response,628,1362087,learnblock2,477,img/planet6_left.png,6,Community 2,NA,TRUE,f,f,NA,NA,NA,1,6,"14,10,3,12,11,5,9,6,2,1,7,4,15,8,13"
14969,commdev-image-keyboard-response,629,1363339,learnblock2,499,img/planet9_right.png,9,Community 2,NA,TRUE,j,j,NA,NA,NA,1,6,"14,10,3,12,11,5,9,6,2,1,7,4,15,8,13"
14969,commdev-image-keyboard-response,630,1364591,learnblock2,572.9999999997672,img/planet2_left.png,2,Community 2,NA,TRUE,f,f,NA,NA,NA,1,6,"14,10,3,12,11,5,9,6,2,1,7,4,15,8,13"
14969,commdev-image-keyboard-response,631,1365844,learnblock2,552,img/planet5_left.png,5,Community 2,NA,TRUE,f,f,NA,NA,NA,1,6,"14,10,3,12,11,5,9,6,2,1,7,4,15,8,13"
14969,commdev-image-keyboard-response,632,1367095,learnblock2,729,img/planet9_right.png,9,Community 2,NA,TRUE,j,j,NA,NA,NA,1,6,"14,10,3,12,11,5,9,6,2,1,7,4,15,8,13"
14969,commdev-image-keyboard-response,633,1368346,learnblock2,563,img/planet5_right.png,5,Community 2,NA,TRUE,j,j,NA,NA,NA,1,6,"14,10,3,12,11,5,9,6,2,1,7,4,15,8,13"
14969,commdev-image-keyboard-response,634,1369597,learnblock2,605,img/planet12_right.png,12,Community 1,NA,TRUE,j,j,NA,NA,NA,1,6,"14,10,3,12,11,5,9,6,2,1,7,4,15,8,13"
14969,commdev-image-keyboard-response,635,1370849,learnblock2,724,img/planet10_left.png,10,Community 1,NA,TRUE,f,f,NA,NA,NA,1,6,"14,10,3,12,11,5,9,6,2,1,7,4,15,8,13"
14969,commdev-image-keyboard-response,636,1372101,learnblock2,433,img/planet11_left.png,11,Community 1,NA,TRUE,f,f,NA,NA,NA,1,6,"14,10,3,12,11,5,9,6,2,1,7,4,15,8,13"
14969,commdev-image-keyboard-response,637,1373353,learnblock2,487,img/planet3_left.png,3,Community 1,NA,TRUE,f,f,NA,NA,NA,1,6,"14,10,3,12,11,5,9,6,2,1,7,4,15,8,13"
14969,commdev-image-keyboard-response,638,1374604,learnblock2,611.0000000002328,img/planet14_left.png,14,Community 1,NA,TRUE,f,f,NA,NA,NA,1,6,"14,10,3,12,11,5,9,6,2,1,7,4,15,8,13"
14969,commdev-image-keyboard-response,639,1375855,learnblock2,672,img/planet12_left.png,12,Community 1,NA,TRUE,f,f,NA,NA,NA,1,6,"14,10,3,12,11,5,9,6,2,1,7,4,15,8,13"
14969,commdev-image-keyboard-response,640,1377108,learnblock2,488,img/planet5_left.png,5,Community 2,NA,TRUE,f,f,NA,NA,NA,1,6,"14,10,3,12,11,5,9,6,2,1,7,4,15,8,13"
14969,commdev-image-keyboard-response,641,1378359,learnblock2,584,img/planet1_right.png,1,Community 2,NA,TRUE,j,j,NA,NA,NA,1,6,"14,10,3,12,11,5,9,6,2,1,7,4,15,8,13"
14969,commdev-image-keyboard-response,642,1379612,learnblock2,583.9999999997672,img/planet5_left.png,5,Community 2,NA,TRUE,f,f,NA,NA,NA,1,6,"14,10,3,12,11,5,9,6,2,1,7,4,15,8,13"
14969,commdev-image-keyboard-response,643,1380864,learnblock2,525.0000000002328,img/planet9_left.png,9,Community 2,NA,TRUE,f,f,NA,NA,NA,1,6,"14,10,3,12,11,5,9,6,2,1,7,4,15,8,13"
14969,commdev-image-keyboard-response,644,1382115,learnblock2,780,img/planet5_right.png,5,Community 2,NA,TRUE,j,j,NA,NA,NA,1,6,"14,10,3,12,11,5,9,6,2,1,7,4,15,8,13"
14969,commdev-image-keyboard-response,645,1383366,learnblock2,593,img/planet9_right.png,9,Community 2,NA,TRUE,j,j,NA,NA,NA,1,6,"14,10,3,12,11,5,9,6,2,1,7,4,15,8,13"
14969,commdev-image-keyboard-response,646,1384617,learnblock2,601,img/planet1_left.png,1,Community 2,NA,TRUE,f,f,NA,NA,NA,1,6,"14,10,3,12,11,5,9,6,2,1,7,4,15,8,13"
14969,commdev-image-keyboard-response,647,1385869,learnblock2,599,img/planet5_left.png,5,Community 2,NA,TRUE,f,f,NA,NA,NA,1,6,"14,10,3,12,11,5,9,6,2,1,7,4,15,8,13"
14969,commdev-image-keyboard-response,648,1387121,learnblock2,706,img/planet1_right.png,1,Community 2,NA,TRUE,j,j,NA,NA,NA,1,6,"14,10,3,12,11,5,9,6,2,1,7,4,15,8,13"
14969,commdev-image-keyboard-response,649,1388373,learnblock2,602,img/planet9_left.png,9,Community 2,NA,TRUE,f,f,NA,NA,NA,1,6,"14,10,3,12,11,5,9,6,2,1,7,4,15,8,13"
14969,commdev-image-keyboard-response,650,1389625,learnblock2,555,img/planet5_left.png,5,Community 2,NA,TRUE,f,f,NA,NA,NA,1,6,"14,10,3,12,11,5,9,6,2,1,7,4,15,8,13"
14969,commdev-image-keyboard-response,651,1390876,learnblock2,433,img/planet9_left.png,9,Community 2,NA,TRUE,f,f,NA,NA,NA,1,6,"14,10,3,12,11,5,9,6,2,1,7,4,15,8,13"
14969,commdev-image-keyboard-response,652,1392127,learnblock2,490,img/planet2_left.png,2,Community 2,NA,TRUE,f,f,NA,NA,NA,1,6,"14,10,3,12,11,5,9,6,2,1,7,4,15,8,13"
14969,commdev-image-keyboard-response,653,1393379,learnblock2,471,img/planet5_right.png,5,Community 2,NA,FALSE,f,j,NA,NA,NA,1,6,"14,10,3,12,11,5,9,6,2,1,7,4,15,8,13"
14969,commdev-image-keyboard-response,654,1394632,learnblock2,592,img/planet12_left.png,12,Community 1,NA,TRUE,f,f,NA,NA,NA,1,6,"14,10,3,12,11,5,9,6,2,1,7,4,15,8,13"
14969,commdev-image-keyboard-response,655,1395884,learnblock2,451,img/planet10_left.png,10,Community 1,NA,TRUE,f,f,NA,NA,NA,1,6,"14,10,3,12,11,5,9,6,2,1,7,4,15,8,13"
14969,commdev-image-keyboard-response,656,1397136,learnblock2,669,img/planet12_left.png,12,Community 1,NA,TRUE,f,f,NA,NA,NA,1,6,"14,10,3,12,11,5,9,6,2,1,7,4,15,8,13"
14969,commdev-image-keyboard-response,657,1398388,learnblock2,603,img/planet3_left.png,3,Community 1,NA,TRUE,f,f,NA,NA,NA,1,6,"14,10,3,12,11,5,9,6,2,1,7,4,15,8,13"
14969,commdev-image-keyboard-response,658,1399639,learnblock2,584,img/planet14_right.png,14,Community 1,NA,TRUE,j,j,NA,NA,NA,1,6,"14,10,3,12,11,5,9,6,2,1,7,4,15,8,13"
14969,commdev-image-keyboard-response,659,1400891,learnblock2,823,img/planet3_right.png,3,Community 1,NA,TRUE,j,j,NA,NA,NA,1,6,"14,10,3,12,11,5,9,6,2,1,7,4,15,8,13"
14969,commdev-image-keyboard-response,660,1402143,learnblock2,791,img/planet11_left.png,11,Community 1,NA,TRUE,f,f,NA,NA,NA,1,6,"14,10,3,12,11,5,9,6,2,1,7,4,15,8,13"
14969,commdev-image-keyboard-response,661,1403395,learnblock2,643,img/planet14_left.png,14,Community 1,NA,TRUE,f,f,NA,NA,NA,1,6,"14,10,3,12,11,5,9,6,2,1,7,4,15,8,13"
14969,commdev-image-keyboard-response,662,1404647,learnblock2,621,img/planet10_right.png,10,Community 1,NA,TRUE,j,j,NA,NA,NA,1,6,"14,10,3,12,11,5,9,6,2,1,7,4,15,8,13"
14969,commdev-image-keyboard-response,663,1405899,learnblock2,561,img/planet11_left.png,11,Community 1,NA,FALSE,j,f,NA,NA,NA,1,6,"14,10,3,12,11,5,9,6,2,1,7,4,15,8,13"
14969,commdev-image-keyboard-response,664,1407151,learnblock2,589,img/planet14_left.png,14,Community 1,NA,TRUE,f,f,NA,NA,NA,1,6,"14,10,3,12,11,5,9,6,2,1,7,4,15,8,13"
14969,commdev-image-keyboard-response,665,1408403,learnblock2,503,img/planet11_left.png,11,Community 1,NA,TRUE,f,f,NA,NA,NA,1,6,"14,10,3,12,11,5,9,6,2,1,7,4,15,8,13"
14969,commdev-image-keyboard-response,666,1409655,learnblock2,673,img/planet3_right.png,3,Community 1,NA,TRUE,j,j,NA,NA,NA,1,6,"14,10,3,12,11,5,9,6,2,1,7,4,15,8,13"
14969,commdev-image-keyboard-response,667,1410907,learnblock2,497,img/planet10_right.png,10,Community 1,NA,TRUE,j,j,NA,NA,NA,1,6,"14,10,3,12,11,5,9,6,2,1,7,4,15,8,13"
14969,commdev-image-keyboard-response,668,1412158,learnblock2,819.9999999997672,img/planet3_left.png,3,Community 1,NA,TRUE,f,f,NA,NA,NA,1,6,"14,10,3,12,11,5,9,6,2,1,7,4,15,8,13"
14969,commdev-image-keyboard-response,669,1413410,learnblock2,573,img/planet11_right.png,11,Community 1,NA,TRUE,j,j,NA,NA,NA,1,6,"14,10,3,12,11,5,9,6,2,1,7,4,15,8,13"
14969,commdev-image-keyboard-response,670,1414661,learnblock2,572,img/planet10_right.png,10,Community 1,NA,TRUE,j,j,NA,NA,NA,1,6,"14,10,3,12,11,5,9,6,2,1,7,4,15,8,13"
14969,commdev-image-keyboard-response,671,1415912,learnblock2,552,img/planet11_right.png,11,Community 1,NA,TRUE,j,j,NA,NA,NA,1,6,"14,10,3,12,11,5,9,6,2,1,7,4,15,8,13"
14969,commdev-image-keyboard-response,672,1417164,learnblock2,669,img/planet7_left.png,7,Community 3,NA,TRUE,f,f,NA,NA,NA,1,6,"14,10,3,12,11,5,9,6,2,1,7,4,15,8,13"
14969,commdev-image-keyboard-response,673,1418416,learnblock2,614,img/planet8_left.png,8,Community 3,NA,TRUE,f,f,NA,NA,NA,1,6,"14,10,3,12,11,5,9,6,2,1,7,4,15,8,13"
14969,commdev-image-keyboard-response,674,1419668,learnblock2,512.9999999997672,img/planet7_left.png,7,Community 3,NA,TRUE,f,f,NA,NA,NA,1,6,"14,10,3,12,11,5,9,6,2,1,7,4,15,8,13"
14969,commdev-image-keyboard-response,675,1420919,learnblock2,554,img/planet11_right.png,11,Community 1,NA,TRUE,j,j,NA,NA,NA,1,6,"14,10,3,12,11,5,9,6,2,1,7,4,15,8,13"
14969,commdev-image-keyboard-response,676,1422170,learnblock2,639,img/planet10_right.png,10,Community 1,NA,TRUE,j,j,NA,NA,NA,1,6,"14,10,3,12,11,5,9,6,2,1,7,4,15,8,13"
14969,commdev-image-keyboard-response,677,1423422,learnblock2,684,img/planet3_left.png,3,Community 1,NA,FALSE,j,f,NA,NA,NA,1,6,"14,10,3,12,11,5,9,6,2,1,7,4,15,8,13"
14969,commdev-image-keyboard-response,678,1424674,learnblock2,603,img/planet10_left.png,10,Community 1,NA,TRUE,f,f,NA,NA,NA,1,6,"14,10,3,12,11,5,9,6,2,1,7,4,15,8,13"
14969,commdev-image-keyboard-response,679,1425925,learnblock2,794,img/planet14_right.png,14,Community 1,NA,TRUE,j,j,NA,NA,NA,1,6,"14,10,3,12,11,5,9,6,2,1,7,4,15,8,13"
14969,commdev-image-keyboard-response,680,1427177,learnblock2,619.9999999997672,img/planet11_left.png,11,Community 1,NA,TRUE,f,f,NA,NA,NA,1,6,"14,10,3,12,11,5,9,6,2,1,7,4,15,8,13"
14969,commdev-image-keyboard-response,681,1428429,learnblock2,570,img/planet10_left.png,10,Community 1,NA,TRUE,f,f,NA,NA,NA,1,6,"14,10,3,12,11,5,9,6,2,1,7,4,15,8,13"
14969,commdev-image-keyboard-response,682,1429681,learnblock2,551,img/planet11_left.png,11,Community 1,NA,TRUE,f,f,NA,NA,NA,1,6,"14,10,3,12,11,5,9,6,2,1,7,4,15,8,13"
14969,commdev-image-keyboard-response,683,1430933,learnblock2,669,img/planet14_right.png,14,Community 1,NA,TRUE,j,j,NA,NA,NA,1,6,"14,10,3,12,11,5,9,6,2,1,7,4,15,8,13"
14969,commdev-image-keyboard-response,684,1432185,learnblock2,625,img/planet12_right.png,12,Community 1,NA,TRUE,j,j,NA,NA,NA,1,6,"14,10,3,12,11,5,9,6,2,1,7,4,15,8,13"
14969,commdev-image-keyboard-response,685,1433436,learnblock2,653,img/planet14_left.png,14,Community 1,NA,TRUE,f,f,NA,NA,NA,1,6,"14,10,3,12,11,5,9,6,2,1,7,4,15,8,13"
14969,commdev-image-keyboard-response,686,1434687,learnblock2,566.0000000002328,img/planet11_right.png,11,Community 1,NA,TRUE,j,j,NA,NA,NA,1,6,"14,10,3,12,11,5,9,6,2,1,7,4,15,8,13"
14969,commdev-image-keyboard-response,687,1435940,learnblock2,604,img/planet14_left.png,14,Community 1,NA,TRUE,f,f,NA,NA,NA,1,6,"14,10,3,12,11,5,9,6,2,1,7,4,15,8,13"
14969,commdev-image-keyboard-response,688,1437192,learnblock2,551,img/planet3_right.png,3,Community 1,NA,TRUE,j,j,NA,NA,NA,1,6,"14,10,3,12,11,5,9,6,2,1,7,4,15,8,13"
14969,commdev-image-keyboard-response,689,1438443,learnblock2,624,img/planet12_left.png,12,Community 1,NA,TRUE,f,f,NA,NA,NA,1,6,"14,10,3,12,11,5,9,6,2,1,7,4,15,8,13"
14969,commdev-image-keyboard-response,690,1439695,learnblock2,617.0000000002328,img/planet3_left.png,3,Community 1,NA,TRUE,f,f,NA,NA,NA,1,6,"14,10,3,12,11,5,9,6,2,1,7,4,15,8,13"
14969,commdev-image-keyboard-response,691,1440946,learnblock2,481,img/planet12_left.png,12,Community 1,NA,TRUE,f,f,NA,NA,NA,1,6,"14,10,3,12,11,5,9,6,2,1,7,4,15,8,13"
14969,commdev-image-keyboard-response,692,1442197,learnblock2,653,img/planet3_right.png,3,Community 1,NA,TRUE,j,j,NA,NA,NA,1,6,"14,10,3,12,11,5,9,6,2,1,7,4,15,8,13"
14969,commdev-image-keyboard-response,693,1443449,learnblock2,746,img/planet12_right.png,12,Community 1,NA,TRUE,j,j,NA,NA,NA,1,6,"14,10,3,12,11,5,9,6,2,1,7,4,15,8,13"
14969,commdev-image-keyboard-response,694,1444701,learnblock2,596,img/planet5_left.png,5,Community 2,NA,TRUE,f,f,NA,NA,NA,1,6,"14,10,3,12,11,5,9,6,2,1,7,4,15,8,13"
14969,commdev-image-keyboard-response,695,1445953,learnblock2,685.0000000002328,img/planet1_left.png,1,Community 2,NA,TRUE,f,f,NA,NA,NA,1,6,"14,10,3,12,11,5,9,6,2,1,7,4,15,8,13"
14969,commdev-image-keyboard-response,696,1447205,learnblock2,716.9999999997672,img/planet2_left.png,2,Community 2,NA,TRUE,f,f,NA,NA,NA,1,6,"14,10,3,12,11,5,9,6,2,1,7,4,15,8,13"
14969,commdev-image-keyboard-response,697,1448457,learnblock2,742,img/planet1_right.png,1,Community 2,NA,TRUE,j,j,NA,NA,NA,1,6,"14,10,3,12,11,5,9,6,2,1,7,4,15,8,13"
14969,commdev-image-keyboard-response,698,1449709,learnblock2,510,img/planet6_left.png,6,Community 2,NA,TRUE,f,f,NA,NA,NA,1,6,"14,10,3,12,11,5,9,6,2,1,7,4,15,8,13"
14969,commdev-image-keyboard-response,699,1450961,learnblock2,676,img/planet1_right.png,1,Community 2,NA,TRUE,j,j,NA,NA,NA,1,6,"14,10,3,12,11,5,9,6,2,1,7,4,15,8,13"
14969,commdev-image-keyboard-response,700,1452213,learnblock2,534,img/planet9_right.png,9,Community 2,NA,TRUE,j,j,NA,NA,NA,1,6,"14,10,3,12,11,5,9,6,2,1,7,4,15,8,13"
14969,commdev-image-keyboard-response,701,1453465,learnblock2,676.9999999997672,img/planet2_left.png,2,Community 2,NA,TRUE,f,f,NA,NA,NA,1,6,"14,10,3,12,11,5,9,6,2,1,7,4,15,8,13"
14969,commdev-image-keyboard-response,702,1454717,learnblock2,574.0000000002328,img/planet6_right.png,6,Community 2,NA,TRUE,j,j,NA,NA,NA,1,6,"14,10,3,12,11,5,9,6,2,1,7,4,15,8,13"
14969,commdev-image-keyboard-response,703,1455969,learnblock2,526,img/planet9_left.png,9,Community 2,NA,TRUE,f,f,NA,NA,NA,1,6,"14,10,3,12,11,5,9,6,2,1,7,4,15,8,13"
14969,commdev-image-keyboard-response,704,1457221,learnblock2,640,img/planet6_right.png,6,Community 2,NA,TRUE,j,j,NA,NA,NA,1,6,"14,10,3,12,11,5,9,6,2,1,7,4,15,8,13"
14969,commdev-image-keyboard-response,705,1458473,learnblock2,503,img/planet1_right.png,1,Community 2,NA,TRUE,j,j,NA,NA,NA,1,6,"14,10,3,12,11,5,9,6,2,1,7,4,15,8,13"
14969,commdev-image-keyboard-response,706,1459725,learnblock2,565,img/planet5_left.png,5,Community 2,NA,TRUE,f,f,NA,NA,NA,1,6,"14,10,3,12,11,5,9,6,2,1,7,4,15,8,13"
14969,commdev-image-keyboard-response,707,1460977,learnblock2,547,img/planet9_left.png,9,Community 2,NA,TRUE,f,f,NA,NA,NA,1,6,"14,10,3,12,11,5,9,6,2,1,7,4,15,8,13"
14969,commdev-image-keyboard-response,708,1462229,learnblock2,690,img/planet6_left.png,6,Community 2,NA,TRUE,f,f,NA,NA,NA,1,6,"14,10,3,12,11,5,9,6,2,1,7,4,15,8,13"
14969,commdev-image-keyboard-response,709,1463481,learnblock2,527,img/planet2_left.png,2,Community 2,NA,TRUE,f,f,NA,NA,NA,1,6,"14,10,3,12,11,5,9,6,2,1,7,4,15,8,13"
14969,commdev-image-keyboard-response,710,1464732,learnblock2,616,img/planet6_right.png,6,Community 2,NA,TRUE,j,j,NA,NA,NA,1,6,"14,10,3,12,11,5,9,6,2,1,7,4,15,8,13"
14969,commdev-image-keyboard-response,711,1465984,learnblock2,406.99999999976717,img/planet1_right.png,1,Community 2,NA,FALSE,f,j,NA,NA,NA,1,6,"14,10,3,12,11,5,9,6,2,1,7,4,15,8,13"
14969,commdev-image-keyboard-response,712,1467236,learnblock2,583,img/planet6_right.png,6,Community 2,NA,TRUE,j,j,NA,NA,NA,1,6,"14,10,3,12,11,5,9,6,2,1,7,4,15,8,13"
14969,commdev-image-keyboard-response,713,1468488,learnblock2,558,img/planet2_right.png,2,Community 2,NA,TRUE,j,j,NA,NA,NA,1,6,"14,10,3,12,11,5,9,6,2,1,7,4,15,8,13"
14969,commdev-image-keyboard-response,714,1469740,learnblock2,471,img/planet1_right.png,1,Community 2,NA,TRUE,j,j,NA,NA,NA,1,6,"14,10,3,12,11,5,9,6,2,1,7,4,15,8,13"
14969,commdev-image-keyboard-response,715,1470992,learnblock2,443,img/planet2_left.png,2,Community 2,NA,FALSE,j,f,NA,NA,NA,1,6,"14,10,3,12,11,5,9,6,2,1,7,4,15,8,13"
14969,commdev-image-keyboard-response,716,1472244,learnblock2,572.9999999997672,img/planet9_left.png,9,Community 2,NA,TRUE,f,f,NA,NA,NA,1,6,"14,10,3,12,11,5,9,6,2,1,7,4,15,8,13"
14969,commdev-image-keyboard-response,717,1473496,learnblock2,549,img/planet5_left.png,5,Community 2,NA,TRUE,f,f,NA,NA,NA,1,6,"14,10,3,12,11,5,9,6,2,1,7,4,15,8,13"
14969,commdev-image-keyboard-response,718,1474748,learnblock2,552,img/planet2_left.png,2,Community 2,NA,TRUE,f,f,NA,NA,NA,1,6,"14,10,3,12,11,5,9,6,2,1,7,4,15,8,13"
14969,commdev-image-keyboard-response,719,1476000,learnblock2,557,img/planet5_left.png,5,Community 2,NA,TRUE,f,f,NA,NA,NA,1,6,"14,10,3,12,11,5,9,6,2,1,7,4,15,8,13"
14969,commdev-image-keyboard-response,720,1477251,learnblock2,580,img/planet12_left.png,12,Community 1,NA,TRUE,f,f,NA,NA,NA,1,6,"14,10,3,12,11,5,9,6,2,1,7,4,15,8,13"
14969,commdev-image-keyboard-response,721,1478503,learnblock2,484.99999999976717,img/planet3_left.png,3,Community 1,NA,TRUE,f,f,NA,NA,NA,1,6,"14,10,3,12,11,5,9,6,2,1,7,4,15,8,13"
14969,commdev-image-keyboard-response,722,1479754,learnblock2,458,img/planet10_left.png,10,Community 1,NA,TRUE,f,f,NA,NA,NA,1,6,"14,10,3,12,11,5,9,6,2,1,7,4,15,8,13"
14969,commdev-image-keyboard-response,723,1481006,learnblock2,516.0000000002328,img/planet14_left.png,14,Community 1,NA,TRUE,f,f,NA,NA,NA,1,6,"14,10,3,12,11,5,9,6,2,1,7,4,15,8,13"
14969,commdev-image-keyboard-response,724,1482258,learnblock2,517,img/planet10_left.png,10,Community 1,NA,TRUE,f,f,NA,NA,NA,1,6,"14,10,3,12,11,5,9,6,2,1,7,4,15,8,13"
14969,commdev-image-keyboard-response,725,1483510,learnblock2,596,img/planet11_right.png,11,Community 1,NA,TRUE,j,j,NA,NA,NA,1,6,"14,10,3,12,11,5,9,6,2,1,7,4,15,8,13"
14969,commdev-image-keyboard-response,726,1484761,learnblock2,544,img/planet14_right.png,14,Community 1,NA,TRUE,j,j,NA,NA,NA,1,6,"14,10,3,12,11,5,9,6,2,1,7,4,15,8,13"
14969,commdev-image-keyboard-response,727,1486013,learnblock2,595.0000000002328,img/planet11_left.png,11,Community 1,NA,TRUE,f,f,NA,NA,NA,1,6,"14,10,3,12,11,5,9,6,2,1,7,4,15,8,13"
14969,commdev-image-keyboard-response,728,1487265,learnblock2,508,img/planet14_left.png,14,Community 1,NA,TRUE,f,f,NA,NA,NA,1,6,"14,10,3,12,11,5,9,6,2,1,7,4,15,8,13"
14969,commdev-image-keyboard-response,729,1488517,learnblock2,502,img/planet11_left.png,11,Community 1,NA,TRUE,f,f,NA,NA,NA,1,6,"14,10,3,12,11,5,9,6,2,1,7,4,15,8,13"
14969,commdev-image-keyboard-response,730,1489770,learnblock2,577,img/planet3_right.png,3,Community 1,NA,TRUE,j,j,NA,NA,NA,1,6,"14,10,3,12,11,5,9,6,2,1,7,4,15,8,13"
14969,commdev-image-keyboard-response,731,1491021,learnblock2,586,img/planet14_left.png,14,Community 1,NA,TRUE,f,f,NA,NA,NA,1,6,"14,10,3,12,11,5,9,6,2,1,7,4,15,8,13"
14969,commdev-image-keyboard-response,732,1492273,learnblock2,534,img/planet10_right.png,10,Community 1,NA,TRUE,j,j,NA,NA,NA,1,6,"14,10,3,12,11,5,9,6,2,1,7,4,15,8,13"
14969,commdev-image-keyboard-response,733,1493525,learnblock2,570,img/planet14_left.png,14,Community 1,NA,TRUE,f,f,NA,NA,NA,1,6,"14,10,3,12,11,5,9,6,2,1,7,4,15,8,13"
14969,commdev-image-keyboard-response,734,1494777,learnblock2,476.00000000023283,img/planet10_right.png,10,Community 1,NA,TRUE,j,j,NA,NA,NA,1,6,"14,10,3,12,11,5,9,6,2,1,7,4,15,8,13"
14969,commdev-image-keyboard-response,735,1496029,learnblock2,484,img/planet11_left.png,11,Community 1,NA,TRUE,f,f,NA,NA,NA,1,6,"14,10,3,12,11,5,9,6,2,1,7,4,15,8,13"
14969,commdev-image-keyboard-response,736,1497280,learnblock2,491.00000000023283,img/planet10_left.png,10,Community 1,NA,TRUE,f,f,NA,NA,NA,1,6,"14,10,3,12,11,5,9,6,2,1,7,4,15,8,13"
14969,commdev-image-keyboard-response,737,1498531,learnblock2,628.9999999997672,img/planet3_left.png,3,Community 1,NA,TRUE,f,f,NA,NA,NA,1,6,"14,10,3,12,11,5,9,6,2,1,7,4,15,8,13"
14969,commdev-image-keyboard-response,738,1499783,learnblock2,413,img/planet14_left.png,14,Community 1,NA,TRUE,f,f,NA,NA,NA,1,6,"14,10,3,12,11,5,9,6,2,1,7,4,15,8,13"
14969,commdev-image-keyboard-response,739,1501035,learnblock2,651.0000000002328,img/planet3_right.png,3,Community 1,NA,TRUE,j,j,NA,NA,NA,1,6,"14,10,3,12,11,5,9,6,2,1,7,4,15,8,13"
14969,commdev-image-keyboard-response,740,1502287,learnblock2,650,img/planet14_right.png,14,Community 1,NA,TRUE,j,j,NA,NA,NA,1,6,"14,10,3,12,11,5,9,6,2,1,7,4,15,8,13"
14969,commdev-image-keyboard-response,741,1503538,learnblock2,492,img/planet10_left.png,10,Community 1,NA,FALSE,j,f,NA,NA,NA,1,6,"14,10,3,12,11,5,9,6,2,1,7,4,15,8,13"
14969,commdev-image-keyboard-response,742,1504790,learnblock2,507.99999999976717,img/planet12_left.png,12,Community 1,NA,TRUE,f,f,NA,NA,NA,1,6,"14,10,3,12,11,5,9,6,2,1,7,4,15,8,13"
14969,commdev-image-keyboard-response,743,1506041,learnblock2,435,img/planet5_left.png,5,Community 2,NA,TRUE,f,f,NA,NA,NA,1,6,"14,10,3,12,11,5,9,6,2,1,7,4,15,8,13"
14969,commdev-image-keyboard-response,744,1507293,learnblock2,566.0000000002328,img/planet9_left.png,9,Community 2,NA,TRUE,f,f,NA,NA,NA,1,6,"14,10,3,12,11,5,9,6,2,1,7,4,15,8,13"
14969,commdev-image-keyboard-response,745,1508544,learnblock2,613,img/planet5_right.png,5,Community 2,NA,TRUE,j,j,NA,NA,NA,1,6,"14,10,3,12,11,5,9,6,2,1,7,4,15,8,13"
14969,commdev-image-keyboard-response,746,1509796,learnblock2,540,img/planet2_right.png,2,Community 2,NA,TRUE,j,j,NA,NA,NA,1,6,"14,10,3,12,11,5,9,6,2,1,7,4,15,8,13"
14969,commdev-image-keyboard-response,747,1511048,learnblock2,629,img/planet9_left.png,9,Community 2,NA,TRUE,f,f,NA,NA,NA,1,6,"14,10,3,12,11,5,9,6,2,1,7,4,15,8,13"
14969,commdev-image-keyboard-response,748,1512301,learnblock2,513,img/planet1_right.png,1,Community 2,NA,TRUE,j,j,NA,NA,NA,1,6,"14,10,3,12,11,5,9,6,2,1,7,4,15,8,13"
14969,commdev-image-keyboard-response,749,1513553,learnblock2,615,img/planet6_right.png,6,Community 2,NA,TRUE,j,j,NA,NA,NA,1,6,"14,10,3,12,11,5,9,6,2,1,7,4,15,8,13"
14969,commdev-image-keyboard-response,750,1514805,learnblock2,601.0000000002328,img/planet4_right.png,4,Community 3,NA,TRUE,j,j,NA,NA,NA,1,6,"14,10,3,12,11,5,9,6,2,1,7,4,15,8,13"
14969,commdev-image-keyboard-response,751,1516057,learnblock2,568,img/planet8_right.png,8,Community 3,NA,TRUE,j,j,NA,NA,NA,1,6,"14,10,3,12,11,5,9,6,2,1,7,4,15,8,13"
14969,commdev-image-keyboard-response,752,1517309,learnblock2,599.9999999997672,img/planet4_right.png,4,Community 3,NA,TRUE,j,j,NA,NA,NA,1,6,"14,10,3,12,11,5,9,6,2,1,7,4,15,8,13"
14969,commdev-image-keyboard-response,753,1518560,learnblock2,626,img/planet6_left.png,6,Community 2,NA,TRUE,f,f,NA,NA,NA,1,6,"14,10,3,12,11,5,9,6,2,1,7,4,15,8,13"
14969,commdev-image-keyboard-response,754,1519812,learnblock2,553,img/planet9_left.png,9,Community 2,NA,TRUE,f,f,NA,NA,NA,1,6,"14,10,3,12,11,5,9,6,2,1,7,4,15,8,13"
14969,commdev-image-keyboard-response,755,1521064,learnblock2,661,img/planet6_left.png,6,Community 2,NA,TRUE,f,f,NA,NA,NA,1,6,"14,10,3,12,11,5,9,6,2,1,7,4,15,8,13"
14969,commdev-image-keyboard-response,756,1522316,learnblock2,631,img/planet1_left.png,1,Community 2,NA,TRUE,f,f,NA,NA,NA,1,6,"14,10,3,12,11,5,9,6,2,1,7,4,15,8,13"
14969,commdev-image-keyboard-response,757,1523568,learnblock2,522,img/planet6_left.png,6,Community 2,NA,TRUE,f,f,NA,NA,NA,1,6,"14,10,3,12,11,5,9,6,2,1,7,4,15,8,13"
14969,commdev-image-keyboard-response,758,1524820,learnblock2,528.0000000002328,img/planet4_right.png,4,Community 3,NA,TRUE,j,j,NA,NA,NA,1,6,"14,10,3,12,11,5,9,6,2,1,7,4,15,8,13"
14969,commdev-image-keyboard-response,759,1526072,learnblock2,519,img/planet8_right.png,8,Community 3,NA,TRUE,j,j,NA,NA,NA,1,6,"14,10,3,12,11,5,9,6,2,1,7,4,15,8,13"
14969,commdev-image-keyboard-response,760,1527324,learnblock2,496,img/planet13_right.png,13,Community 3,NA,TRUE,j,j,NA,NA,NA,1,6,"14,10,3,12,11,5,9,6,2,1,7,4,15,8,13"
14969,commdev-image-keyboard-response,761,1528576,learnblock2,586,img/planet8_left.png,8,Community 3,NA,TRUE,f,f,NA,NA,NA,1,6,"14,10,3,12,11,5,9,6,2,1,7,4,15,8,13"
14969,commdev-image-keyboard-response,762,1529828,learnblock2,637,img/planet7_left.png,7,Community 3,NA,TRUE,f,f,NA,NA,NA,1,6,"14,10,3,12,11,5,9,6,2,1,7,4,15,8,13"
14969,commdev-image-keyboard-response,763,1531079,learnblock2,620,img/planet11_right.png,11,Community 1,NA,TRUE,j,j,NA,NA,NA,1,6,"14,10,3,12,11,5,9,6,2,1,7,4,15,8,13"
14969,commdev-image-keyboard-response,764,1532330,learnblock2,472,img/planet10_right.png,10,Community 1,NA,TRUE,j,j,NA,NA,NA,1,6,"14,10,3,12,11,5,9,6,2,1,7,4,15,8,13"
14969,commdev-image-keyboard-response,765,1533581,learnblock2,558,img/planet3_left.png,3,Community 1,NA,TRUE,f,f,NA,NA,NA,1,6,"14,10,3,12,11,5,9,6,2,1,7,4,15,8,13"
14969,commdev-image-keyboard-response,766,1534833,learnblock2,593,img/planet10_left.png,10,Community 1,NA,TRUE,f,f,NA,NA,NA,1,6,"14,10,3,12,11,5,9,6,2,1,7,4,15,8,13"
14969,commdev-image-keyboard-response,767,1536085,learnblock2,670,img/planet14_right.png,14,Community 1,NA,TRUE,j,j,NA,NA,NA,1,6,"14,10,3,12,11,5,9,6,2,1,7,4,15,8,13"
14969,commdev-image-keyboard-response,768,1537337,learnblock2,580,img/planet11_right.png,11,Community 1,NA,TRUE,j,j,NA,NA,NA,1,6,"14,10,3,12,11,5,9,6,2,1,7,4,15,8,13"
14969,commdev-image-keyboard-response,769,1538589,learnblock2,587,img/planet7_left.png,7,Community 3,NA,TRUE,f,f,NA,NA,NA,1,6,"14,10,3,12,11,5,9,6,2,1,7,4,15,8,13"
14969,commdev-image-keyboard-response,770,1539841,learnblock2,627,img/planet11_left.png,11,Community 1,NA,TRUE,f,f,NA,NA,NA,1,6,"14,10,3,12,11,5,9,6,2,1,7,4,15,8,13"
14969,commdev-image-keyboard-response,771,1541093,learnblock2,532,img/planet14_left.png,14,Community 1,NA,TRUE,f,f,NA,NA,NA,1,6,"14,10,3,12,11,5,9,6,2,1,7,4,15,8,13"
14969,commdev-image-keyboard-response,772,1542345,learnblock2,520,img/planet11_left.png,11,Community 1,NA,TRUE,f,f,NA,NA,NA,1,6,"14,10,3,12,11,5,9,6,2,1,7,4,15,8,13"
14969,commdev-image-keyboard-response,773,1543597,learnblock2,477.99999999976717,img/planet10_left.png,10,Community 1,NA,TRUE,f,f,NA,NA,NA,1,6,"14,10,3,12,11,5,9,6,2,1,7,4,15,8,13"
14969,commdev-image-keyboard-response,774,1544849,learnblock2,503,img/planet3_right.png,3,Community 1,NA,FALSE,f,j,NA,NA,NA,1,6,"14,10,3,12,11,5,9,6,2,1,7,4,15,8,13"
14969,commdev-image-keyboard-response,775,1546101,learnblock2,574,img/planet12_left.png,12,Community 1,NA,TRUE,f,f,NA,NA,NA,1,6,"14,10,3,12,11,5,9,6,2,1,7,4,15,8,13"
14969,commdev-image-keyboard-response,776,1547352,learnblock2,628.0000000002328,img/planet14_right.png,14,Community 1,NA,TRUE,j,j,NA,NA,NA,1,6,"14,10,3,12,11,5,9,6,2,1,7,4,15,8,13"
14969,commdev-image-keyboard-response,777,1548603,learnblock2,542,img/planet12_left.png,12,Community 1,NA,TRUE,f,f,NA,NA,NA,1,6,"14,10,3,12,11,5,9,6,2,1,7,4,15,8,13"
14969,commdev-image-keyboard-response,778,1549855,learnblock2,508,img/planet3_right.png,3,Community 1,NA,TRUE,j,j,NA,NA,NA,1,6,"14,10,3,12,11,5,9,6,2,1,7,4,15,8,13"
14969,commdev-image-keyboard-response,779,1551106,learnblock2,640.9999999997672,img/planet10_right.png,10,Community 1,NA,TRUE,j,j,NA,NA,NA,1,6,"14,10,3,12,11,5,9,6,2,1,7,4,15,8,13"
14969,commdev-image-keyboard-response,780,1552357,learnblock2,626,img/planet11_left.png,11,Community 1,NA,TRUE,f,f,NA,NA,NA,1,6,"14,10,3,12,11,5,9,6,2,1,7,4,15,8,13"
