subject_id,trial_type,trial_index,time_elapsed,block,rt,stimulus,planet,community,response,correct,key_press,learning_correct_response,parse,init_locations,final_locations,browser_interactions,num_comp,planet_map
14930,commdev-instructions,7,39902,NA,1994.5,"<p>In this game, you will be shown a 3x3 grid of patterns.</p> <p>The last one in the bottom right-hand corner, <strong>will be missing:</strong></p> <div style='width: 700px;'><div style='float: top;'><img style='width: 200px;' src='practice/p1_M1.png'></img><p class='small'>You need to select<strong> which of the four possible patterns </strong>along the bottom<strong> fits into the gap:</strong></p></div><div style='float: top;'><img style='width: 300px;' src='practice/p1_T1.png'></img></div><br>",NA,NA,NA,NA,NA,NA,NA,NA,NA,111,6,"13,2,3,14,9,4,10,7,6,12,15,5,1,11,8"
14930,commdev-instructions,8,58781,NA,824.0999999940395,"<p>Try to be as fast and as accurate as you can be.</p> <p>If you cannot solve the puzzle then you should guess - you will not be penalised for an incorrect answer.</p> <p>The task contains a shuffled mix of easy, medium and hard puzzles.</p> <p>You will have <strong>30 seconds</strong> to complete each puzzle.</p><br>",NA,NA,NA,NA,NA,NA,NA,NA,NA,111,6,"13,2,3,14,9,4,10,7,6,12,15,5,1,11,8"
14930,commdev-instructions,15,88336,NA,1409.5,<p><strong>Success!</strong></p> <p>You seem to be getting the hang of this...</p> <p>Let's move on to the real trials.</p><br>,NA,NA,NA,NA,NA,NA,NA,NA,NA,111,6,"13,2,3,14,9,4,10,7,6,12,15,5,1,11,8"
14930,commdev-instructions,83,584640,NA,4393.9000000059605,"<p>In this game, you are a scientist on board a space shuttle. </p><p> On each mission, you will visit planets all across the universe.</p><img src=""img/controlroom.jpg"" width=300vw>",NA,NA,NA,NA,NA,NA,NA,NA,NA,111,6,"13,2,3,14,9,4,10,7,6,12,15,5,1,11,8"
14930,commdev-instructions,84,595724,NA,9008.09999999404,"<p>Here are a few planets you might see:</p><img src=""img/practice1.png"" width=200vw><img src=""img/practice2.png"" width=200vw><img src=""img/practice3.png"" width=200vw>",NA,NA,NA,NA,NA,NA,NA,NA,NA,111,6,"13,2,3,14,9,4,10,7,6,12,15,5,1,11,8"
14930,commdev-instructions,85,606744,NA,3619.4000000059605,"<p>Your job as a scientist is to record which direction the winds are moving on each planet.</p><p>There are two types of wind directions:</p><img src=""img/practice1_left.png"" width=200vw><img src=""img/practice1_right.png"" width=200vw>",NA,NA,NA,NA,NA,NA,NA,NA,NA,111,6,"13,2,3,14,9,4,10,7,6,12,15,5,1,11,8"
14930,commdev-instructions,86,615757,NA,4132.4000000059605,"<p>If the winds are moving this way, press the letter <strong>F</strong> on the keyboard as fast as you can.</p><img src=""img/leftwind.png"" width=250vw>",NA,NA,NA,NA,NA,NA,NA,NA,NA,111,6,"13,2,3,14,9,4,10,7,6,12,15,5,1,11,8"
14930,commdev-instructions,87,621217,NA,952.2999999821186,"<p>If the winds are moving this way, press the letter <strong>J</strong> on the keyboard as fast as you can.</p><img src=""img/rightwind.png"" width=350vw>",NA,NA,NA,NA,NA,NA,NA,NA,NA,111,6,"13,2,3,14,9,4,10,7,6,12,15,5,1,11,8"
14930,commdev-instructions,88,627073,NA,1429,<p>You will have 1 second to respond. Try to respond before the time runs out!,NA,NA,NA,NA,NA,NA,NA,NA,NA,111,6,"13,2,3,14,9,4,10,7,6,12,15,5,1,11,8"
14930,commdev-instructions,89,634372,NA,1867.7000000178814,<p>The planets you will visit will look different from each other.</p><p>You should respond <strong>only</strong> based on wind direction.,NA,NA,NA,NA,NA,NA,NA,NA,NA,111,6,"13,2,3,14,9,4,10,7,6,12,15,5,1,11,8"
14930,commdev-instructions,90,640681,NA,1136.3999999761581,"<p> Ready to start the practice round? </p><p> Remember, press <strong>F</strong> or <strong>J</strong> depending on the wind direction.<br><img src=""img/categorize_planet_example.png""",NA,NA,NA,NA,NA,NA,NA,NA,NA,111,6,"13,2,3,14,9,4,10,7,6,12,15,5,1,11,8"
14930,commdev-instructions,102,694458,NA,1548.9000000059605,"<p>Great, now try a short practice mission. </p><p> This time, you will have 1 second to respond and you won't know whether you pressed the right or wrong key for each planet.</p>",NA,NA,NA,NA,NA,NA,NA,NA,NA,111,6,"13,2,3,14,9,4,10,7,6,12,15,5,1,11,8"
14930,commdev-image-keyboard-response,103,695820,practice,1152.8999999761581,img/practice4_left.png,NA,Number not found in mappings,NA,TRUE,f,f,NA,NA,NA,111,6,"13,2,3,14,9,4,10,7,6,12,15,5,1,11,8"
14930,commdev-image-keyboard-response,104,697076,practice,692.5999999940395,img/practice1_left.png,NA,Number not found in mappings,NA,TRUE,f,f,NA,NA,NA,111,6,"13,2,3,14,9,4,10,7,6,12,15,5,1,11,8"
14930,commdev-image-keyboard-response,105,698329,practice,717.5999999940395,img/practice3_right.png,NA,Number not found in mappings,NA,TRUE,j,j,NA,NA,NA,111,6,"13,2,3,14,9,4,10,7,6,12,15,5,1,11,8"
14930,commdev-image-keyboard-response,106,699582,practice,724.6999999880791,img/practice1_left.png,NA,Number not found in mappings,NA,TRUE,f,f,NA,NA,NA,111,6,"13,2,3,14,9,4,10,7,6,12,15,5,1,11,8"
14930,commdev-image-keyboard-response,107,700847,practice,620.8000000119209,img/practice3_right.png,NA,Number not found in mappings,NA,TRUE,j,j,NA,NA,NA,111,6,"13,2,3,14,9,4,10,7,6,12,15,5,1,11,8"
14930,commdev-image-keyboard-response,108,702107,practice,842.9000000059605,img/practice2_right.png,NA,Number not found in mappings,NA,TRUE,j,j,NA,NA,NA,111,6,"13,2,3,14,9,4,10,7,6,12,15,5,1,11,8"
14930,commdev-image-keyboard-response,109,703361,practice,580.2999999821186,img/practice1_left.png,NA,Number not found in mappings,NA,TRUE,f,f,NA,NA,NA,111,6,"13,2,3,14,9,4,10,7,6,12,15,5,1,11,8"
14930,commdev-image-keyboard-response,110,704616,practice,610.5,img/practice2_right.png,NA,Number not found in mappings,NA,TRUE,j,j,NA,NA,NA,111,6,"13,2,3,14,9,4,10,7,6,12,15,5,1,11,8"
14930,commdev-instructions,111,715971,NA,1812.4000000059605,"<p>Great job with the practice round.</p><p>During real missions, you won't know whether you pressed the right or wrong key for each planet.</p><p>But between missions, we will tell you how you did overall.</p>",NA,NA,NA,NA,NA,NA,NA,NA,NA,111,6,"13,2,3,14,9,4,10,7,6,12,15,5,1,11,8"
14930,commdev-instructions,112,725801,NA,1592.5,<p>Try your best! You will be paid a bonus based on how many correct responses you make!</p><p>Responses that are too slow will not count toward your bonus.</p>,NA,NA,NA,NA,NA,NA,NA,NA,NA,111,6,"13,2,3,14,9,4,10,7,6,12,15,5,1,11,8"
14930,commdev-instructions,113,734020,NA,2022.5,"<p>You are almost ready to start the real game.</p><p> First, we are going to ask you some questions about how the game works.</p>",NA,NA,NA,NA,NA,NA,NA,NA,NA,111,6,"13,2,3,14,9,4,10,7,6,12,15,5,1,11,8"
14930,commdev-instructions,122,827649,NA,1071.699999988079,"<p> Nice work! It is now time to start the real game.<p></p>You will go on two missions to record wind directions of different planets.<p></p>Each one will take about 5 minutes. You will get to take a break between missions.<p><p> Remember, press <strong>F</strong> or <strong>J</strong> depending on the wind direction. Good luck!<br><img src=""img/categorize_planet_example.png""",NA,NA,NA,NA,NA,NA,NA,NA,NA,111,6,"13,2,3,14,9,4,10,7,6,12,15,5,1,11,8"
14930,commdev-image-keyboard-response,124,830732,learnblock1,null,img/planet2_right.png,2,Community 1,NA,FALSE,null,j,NA,NA,NA,111,6,"13,2,3,14,9,4,10,7,6,12,15,5,1,11,8"
14930,commdev-image-keyboard-response,125,831989,learnblock1,394.40000000596046,img/planet9_right.png,9,Community 1,NA,TRUE,j,j,NA,NA,NA,111,6,"13,2,3,14,9,4,10,7,6,12,15,5,1,11,8"
14930,commdev-image-keyboard-response,126,833247,learnblock1,804.3999999761581,img/planet13_right.png,13,Community 1,NA,TRUE,j,j,NA,NA,NA,111,6,"13,2,3,14,9,4,10,7,6,12,15,5,1,11,8"
14930,commdev-image-keyboard-response,127,834504,learnblock1,602.9000000059605,img/planet14_left.png,14,Community 1,NA,TRUE,f,f,NA,NA,NA,111,6,"13,2,3,14,9,4,10,7,6,12,15,5,1,11,8"
14930,commdev-image-keyboard-response,128,835759,learnblock1,993.8000000119209,img/planet13_left.png,13,Community 1,NA,TRUE,f,f,NA,NA,NA,111,6,"13,2,3,14,9,4,10,7,6,12,15,5,1,11,8"
14930,commdev-image-keyboard-response,129,837011,learnblock1,625.6999999880791,img/planet9_right.png,9,Community 1,NA,TRUE,j,j,NA,NA,NA,111,6,"13,2,3,14,9,4,10,7,6,12,15,5,1,11,8"
14930,commdev-image-keyboard-response,130,838263,learnblock1,807.5,img/planet3_left.png,3,Community 1,NA,TRUE,f,f,NA,NA,NA,111,6,"13,2,3,14,9,4,10,7,6,12,15,5,1,11,8"
14930,commdev-image-keyboard-response,131,839514,learnblock1,598.5,img/planet2_right.png,2,Community 1,NA,TRUE,j,j,NA,NA,NA,111,6,"13,2,3,14,9,4,10,7,6,12,15,5,1,11,8"
14930,commdev-image-keyboard-response,132,840771,learnblock1,980.3000000119209,img/planet14_right.png,14,Community 1,NA,TRUE,j,j,NA,NA,NA,111,6,"13,2,3,14,9,4,10,7,6,12,15,5,1,11,8"
14930,commdev-image-keyboard-response,133,842031,learnblock1,854,img/planet2_left.png,2,Community 1,NA,TRUE,f,f,NA,NA,NA,111,6,"13,2,3,14,9,4,10,7,6,12,15,5,1,11,8"
14930,commdev-image-keyboard-response,134,843288,learnblock1,556.8000000119209,img/planet9_right.png,9,Community 1,NA,TRUE,j,j,NA,NA,NA,111,6,"13,2,3,14,9,4,10,7,6,12,15,5,1,11,8"
14930,commdev-image-keyboard-response,135,844545,learnblock1,805.4000000059605,img/planet3_right.png,3,Community 1,NA,TRUE,j,j,NA,NA,NA,111,6,"13,2,3,14,9,4,10,7,6,12,15,5,1,11,8"
14930,commdev-image-keyboard-response,136,845805,learnblock1,554.0999999940395,img/planet2_left.png,2,Community 1,NA,TRUE,f,f,NA,NA,NA,111,6,"13,2,3,14,9,4,10,7,6,12,15,5,1,11,8"
14930,commdev-image-keyboard-response,137,847064,learnblock1,756.8000000119209,img/planet3_left.png,3,Community 1,NA,TRUE,f,f,NA,NA,NA,111,6,"13,2,3,14,9,4,10,7,6,12,15,5,1,11,8"
14930,commdev-image-keyboard-response,138,848322,learnblock1,599.8000000119209,img/planet9_right.png,9,Community 1,NA,TRUE,j,j,NA,NA,NA,111,6,"13,2,3,14,9,4,10,7,6,12,15,5,1,11,8"
14930,commdev-image-keyboard-response,139,849580,learnblock1,810.6999999880791,img/planet13_left.png,13,Community 1,NA,TRUE,f,f,NA,NA,NA,111,6,"13,2,3,14,9,4,10,7,6,12,15,5,1,11,8"
14930,commdev-image-keyboard-response,140,850837,learnblock1,1030.300000011921,img/planet14_right.png,14,Community 1,NA,TRUE,j,j,NA,NA,NA,111,6,"13,2,3,14,9,4,10,7,6,12,15,5,1,11,8"
14930,commdev-image-keyboard-response,141,852090,learnblock1,663.5999999940395,img/planet4_left.png,4,Community 2,NA,TRUE,f,f,NA,NA,NA,111,6,"13,2,3,14,9,4,10,7,6,12,15,5,1,11,8"
14930,commdev-image-keyboard-response,142,853349,learnblock1,804.6999999880791,img/planet12_left.png,12,Community 2,NA,TRUE,f,f,NA,NA,NA,111,6,"13,2,3,14,9,4,10,7,6,12,15,5,1,11,8"
14930,commdev-image-keyboard-response,143,854605,learnblock1,685.7000000178814,img/planet7_left.png,7,Community 2,NA,TRUE,f,f,NA,NA,NA,111,6,"13,2,3,14,9,4,10,7,6,12,15,5,1,11,8"
14930,commdev-image-keyboard-response,144,855863,learnblock1,898.7000000178814,img/planet6_right.png,6,Community 2,NA,TRUE,j,j,NA,NA,NA,111,6,"13,2,3,14,9,4,10,7,6,12,15,5,1,11,8"
14930,commdev-image-keyboard-response,145,857114,learnblock1,709.5999999940395,img/planet12_left.png,12,Community 2,NA,TRUE,f,f,NA,NA,NA,111,6,"13,2,3,14,9,4,10,7,6,12,15,5,1,11,8"
14930,commdev-image-keyboard-response,146,858365,learnblock1,679.4000000059605,img/planet4_right.png,4,Community 2,NA,TRUE,j,j,NA,NA,NA,111,6,"13,2,3,14,9,4,10,7,6,12,15,5,1,11,8"
14930,commdev-image-keyboard-response,147,859616,learnblock1,660.1000000238419,img/planet12_left.png,12,Community 2,NA,TRUE,f,f,NA,NA,NA,111,6,"13,2,3,14,9,4,10,7,6,12,15,5,1,11,8"
14930,commdev-image-keyboard-response,148,860867,learnblock1,559,img/planet4_right.png,4,Community 2,NA,TRUE,j,j,NA,NA,NA,111,6,"13,2,3,14,9,4,10,7,6,12,15,5,1,11,8"
14930,commdev-image-keyboard-response,149,862119,learnblock1,577.9000000059605,img/planet10_left.png,10,Community 2,NA,TRUE,f,f,NA,NA,NA,111,6,"13,2,3,14,9,4,10,7,6,12,15,5,1,11,8"
14930,commdev-image-keyboard-response,150,863370,learnblock1,508.90000000596046,img/planet4_right.png,4,Community 2,NA,TRUE,j,j,NA,NA,NA,111,6,"13,2,3,14,9,4,10,7,6,12,15,5,1,11,8"
14930,commdev-image-keyboard-response,151,864621,learnblock1,578,img/planet6_left.png,6,Community 2,NA,TRUE,f,f,NA,NA,NA,111,6,"13,2,3,14,9,4,10,7,6,12,15,5,1,11,8"
14930,commdev-image-keyboard-response,152,865873,learnblock1,628.9000000059605,img/planet12_left.png,12,Community 2,NA,TRUE,f,f,NA,NA,NA,111,6,"13,2,3,14,9,4,10,7,6,12,15,5,1,11,8"
14930,commdev-image-keyboard-response,153,867123,learnblock1,630.8000000119209,img/planet6_left.png,6,Community 2,NA,TRUE,f,f,NA,NA,NA,111,6,"13,2,3,14,9,4,10,7,6,12,15,5,1,11,8"
14930,commdev-image-keyboard-response,154,868375,learnblock1,726,img/planet7_right.png,7,Community 2,NA,FALSE,f,j,NA,NA,NA,111,6,"13,2,3,14,9,4,10,7,6,12,15,5,1,11,8"
14930,commdev-image-keyboard-response,155,869626,learnblock1,645.9000000059605,img/planet10_left.png,10,Community 2,NA,TRUE,f,f,NA,NA,NA,111,6,"13,2,3,14,9,4,10,7,6,12,15,5,1,11,8"
14930,commdev-image-keyboard-response,156,870877,learnblock1,569.6999999880791,img/planet4_right.png,4,Community 2,NA,TRUE,j,j,NA,NA,NA,111,6,"13,2,3,14,9,4,10,7,6,12,15,5,1,11,8"
14930,commdev-image-keyboard-response,157,872128,learnblock1,595.4000000059605,img/planet14_right.png,14,Community 1,NA,TRUE,j,j,NA,NA,NA,111,6,"13,2,3,14,9,4,10,7,6,12,15,5,1,11,8"
14930,commdev-image-keyboard-response,158,873379,learnblock1,604.8000000119209,img/planet4_left.png,4,Community 2,NA,TRUE,f,f,NA,NA,NA,111,6,"13,2,3,14,9,4,10,7,6,12,15,5,1,11,8"
14930,commdev-image-keyboard-response,159,874630,learnblock1,514.7000000178814,img/planet10_right.png,10,Community 2,NA,TRUE,j,j,NA,NA,NA,111,6,"13,2,3,14,9,4,10,7,6,12,15,5,1,11,8"
14930,commdev-image-keyboard-response,160,875881,learnblock1,898.4000000059605,img/planet12_right.png,12,Community 2,NA,TRUE,j,j,NA,NA,NA,111,6,"13,2,3,14,9,4,10,7,6,12,15,5,1,11,8"
14930,commdev-image-keyboard-response,161,877133,learnblock1,515,img/planet4_left.png,4,Community 2,NA,TRUE,f,f,NA,NA,NA,111,6,"13,2,3,14,9,4,10,7,6,12,15,5,1,11,8"
14930,commdev-image-keyboard-response,162,878384,learnblock1,649,img/planet10_left.png,10,Community 2,NA,TRUE,f,f,NA,NA,NA,111,6,"13,2,3,14,9,4,10,7,6,12,15,5,1,11,8"
14930,commdev-image-keyboard-response,163,879635,learnblock1,621.5999999940395,img/planet6_left.png,6,Community 2,NA,TRUE,f,f,NA,NA,NA,111,6,"13,2,3,14,9,4,10,7,6,12,15,5,1,11,8"
14930,commdev-image-keyboard-response,164,880887,learnblock1,590.4000000059605,img/planet4_left.png,4,Community 2,NA,TRUE,f,f,NA,NA,NA,111,6,"13,2,3,14,9,4,10,7,6,12,15,5,1,11,8"
14930,commdev-image-keyboard-response,165,882138,learnblock1,485.80000001192093,img/planet6_right.png,6,Community 2,NA,TRUE,j,j,NA,NA,NA,111,6,"13,2,3,14,9,4,10,7,6,12,15,5,1,11,8"
14930,commdev-image-keyboard-response,166,883389,learnblock1,551.7999999821186,img/planet12_left.png,12,Community 2,NA,TRUE,f,f,NA,NA,NA,111,6,"13,2,3,14,9,4,10,7,6,12,15,5,1,11,8"
14930,commdev-image-keyboard-response,167,884640,learnblock1,720.5999999940395,img/planet4_left.png,4,Community 2,NA,TRUE,f,f,NA,NA,NA,111,6,"13,2,3,14,9,4,10,7,6,12,15,5,1,11,8"
14930,commdev-image-keyboard-response,168,885891,learnblock1,641.4000000059605,img/planet14_right.png,14,Community 1,NA,TRUE,j,j,NA,NA,NA,111,6,"13,2,3,14,9,4,10,7,6,12,15,5,1,11,8"
14930,commdev-image-keyboard-response,169,887142,learnblock1,586.5,img/planet3_left.png,3,Community 1,NA,TRUE,f,f,NA,NA,NA,111,6,"13,2,3,14,9,4,10,7,6,12,15,5,1,11,8"
14930,commdev-image-keyboard-response,170,888404,learnblock1,614.0999999940395,img/planet2_left.png,2,Community 1,NA,TRUE,f,f,NA,NA,NA,111,6,"13,2,3,14,9,4,10,7,6,12,15,5,1,11,8"
14930,commdev-image-keyboard-response,171,889656,learnblock1,584.9000000059605,img/planet13_right.png,13,Community 1,NA,TRUE,j,j,NA,NA,NA,111,6,"13,2,3,14,9,4,10,7,6,12,15,5,1,11,8"
14930,commdev-image-keyboard-response,172,890908,learnblock1,831.5,img/planet9_right.png,9,Community 1,NA,TRUE,j,j,NA,NA,NA,111,6,"13,2,3,14,9,4,10,7,6,12,15,5,1,11,8"
14930,commdev-image-keyboard-response,173,892158,learnblock1,642.7000000178814,img/planet15_left.png,15,Community 3,NA,TRUE,f,f,NA,NA,NA,111,6,"13,2,3,14,9,4,10,7,6,12,15,5,1,11,8"
14930,commdev-image-keyboard-response,174,893410,learnblock1,541.1000000238419,img/planet9_right.png,9,Community 1,NA,TRUE,j,j,NA,NA,NA,111,6,"13,2,3,14,9,4,10,7,6,12,15,5,1,11,8"
14930,commdev-image-keyboard-response,175,894662,learnblock1,521.6999999880791,img/planet13_right.png,13,Community 1,NA,FALSE,f,j,NA,NA,NA,111,6,"13,2,3,14,9,4,10,7,6,12,15,5,1,11,8"
14930,commdev-image-keyboard-response,176,895913,learnblock1,551.5999999940395,img/planet9_right.png,9,Community 1,NA,TRUE,j,j,NA,NA,NA,111,6,"13,2,3,14,9,4,10,7,6,12,15,5,1,11,8"
14930,commdev-image-keyboard-response,177,897164,learnblock1,552.8000000119209,img/planet15_left.png,15,Community 3,NA,TRUE,f,f,NA,NA,NA,111,6,"13,2,3,14,9,4,10,7,6,12,15,5,1,11,8"
14930,commdev-image-keyboard-response,178,898415,learnblock1,516.8000000119209,img/planet1_right.png,1,Community 3,NA,TRUE,j,j,NA,NA,NA,111,6,"13,2,3,14,9,4,10,7,6,12,15,5,1,11,8"
14930,commdev-image-keyboard-response,179,899666,learnblock1,505.69999998807907,img/planet15_left.png,15,Community 3,NA,TRUE,f,f,NA,NA,NA,111,6,"13,2,3,14,9,4,10,7,6,12,15,5,1,11,8"
14930,commdev-image-keyboard-response,180,900932,learnblock1,589.5999999940395,img/planet9_left.png,9,Community 1,NA,TRUE,f,f,NA,NA,NA,111,6,"13,2,3,14,9,4,10,7,6,12,15,5,1,11,8"
14930,commdev-image-keyboard-response,181,902183,learnblock1,576.3000000119209,img/planet15_right.png,15,Community 3,NA,TRUE,j,j,NA,NA,NA,111,6,"13,2,3,14,9,4,10,7,6,12,15,5,1,11,8"
14930,commdev-image-keyboard-response,182,903434,learnblock1,563.3000000119209,img/planet8_left.png,8,Community 3,NA,TRUE,f,f,NA,NA,NA,111,6,"13,2,3,14,9,4,10,7,6,12,15,5,1,11,8"
14930,commdev-image-keyboard-response,183,904685,learnblock1,435.59999999403954,img/planet1_right.png,1,Community 3,NA,TRUE,j,j,NA,NA,NA,111,6,"13,2,3,14,9,4,10,7,6,12,15,5,1,11,8"
14930,commdev-image-keyboard-response,184,905937,learnblock1,568.5,img/planet11_left.png,11,Community 3,NA,TRUE,f,f,NA,NA,NA,111,6,"13,2,3,14,9,4,10,7,6,12,15,5,1,11,8"
14930,commdev-image-keyboard-response,185,907193,learnblock1,430.7000000178814,img/planet1_right.png,1,Community 3,NA,TRUE,j,j,NA,NA,NA,111,6,"13,2,3,14,9,4,10,7,6,12,15,5,1,11,8"
14930,commdev-image-keyboard-response,186,908445,learnblock1,500.59999999403954,img/planet5_left.png,5,Community 3,NA,TRUE,f,f,NA,NA,NA,111,6,"13,2,3,14,9,4,10,7,6,12,15,5,1,11,8"
14930,commdev-image-keyboard-response,187,909696,learnblock1,565,img/planet11_right.png,11,Community 3,NA,TRUE,j,j,NA,NA,NA,111,6,"13,2,3,14,9,4,10,7,6,12,15,5,1,11,8"
14930,commdev-image-keyboard-response,188,910947,learnblock1,661.3000000119209,img/planet5_left.png,5,Community 3,NA,TRUE,f,f,NA,NA,NA,111,6,"13,2,3,14,9,4,10,7,6,12,15,5,1,11,8"
14930,commdev-image-keyboard-response,189,912197,learnblock1,468.7000000178814,img/planet1_right.png,1,Community 3,NA,TRUE,j,j,NA,NA,NA,111,6,"13,2,3,14,9,4,10,7,6,12,15,5,1,11,8"
14930,commdev-image-keyboard-response,190,913449,learnblock1,532,img/planet5_right.png,5,Community 3,NA,TRUE,j,j,NA,NA,NA,111,6,"13,2,3,14,9,4,10,7,6,12,15,5,1,11,8"
14930,commdev-image-keyboard-response,191,914700,learnblock1,684.4000000059605,img/planet7_right.png,7,Community 2,NA,TRUE,j,j,NA,NA,NA,111,6,"13,2,3,14,9,4,10,7,6,12,15,5,1,11,8"
14930,commdev-image-keyboard-response,192,915951,learnblock1,575.2000000178814,img/planet6_right.png,6,Community 2,NA,TRUE,j,j,NA,NA,NA,111,6,"13,2,3,14,9,4,10,7,6,12,15,5,1,11,8"
14930,commdev-image-keyboard-response,193,917203,learnblock1,540,img/planet4_left.png,4,Community 2,NA,TRUE,f,f,NA,NA,NA,111,6,"13,2,3,14,9,4,10,7,6,12,15,5,1,11,8"
14930,commdev-image-keyboard-response,194,918454,learnblock1,675.6999999880791,img/planet12_left.png,12,Community 2,NA,TRUE,f,f,NA,NA,NA,111,6,"13,2,3,14,9,4,10,7,6,12,15,5,1,11,8"
14930,commdev-image-keyboard-response,195,919705,learnblock1,514.3000000119209,img/planet4_right.png,4,Community 2,NA,TRUE,j,j,NA,NA,NA,111,6,"13,2,3,14,9,4,10,7,6,12,15,5,1,11,8"
14930,commdev-image-keyboard-response,196,920956,learnblock1,863.1000000238419,img/planet12_right.png,12,Community 2,NA,TRUE,j,j,NA,NA,NA,111,6,"13,2,3,14,9,4,10,7,6,12,15,5,1,11,8"
14930,commdev-image-keyboard-response,197,922207,learnblock1,546.5,img/planet6_left.png,6,Community 2,NA,TRUE,f,f,NA,NA,NA,111,6,"13,2,3,14,9,4,10,7,6,12,15,5,1,11,8"
14930,commdev-image-keyboard-response,198,923467,learnblock1,589.4000000059605,img/planet4_left.png,4,Community 2,NA,TRUE,f,f,NA,NA,NA,111,6,"13,2,3,14,9,4,10,7,6,12,15,5,1,11,8"
14930,commdev-image-keyboard-response,199,924718,learnblock1,607.1000000238419,img/planet6_left.png,6,Community 2,NA,TRUE,f,f,NA,NA,NA,111,6,"13,2,3,14,9,4,10,7,6,12,15,5,1,11,8"
14930,commdev-image-keyboard-response,200,925970,learnblock1,464,img/planet12_right.png,12,Community 2,NA,TRUE,j,j,NA,NA,NA,111,6,"13,2,3,14,9,4,10,7,6,12,15,5,1,11,8"
14930,commdev-image-keyboard-response,201,927221,learnblock1,1047.9000000059605,img/planet10_left.png,10,Community 2,NA,TRUE,f,f,NA,NA,NA,111,6,"13,2,3,14,9,4,10,7,6,12,15,5,1,11,8"
14930,commdev-image-keyboard-response,202,928472,learnblock1,755.0999999940395,img/planet7_right.png,7,Community 2,NA,TRUE,j,j,NA,NA,NA,111,6,"13,2,3,14,9,4,10,7,6,12,15,5,1,11,8"
14930,commdev-image-keyboard-response,203,929723,learnblock1,837.0999999940395,img/planet10_right.png,10,Community 2,NA,TRUE,j,j,NA,NA,NA,111,6,"13,2,3,14,9,4,10,7,6,12,15,5,1,11,8"
14930,commdev-image-keyboard-response,204,930975,learnblock1,537.2000000178814,img/planet4_left.png,4,Community 2,NA,TRUE,f,f,NA,NA,NA,111,6,"13,2,3,14,9,4,10,7,6,12,15,5,1,11,8"
14930,commdev-image-keyboard-response,205,932226,learnblock1,630.6999999880791,img/planet14_left.png,14,Community 1,NA,TRUE,f,f,NA,NA,NA,111,6,"13,2,3,14,9,4,10,7,6,12,15,5,1,11,8"
14930,commdev-image-keyboard-response,206,933477,learnblock1,475.59999999403954,img/planet2_right.png,2,Community 1,NA,TRUE,j,j,NA,NA,NA,111,6,"13,2,3,14,9,4,10,7,6,12,15,5,1,11,8"
14930,commdev-image-keyboard-response,207,934729,learnblock1,614,img/planet13_right.png,13,Community 1,NA,TRUE,j,j,NA,NA,NA,111,6,"13,2,3,14,9,4,10,7,6,12,15,5,1,11,8"
14930,commdev-image-keyboard-response,208,935980,learnblock1,553.5999999940395,img/planet2_right.png,2,Community 1,NA,TRUE,j,j,NA,NA,NA,111,6,"13,2,3,14,9,4,10,7,6,12,15,5,1,11,8"
14930,commdev-image-keyboard-response,209,937231,learnblock1,733.1999999880791,img/planet9_left.png,9,Community 1,NA,TRUE,f,f,NA,NA,NA,111,6,"13,2,3,14,9,4,10,7,6,12,15,5,1,11,8"
14930,commdev-image-keyboard-response,210,938482,learnblock1,568.3000000119209,img/planet3_right.png,3,Community 1,NA,TRUE,j,j,NA,NA,NA,111,6,"13,2,3,14,9,4,10,7,6,12,15,5,1,11,8"
14930,commdev-image-keyboard-response,211,939733,learnblock1,576,img/planet13_right.png,13,Community 1,NA,TRUE,j,j,NA,NA,NA,111,6,"13,2,3,14,9,4,10,7,6,12,15,5,1,11,8"
14930,commdev-image-keyboard-response,212,940984,learnblock1,597.0999999940395,img/planet9_left.png,9,Community 1,NA,TRUE,f,f,NA,NA,NA,111,6,"13,2,3,14,9,4,10,7,6,12,15,5,1,11,8"
14930,commdev-image-keyboard-response,213,942235,learnblock1,767.0999999940395,img/planet2_left.png,2,Community 1,NA,TRUE,f,f,NA,NA,NA,111,6,"13,2,3,14,9,4,10,7,6,12,15,5,1,11,8"
14930,commdev-image-keyboard-response,214,943487,learnblock1,540.8000000119209,img/planet13_right.png,13,Community 1,NA,TRUE,j,j,NA,NA,NA,111,6,"13,2,3,14,9,4,10,7,6,12,15,5,1,11,8"
14930,commdev-image-keyboard-response,215,944738,learnblock1,635.8000000119209,img/planet3_right.png,3,Community 1,NA,TRUE,j,j,NA,NA,NA,111,6,"13,2,3,14,9,4,10,7,6,12,15,5,1,11,8"
14930,commdev-image-keyboard-response,216,945989,learnblock1,704.4000000059605,img/planet14_left.png,14,Community 1,NA,TRUE,f,f,NA,NA,NA,111,6,"13,2,3,14,9,4,10,7,6,12,15,5,1,11,8"
14930,commdev-image-keyboard-response,217,947240,learnblock1,987.8000000119209,img/planet2_left.png,2,Community 1,NA,TRUE,f,f,NA,NA,NA,111,6,"13,2,3,14,9,4,10,7,6,12,15,5,1,11,8"
14930,commdev-image-keyboard-response,218,948491,learnblock1,865.7000000178814,img/planet3_left.png,3,Community 1,NA,TRUE,f,f,NA,NA,NA,111,6,"13,2,3,14,9,4,10,7,6,12,15,5,1,11,8"
14930,commdev-image-keyboard-response,219,949742,learnblock1,630,img/planet9_right.png,9,Community 1,NA,TRUE,j,j,NA,NA,NA,111,6,"13,2,3,14,9,4,10,7,6,12,15,5,1,11,8"
14930,commdev-image-keyboard-response,220,950994,learnblock1,685.4000000059605,img/planet15_right.png,15,Community 3,NA,TRUE,j,j,NA,NA,NA,111,6,"13,2,3,14,9,4,10,7,6,12,15,5,1,11,8"
14930,commdev-image-keyboard-response,221,952245,learnblock1,663.4000000059605,img/planet9_right.png,9,Community 1,NA,TRUE,j,j,NA,NA,NA,111,6,"13,2,3,14,9,4,10,7,6,12,15,5,1,11,8"
14930,commdev-image-keyboard-response,222,953511,learnblock1,602.1000000238419,img/planet15_right.png,15,Community 3,NA,TRUE,j,j,NA,NA,NA,111,6,"13,2,3,14,9,4,10,7,6,12,15,5,1,11,8"
14930,commdev-image-keyboard-response,223,954762,learnblock1,571.5999999940395,img/planet1_right.png,1,Community 3,NA,TRUE,j,j,NA,NA,NA,111,6,"13,2,3,14,9,4,10,7,6,12,15,5,1,11,8"
14930,commdev-image-keyboard-response,224,956013,learnblock1,637.1000000238419,img/planet5_right.png,5,Community 3,NA,TRUE,j,j,NA,NA,NA,111,6,"13,2,3,14,9,4,10,7,6,12,15,5,1,11,8"
14930,commdev-image-keyboard-response,225,957264,learnblock1,696.1000000238419,img/planet1_left.png,1,Community 3,NA,TRUE,f,f,NA,NA,NA,111,6,"13,2,3,14,9,4,10,7,6,12,15,5,1,11,8"
14930,commdev-image-keyboard-response,226,958515,learnblock1,797,img/planet5_left.png,5,Community 3,NA,FALSE,j,f,NA,NA,NA,111,6,"13,2,3,14,9,4,10,7,6,12,15,5,1,11,8"
14930,commdev-image-keyboard-response,227,959767,learnblock1,764.5,img/planet11_left.png,11,Community 3,NA,TRUE,f,f,NA,NA,NA,111,6,"13,2,3,14,9,4,10,7,6,12,15,5,1,11,8"
14930,commdev-image-keyboard-response,228,961018,learnblock1,470.7000000178814,img/planet1_right.png,1,Community 3,NA,TRUE,j,j,NA,NA,NA,111,6,"13,2,3,14,9,4,10,7,6,12,15,5,1,11,8"
14930,commdev-image-keyboard-response,229,962271,learnblock1,668.6999999880791,img/planet8_right.png,8,Community 3,NA,TRUE,j,j,NA,NA,NA,111,6,"13,2,3,14,9,4,10,7,6,12,15,5,1,11,8"
14930,commdev-image-keyboard-response,230,963522,learnblock1,603.3000000119209,img/planet11_left.png,11,Community 3,NA,TRUE,f,f,NA,NA,NA,111,6,"13,2,3,14,9,4,10,7,6,12,15,5,1,11,8"
14930,commdev-image-keyboard-response,231,964774,learnblock1,997.4000000059605,img/planet5_left.png,5,Community 3,NA,TRUE,f,f,NA,NA,NA,111,6,"13,2,3,14,9,4,10,7,6,12,15,5,1,11,8"
14930,commdev-image-keyboard-response,232,966024,learnblock1,575.5999999940395,img/planet11_right.png,11,Community 3,NA,TRUE,j,j,NA,NA,NA,111,6,"13,2,3,14,9,4,10,7,6,12,15,5,1,11,8"
14930,commdev-image-keyboard-response,233,967275,learnblock1,678.1000000238419,img/planet15_right.png,15,Community 3,NA,TRUE,j,j,NA,NA,NA,111,6,"13,2,3,14,9,4,10,7,6,12,15,5,1,11,8"
14930,commdev-image-keyboard-response,234,968526,learnblock1,550.4000000059605,img/planet9_left.png,9,Community 1,NA,TRUE,f,f,NA,NA,NA,111,6,"13,2,3,14,9,4,10,7,6,12,15,5,1,11,8"
14930,commdev-image-keyboard-response,235,969777,learnblock1,619.5,img/planet15_left.png,15,Community 3,NA,TRUE,f,f,NA,NA,NA,111,6,"13,2,3,14,9,4,10,7,6,12,15,5,1,11,8"
14930,commdev-image-keyboard-response,236,971028,learnblock1,551.3999999761581,img/planet1_left.png,1,Community 3,NA,TRUE,f,f,NA,NA,NA,111,6,"13,2,3,14,9,4,10,7,6,12,15,5,1,11,8"
14930,commdev-image-keyboard-response,237,972280,learnblock1,539.9000000059605,img/planet5_right.png,5,Community 3,NA,TRUE,j,j,NA,NA,NA,111,6,"13,2,3,14,9,4,10,7,6,12,15,5,1,11,8"
14930,commdev-image-keyboard-response,238,973531,learnblock1,879.8000000119209,img/planet7_right.png,7,Community 2,NA,TRUE,j,j,NA,NA,NA,111,6,"13,2,3,14,9,4,10,7,6,12,15,5,1,11,8"
14930,commdev-image-keyboard-response,239,974782,learnblock1,971.6000000238419,img/planet10_left.png,10,Community 2,NA,TRUE,f,f,NA,NA,NA,111,6,"13,2,3,14,9,4,10,7,6,12,15,5,1,11,8"
14930,commdev-image-keyboard-response,240,976034,learnblock1,937.2999999821186,img/planet6_right.png,6,Community 2,NA,TRUE,j,j,NA,NA,NA,111,6,"13,2,3,14,9,4,10,7,6,12,15,5,1,11,8"
14930,commdev-image-keyboard-response,241,977285,learnblock1,541.7000000178814,img/planet10_left.png,10,Community 2,NA,TRUE,f,f,NA,NA,NA,111,6,"13,2,3,14,9,4,10,7,6,12,15,5,1,11,8"
14930,commdev-image-keyboard-response,242,978537,learnblock1,907.8000000119209,img/planet7_left.png,7,Community 2,NA,TRUE,f,f,NA,NA,NA,111,6,"13,2,3,14,9,4,10,7,6,12,15,5,1,11,8"
14930,commdev-image-keyboard-response,243,979787,learnblock1,556.8000000119209,img/planet12_right.png,12,Community 2,NA,TRUE,j,j,NA,NA,NA,111,6,"13,2,3,14,9,4,10,7,6,12,15,5,1,11,8"
14930,commdev-image-keyboard-response,244,981038,learnblock1,793.6000000238419,img/planet7_left.png,7,Community 2,NA,TRUE,f,f,NA,NA,NA,111,6,"13,2,3,14,9,4,10,7,6,12,15,5,1,11,8"
14930,commdev-image-keyboard-response,245,982288,learnblock1,584.7000000178814,img/planet6_left.png,6,Community 2,NA,TRUE,f,f,NA,NA,NA,111,6,"13,2,3,14,9,4,10,7,6,12,15,5,1,11,8"
14930,commdev-image-keyboard-response,246,983539,learnblock1,708.9000000059605,img/planet7_left.png,7,Community 2,NA,TRUE,f,f,NA,NA,NA,111,6,"13,2,3,14,9,4,10,7,6,12,15,5,1,11,8"
14930,commdev-image-keyboard-response,247,984790,learnblock1,568.4000000059605,img/planet5_right.png,5,Community 3,NA,TRUE,j,j,NA,NA,NA,111,6,"13,2,3,14,9,4,10,7,6,12,15,5,1,11,8"
14930,commdev-image-keyboard-response,248,986041,learnblock1,618.6999999880791,img/planet7_left.png,7,Community 2,NA,TRUE,f,f,NA,NA,NA,111,6,"13,2,3,14,9,4,10,7,6,12,15,5,1,11,8"
14930,commdev-image-keyboard-response,249,987292,learnblock1,557.3000000119209,img/planet12_right.png,12,Community 2,NA,TRUE,j,j,NA,NA,NA,111,6,"13,2,3,14,9,4,10,7,6,12,15,5,1,11,8"
14930,commdev-image-keyboard-response,250,988543,learnblock1,568.7000000178814,img/planet10_right.png,10,Community 2,NA,TRUE,j,j,NA,NA,NA,111,6,"13,2,3,14,9,4,10,7,6,12,15,5,1,11,8"
14930,commdev-image-keyboard-response,251,989794,learnblock1,655.4000000059605,img/planet7_left.png,7,Community 2,NA,TRUE,f,f,NA,NA,NA,111,6,"13,2,3,14,9,4,10,7,6,12,15,5,1,11,8"
14930,commdev-image-keyboard-response,252,991045,learnblock1,823.4000000059605,img/planet5_left.png,5,Community 3,NA,TRUE,f,f,NA,NA,NA,111,6,"13,2,3,14,9,4,10,7,6,12,15,5,1,11,8"
14930,commdev-image-keyboard-response,253,992295,learnblock1,573.9000000059605,img/planet8_right.png,8,Community 3,NA,TRUE,j,j,NA,NA,NA,111,6,"13,2,3,14,9,4,10,7,6,12,15,5,1,11,8"
14930,commdev-image-keyboard-response,254,993546,learnblock1,688.9000000059605,img/planet15_left.png,15,Community 3,NA,TRUE,f,f,NA,NA,NA,111,6,"13,2,3,14,9,4,10,7,6,12,15,5,1,11,8"
14930,commdev-image-keyboard-response,255,994798,learnblock1,488.7999999821186,img/planet1_right.png,1,Community 3,NA,TRUE,j,j,NA,NA,NA,111,6,"13,2,3,14,9,4,10,7,6,12,15,5,1,11,8"
14930,commdev-image-keyboard-response,256,996049,learnblock1,663.2000000178814,img/planet8_left.png,8,Community 3,NA,TRUE,f,f,NA,NA,NA,111,6,"13,2,3,14,9,4,10,7,6,12,15,5,1,11,8"
14930,commdev-image-keyboard-response,257,997300,learnblock1,500.10000002384186,img/planet1_right.png,1,Community 3,NA,TRUE,j,j,NA,NA,NA,111,6,"13,2,3,14,9,4,10,7,6,12,15,5,1,11,8"
14930,commdev-image-keyboard-response,258,998552,learnblock1,599,img/planet15_left.png,15,Community 3,NA,TRUE,f,f,NA,NA,NA,111,6,"13,2,3,14,9,4,10,7,6,12,15,5,1,11,8"
14930,commdev-image-keyboard-response,259,999803,learnblock1,535.9000000059605,img/planet1_right.png,1,Community 3,NA,TRUE,j,j,NA,NA,NA,111,6,"13,2,3,14,9,4,10,7,6,12,15,5,1,11,8"
14930,commdev-image-keyboard-response,260,1001053,learnblock1,589.7000000178814,img/planet11_right.png,11,Community 3,NA,FALSE,f,j,NA,NA,NA,111,6,"13,2,3,14,9,4,10,7,6,12,15,5,1,11,8"
14930,commdev-image-keyboard-response,261,1002304,learnblock1,640.5,img/planet15_right.png,15,Community 3,NA,TRUE,j,j,NA,NA,NA,111,6,"13,2,3,14,9,4,10,7,6,12,15,5,1,11,8"
14930,commdev-image-keyboard-response,262,1003555,learnblock1,533.2999999821186,img/planet1_right.png,1,Community 3,NA,TRUE,j,j,NA,NA,NA,111,6,"13,2,3,14,9,4,10,7,6,12,15,5,1,11,8"
14930,commdev-image-keyboard-response,263,1004806,learnblock1,573.8000000119209,img/planet15_right.png,15,Community 3,NA,TRUE,j,j,NA,NA,NA,111,6,"13,2,3,14,9,4,10,7,6,12,15,5,1,11,8"
14930,commdev-image-keyboard-response,264,1006057,learnblock1,500.39999997615814,img/planet11_left.png,11,Community 3,NA,TRUE,f,f,NA,NA,NA,111,6,"13,2,3,14,9,4,10,7,6,12,15,5,1,11,8"
14930,commdev-image-keyboard-response,265,1007308,learnblock1,592.4000000059605,img/planet5_left.png,5,Community 3,NA,TRUE,f,f,NA,NA,NA,111,6,"13,2,3,14,9,4,10,7,6,12,15,5,1,11,8"
14930,commdev-image-keyboard-response,266,1008560,learnblock1,670.0999999940395,img/planet8_left.png,8,Community 3,NA,TRUE,f,f,NA,NA,NA,111,6,"13,2,3,14,9,4,10,7,6,12,15,5,1,11,8"
14930,commdev-image-keyboard-response,267,1009817,learnblock1,461.5,img/planet11_left.png,11,Community 3,NA,TRUE,f,f,NA,NA,NA,111,6,"13,2,3,14,9,4,10,7,6,12,15,5,1,11,8"
14930,commdev-image-keyboard-response,268,1011067,learnblock1,596.9000000059605,img/planet5_right.png,5,Community 3,NA,TRUE,j,j,NA,NA,NA,111,6,"13,2,3,14,9,4,10,7,6,12,15,5,1,11,8"
14930,commdev-image-keyboard-response,269,1012318,learnblock1,763.5999999940395,img/planet8_right.png,8,Community 3,NA,TRUE,j,j,NA,NA,NA,111,6,"13,2,3,14,9,4,10,7,6,12,15,5,1,11,8"
14930,commdev-image-keyboard-response,270,1013569,learnblock1,667,img/planet15_right.png,15,Community 3,NA,TRUE,j,j,NA,NA,NA,111,6,"13,2,3,14,9,4,10,7,6,12,15,5,1,11,8"
14930,commdev-image-keyboard-response,271,1014820,learnblock1,728.4000000059605,img/planet1_left.png,1,Community 3,NA,TRUE,f,f,NA,NA,NA,111,6,"13,2,3,14,9,4,10,7,6,12,15,5,1,11,8"
14930,commdev-image-keyboard-response,272,1016071,learnblock1,569.8000000119209,img/planet5_right.png,5,Community 3,NA,TRUE,j,j,NA,NA,NA,111,6,"13,2,3,14,9,4,10,7,6,12,15,5,1,11,8"
14930,commdev-image-keyboard-response,273,1017322,learnblock1,720.6000000238419,img/planet8_right.png,8,Community 3,NA,TRUE,j,j,NA,NA,NA,111,6,"13,2,3,14,9,4,10,7,6,12,15,5,1,11,8"
14930,commdev-image-keyboard-response,274,1018574,learnblock1,859.5,img/planet15_right.png,15,Community 3,NA,TRUE,j,j,NA,NA,NA,111,6,"13,2,3,14,9,4,10,7,6,12,15,5,1,11,8"
14930,commdev-image-keyboard-response,275,1019825,learnblock1,795.8000000119209,img/planet8_left.png,8,Community 3,NA,TRUE,f,f,NA,NA,NA,111,6,"13,2,3,14,9,4,10,7,6,12,15,5,1,11,8"
14930,commdev-image-keyboard-response,276,1021076,learnblock1,591.7000000178814,img/planet5_right.png,5,Community 3,NA,TRUE,j,j,NA,NA,NA,111,6,"13,2,3,14,9,4,10,7,6,12,15,5,1,11,8"
14930,commdev-image-keyboard-response,277,1022327,learnblock1,656.7000000178814,img/planet1_left.png,1,Community 3,NA,TRUE,f,f,NA,NA,NA,111,6,"13,2,3,14,9,4,10,7,6,12,15,5,1,11,8"
14930,commdev-image-keyboard-response,278,1023579,learnblock1,605.7999999821186,img/planet5_right.png,5,Community 3,NA,TRUE,j,j,NA,NA,NA,111,6,"13,2,3,14,9,4,10,7,6,12,15,5,1,11,8"
14930,commdev-image-keyboard-response,279,1024830,learnblock1,1068.800000011921,img/planet7_left.png,7,Community 2,NA,TRUE,f,f,NA,NA,NA,111,6,"13,2,3,14,9,4,10,7,6,12,15,5,1,11,8"
14930,commdev-image-keyboard-response,280,1026081,learnblock1,1051.5,img/planet12_left.png,12,Community 2,NA,TRUE,f,f,NA,NA,NA,111,6,"13,2,3,14,9,4,10,7,6,12,15,5,1,11,8"
14930,commdev-image-keyboard-response,281,1027332,learnblock1,524.5,img/planet10_right.png,10,Community 2,NA,TRUE,j,j,NA,NA,NA,111,6,"13,2,3,14,9,4,10,7,6,12,15,5,1,11,8"
14930,commdev-image-keyboard-response,282,1028583,learnblock1,616.1999999880791,img/planet4_left.png,4,Community 2,NA,TRUE,f,f,NA,NA,NA,111,6,"13,2,3,14,9,4,10,7,6,12,15,5,1,11,8"
14930,commdev-image-keyboard-response,283,1029834,learnblock1,615.1999999880791,img/planet6_left.png,6,Community 2,NA,TRUE,f,f,NA,NA,NA,111,6,"13,2,3,14,9,4,10,7,6,12,15,5,1,11,8"
14930,commdev-image-keyboard-response,284,1031085,learnblock1,723.1000000238419,img/planet4_left.png,4,Community 2,NA,TRUE,f,f,NA,NA,NA,111,6,"13,2,3,14,9,4,10,7,6,12,15,5,1,11,8"
14930,commdev-image-keyboard-response,285,1032337,learnblock1,807,img/planet12_left.png,12,Community 2,NA,TRUE,f,f,NA,NA,NA,111,6,"13,2,3,14,9,4,10,7,6,12,15,5,1,11,8"
14930,commdev-image-keyboard-response,286,1033588,learnblock1,571.9000000059605,img/planet4_right.png,4,Community 2,NA,TRUE,j,j,NA,NA,NA,111,6,"13,2,3,14,9,4,10,7,6,12,15,5,1,11,8"
14930,commdev-image-keyboard-response,287,1034839,learnblock1,616.0999999940395,img/planet12_left.png,12,Community 2,NA,TRUE,f,f,NA,NA,NA,111,6,"13,2,3,14,9,4,10,7,6,12,15,5,1,11,8"
14930,commdev-image-keyboard-response,288,1036089,learnblock1,544.5999999940395,img/planet10_left.png,10,Community 2,NA,TRUE,f,f,NA,NA,NA,111,6,"13,2,3,14,9,4,10,7,6,12,15,5,1,11,8"
14930,commdev-image-keyboard-response,289,1037340,learnblock1,597.7999999821186,img/planet7_right.png,7,Community 2,NA,TRUE,j,j,NA,NA,NA,111,6,"13,2,3,14,9,4,10,7,6,12,15,5,1,11,8"
14930,commdev-image-keyboard-response,290,1038592,learnblock1,551.3000000119209,img/planet10_right.png,10,Community 2,NA,TRUE,j,j,NA,NA,NA,111,6,"13,2,3,14,9,4,10,7,6,12,15,5,1,11,8"
14930,commdev-image-keyboard-response,291,1039843,learnblock1,931.6000000238419,img/planet12_right.png,12,Community 2,NA,TRUE,j,j,NA,NA,NA,111,6,"13,2,3,14,9,4,10,7,6,12,15,5,1,11,8"
14930,commdev-image-keyboard-response,292,1041094,learnblock1,600.5999999940395,img/planet10_left.png,10,Community 2,NA,TRUE,f,f,NA,NA,NA,111,6,"13,2,3,14,9,4,10,7,6,12,15,5,1,11,8"
14930,commdev-image-keyboard-response,293,1042345,learnblock1,714.2999999821186,img/planet12_left.png,12,Community 2,NA,TRUE,f,f,NA,NA,NA,111,6,"13,2,3,14,9,4,10,7,6,12,15,5,1,11,8"
14930,commdev-image-keyboard-response,294,1043596,learnblock1,703.1999999880791,img/planet7_left.png,7,Community 2,NA,TRUE,f,f,NA,NA,NA,111,6,"13,2,3,14,9,4,10,7,6,12,15,5,1,11,8"
14930,commdev-image-keyboard-response,295,1044847,learnblock1,691.5999999940395,img/planet12_left.png,12,Community 2,NA,TRUE,f,f,NA,NA,NA,111,6,"13,2,3,14,9,4,10,7,6,12,15,5,1,11,8"
14930,commdev-image-keyboard-response,296,1046098,learnblock1,488.89999997615814,img/planet10_left.png,10,Community 2,NA,TRUE,f,f,NA,NA,NA,111,6,"13,2,3,14,9,4,10,7,6,12,15,5,1,11,8"
14930,commdev-image-keyboard-response,297,1047349,learnblock1,563.4000000059605,img/planet12_left.png,12,Community 2,NA,TRUE,f,f,NA,NA,NA,111,6,"13,2,3,14,9,4,10,7,6,12,15,5,1,11,8"
14930,commdev-image-keyboard-response,298,1048600,learnblock1,932.1999999880791,img/planet7_left.png,7,Community 2,NA,TRUE,f,f,NA,NA,NA,111,6,"13,2,3,14,9,4,10,7,6,12,15,5,1,11,8"
14930,commdev-image-keyboard-response,299,1049852,learnblock1,525,img/planet6_right.png,6,Community 2,NA,TRUE,j,j,NA,NA,NA,111,6,"13,2,3,14,9,4,10,7,6,12,15,5,1,11,8"
14930,commdev-image-keyboard-response,300,1051103,learnblock1,543.3000000119209,img/planet10_right.png,10,Community 2,NA,TRUE,j,j,NA,NA,NA,111,6,"13,2,3,14,9,4,10,7,6,12,15,5,1,11,8"
14930,commdev-image-keyboard-response,301,1052354,learnblock1,591.4000000059605,img/planet4_left.png,4,Community 2,NA,TRUE,f,f,NA,NA,NA,111,6,"13,2,3,14,9,4,10,7,6,12,15,5,1,11,8"
14930,commdev-image-keyboard-response,302,1053605,learnblock1,573.5,img/planet10_right.png,10,Community 2,NA,TRUE,j,j,NA,NA,NA,111,6,"13,2,3,14,9,4,10,7,6,12,15,5,1,11,8"
14930,commdev-image-keyboard-response,303,1054856,learnblock1,646.1999999880791,img/planet4_left.png,4,Community 2,NA,TRUE,f,f,NA,NA,NA,111,6,"13,2,3,14,9,4,10,7,6,12,15,5,1,11,8"
14930,commdev-image-keyboard-response,304,1056107,learnblock1,746.6999999880791,img/planet12_left.png,12,Community 2,NA,TRUE,f,f,NA,NA,NA,111,6,"13,2,3,14,9,4,10,7,6,12,15,5,1,11,8"
14930,commdev-image-keyboard-response,305,1057358,learnblock1,525,img/planet4_right.png,4,Community 2,NA,TRUE,j,j,NA,NA,NA,111,6,"13,2,3,14,9,4,10,7,6,12,15,5,1,11,8"
14930,commdev-image-keyboard-response,306,1058609,learnblock1,488.7999999821186,img/planet6_right.png,6,Community 2,NA,TRUE,j,j,NA,NA,NA,111,6,"13,2,3,14,9,4,10,7,6,12,15,5,1,11,8"
14930,commdev-image-keyboard-response,307,1059860,learnblock1,649.7999999821186,img/planet7_right.png,7,Community 2,NA,TRUE,j,j,NA,NA,NA,111,6,"13,2,3,14,9,4,10,7,6,12,15,5,1,11,8"
14930,commdev-image-keyboard-response,308,1061112,learnblock1,551.2000000178814,img/planet12_left.png,12,Community 2,NA,TRUE,f,f,NA,NA,NA,111,6,"13,2,3,14,9,4,10,7,6,12,15,5,1,11,8"
14930,commdev-image-keyboard-response,309,1062370,learnblock1,554.5,img/planet7_left.png,7,Community 2,NA,TRUE,f,f,NA,NA,NA,111,6,"13,2,3,14,9,4,10,7,6,12,15,5,1,11,8"
14930,commdev-image-keyboard-response,310,1063622,learnblock1,537.3000000119209,img/planet12_right.png,12,Community 2,NA,TRUE,j,j,NA,NA,NA,111,6,"13,2,3,14,9,4,10,7,6,12,15,5,1,11,8"
14930,commdev-image-keyboard-response,311,1064873,learnblock1,575.1999999880791,img/planet7_left.png,7,Community 2,NA,TRUE,f,f,NA,NA,NA,111,6,"13,2,3,14,9,4,10,7,6,12,15,5,1,11,8"
14930,commdev-image-keyboard-response,312,1066124,learnblock1,539.0999999940395,img/planet6_right.png,6,Community 2,NA,TRUE,j,j,NA,NA,NA,111,6,"13,2,3,14,9,4,10,7,6,12,15,5,1,11,8"
14930,commdev-image-keyboard-response,313,1067375,learnblock1,683.3999999761581,img/planet4_left.png,4,Community 2,NA,TRUE,f,f,NA,NA,NA,111,6,"13,2,3,14,9,4,10,7,6,12,15,5,1,11,8"
14930,commdev-image-keyboard-response,314,1068626,learnblock1,914.2999999821186,img/planet14_left.png,14,Community 1,NA,TRUE,f,f,NA,NA,NA,111,6,"13,2,3,14,9,4,10,7,6,12,15,5,1,11,8"
14930,commdev-image-keyboard-response,315,1069877,learnblock1,603,img/planet4_right.png,4,Community 2,NA,TRUE,j,j,NA,NA,NA,111,6,"13,2,3,14,9,4,10,7,6,12,15,5,1,11,8"
14930,commdev-image-keyboard-response,316,1071129,learnblock1,769.8000000119209,img/planet12_left.png,12,Community 2,NA,TRUE,f,f,NA,NA,NA,111,6,"13,2,3,14,9,4,10,7,6,12,15,5,1,11,8"
14930,commdev-image-keyboard-response,317,1072380,learnblock1,645.8000000119209,img/planet7_right.png,7,Community 2,NA,TRUE,j,j,NA,NA,NA,111,6,"13,2,3,14,9,4,10,7,6,12,15,5,1,11,8"
14930,commdev-image-keyboard-response,318,1073631,learnblock1,635.8000000119209,img/planet5_right.png,5,Community 3,NA,TRUE,j,j,NA,NA,NA,111,6,"13,2,3,14,9,4,10,7,6,12,15,5,1,11,8"
14930,commdev-image-keyboard-response,319,1074882,learnblock1,682.2999999821186,img/planet11_right.png,11,Community 3,NA,TRUE,j,j,NA,NA,NA,111,6,"13,2,3,14,9,4,10,7,6,12,15,5,1,11,8"
14930,commdev-image-keyboard-response,320,1076133,learnblock1,859,img/planet15_left.png,15,Community 3,NA,TRUE,f,f,NA,NA,NA,111,6,"13,2,3,14,9,4,10,7,6,12,15,5,1,11,8"
14930,commdev-image-keyboard-response,321,1077385,learnblock1,884.5,img/planet9_left.png,9,Community 1,NA,TRUE,f,f,NA,NA,NA,111,6,"13,2,3,14,9,4,10,7,6,12,15,5,1,11,8"
14930,commdev-image-keyboard-response,322,1078636,learnblock1,589.1999999880791,img/planet13_right.png,13,Community 1,NA,TRUE,j,j,NA,NA,NA,111,6,"13,2,3,14,9,4,10,7,6,12,15,5,1,11,8"
14930,commdev-image-keyboard-response,323,1079887,learnblock1,544.7000000178814,img/planet3_right.png,3,Community 1,NA,TRUE,j,j,NA,NA,NA,111,6,"13,2,3,14,9,4,10,7,6,12,15,5,1,11,8"
14930,commdev-image-keyboard-response,324,1081138,learnblock1,545.5,img/planet9_right.png,9,Community 1,NA,TRUE,j,j,NA,NA,NA,111,6,"13,2,3,14,9,4,10,7,6,12,15,5,1,11,8"
14930,commdev-image-keyboard-response,325,1082389,learnblock1,641.3999999761581,img/planet13_right.png,13,Community 1,NA,TRUE,j,j,NA,NA,NA,111,6,"13,2,3,14,9,4,10,7,6,12,15,5,1,11,8"
14930,commdev-image-keyboard-response,326,1083641,learnblock1,536,img/planet9_left.png,9,Community 1,NA,TRUE,f,f,NA,NA,NA,111,6,"13,2,3,14,9,4,10,7,6,12,15,5,1,11,8"
14930,commdev-image-keyboard-response,327,1084891,learnblock1,703.6000000238419,img/planet3_left.png,3,Community 1,NA,TRUE,f,f,NA,NA,NA,111,6,"13,2,3,14,9,4,10,7,6,12,15,5,1,11,8"
14930,commdev-image-keyboard-response,328,1086143,learnblock1,553.7999999821186,img/planet2_left.png,2,Community 1,NA,TRUE,f,f,NA,NA,NA,111,6,"13,2,3,14,9,4,10,7,6,12,15,5,1,11,8"
14930,commdev-image-keyboard-response,329,1087393,learnblock1,500.5,img/planet9_right.png,9,Community 1,NA,TRUE,j,j,NA,NA,NA,111,6,"13,2,3,14,9,4,10,7,6,12,15,5,1,11,8"
14930,commdev-image-keyboard-response,330,1088645,learnblock1,562.1999999880791,img/planet3_left.png,3,Community 1,NA,TRUE,f,f,NA,NA,NA,111,6,"13,2,3,14,9,4,10,7,6,12,15,5,1,11,8"
14930,commdev-image-keyboard-response,331,1089896,learnblock1,516.1999999880791,img/planet13_left.png,13,Community 1,NA,TRUE,f,f,NA,NA,NA,111,6,"13,2,3,14,9,4,10,7,6,12,15,5,1,11,8"
14930,commdev-image-keyboard-response,332,1091147,learnblock1,518.9000000059605,img/planet9_right.png,9,Community 1,NA,TRUE,j,j,NA,NA,NA,111,6,"13,2,3,14,9,4,10,7,6,12,15,5,1,11,8"
14930,commdev-image-keyboard-response,333,1092406,learnblock1,578.7999999821186,img/planet15_right.png,15,Community 3,NA,TRUE,j,j,NA,NA,NA,111,6,"13,2,3,14,9,4,10,7,6,12,15,5,1,11,8"
14930,commdev-image-keyboard-response,334,1093657,learnblock1,583.5,img/planet11_left.png,11,Community 3,NA,TRUE,f,f,NA,NA,NA,111,6,"13,2,3,14,9,4,10,7,6,12,15,5,1,11,8"
14930,commdev-image-keyboard-response,335,1094907,learnblock1,554.7000000178814,img/planet8_right.png,8,Community 3,NA,TRUE,j,j,NA,NA,NA,111,6,"13,2,3,14,9,4,10,7,6,12,15,5,1,11,8"
14930,commdev-image-keyboard-response,336,1096158,learnblock1,512.8999999761581,img/planet15_left.png,15,Community 3,NA,TRUE,f,f,NA,NA,NA,111,6,"13,2,3,14,9,4,10,7,6,12,15,5,1,11,8"
14930,commdev-image-keyboard-response,337,1097409,learnblock1,577.7999999821186,img/planet9_left.png,9,Community 1,NA,TRUE,f,f,NA,NA,NA,111,6,"13,2,3,14,9,4,10,7,6,12,15,5,1,11,8"
14930,commdev-image-keyboard-response,338,1098660,learnblock1,579.5,img/planet13_left.png,13,Community 1,NA,TRUE,f,f,NA,NA,NA,111,6,"13,2,3,14,9,4,10,7,6,12,15,5,1,11,8"
14930,commdev-image-keyboard-response,339,1099912,learnblock1,512,img/planet2_left.png,2,Community 1,NA,TRUE,f,f,NA,NA,NA,111,6,"13,2,3,14,9,4,10,7,6,12,15,5,1,11,8"
14930,commdev-image-keyboard-response,340,1101163,learnblock1,522.2999999821186,img/planet13_right.png,13,Community 1,NA,TRUE,j,j,NA,NA,NA,111,6,"13,2,3,14,9,4,10,7,6,12,15,5,1,11,8"
14930,commdev-image-keyboard-response,341,1102414,learnblock1,517.0999999940395,img/planet2_left.png,2,Community 1,NA,TRUE,f,f,NA,NA,NA,111,6,"13,2,3,14,9,4,10,7,6,12,15,5,1,11,8"
14930,commdev-image-keyboard-response,342,1103672,learnblock1,836.0999999940395,img/planet9_left.png,9,Community 1,NA,TRUE,f,f,NA,NA,NA,111,6,"13,2,3,14,9,4,10,7,6,12,15,5,1,11,8"
14930,commdev-image-keyboard-response,343,1104924,learnblock1,555.6999999880791,img/planet2_left.png,2,Community 1,NA,TRUE,f,f,NA,NA,NA,111,6,"13,2,3,14,9,4,10,7,6,12,15,5,1,11,8"
14930,commdev-image-keyboard-response,344,1106175,learnblock1,594.1999999880791,img/planet14_right.png,14,Community 1,NA,TRUE,j,j,NA,NA,NA,111,6,"13,2,3,14,9,4,10,7,6,12,15,5,1,11,8"
14930,commdev-image-keyboard-response,345,1107426,learnblock1,656.9000000059605,img/planet4_right.png,4,Community 2,NA,TRUE,j,j,NA,NA,NA,111,6,"13,2,3,14,9,4,10,7,6,12,15,5,1,11,8"
14930,commdev-image-keyboard-response,346,1108677,learnblock1,525.1999999880791,img/planet10_left.png,10,Community 2,NA,TRUE,f,f,NA,NA,NA,111,6,"13,2,3,14,9,4,10,7,6,12,15,5,1,11,8"
14930,commdev-image-keyboard-response,347,1109929,learnblock1,542.2999999821186,img/planet4_right.png,4,Community 2,NA,TRUE,j,j,NA,NA,NA,111,6,"13,2,3,14,9,4,10,7,6,12,15,5,1,11,8"
14930,commdev-image-keyboard-response,348,1111180,learnblock1,891.1999999880791,img/planet6_left.png,6,Community 2,NA,TRUE,f,f,NA,NA,NA,111,6,"13,2,3,14,9,4,10,7,6,12,15,5,1,11,8"
14930,commdev-image-keyboard-response,349,1112431,learnblock1,650.1999999880791,img/planet7_right.png,7,Community 2,NA,TRUE,j,j,NA,NA,NA,111,6,"13,2,3,14,9,4,10,7,6,12,15,5,1,11,8"
14930,commdev-image-keyboard-response,350,1113682,learnblock1,618.0999999940395,img/planet12_left.png,12,Community 2,NA,TRUE,f,f,NA,NA,NA,111,6,"13,2,3,14,9,4,10,7,6,12,15,5,1,11,8"
14930,commdev-image-keyboard-response,351,1114933,learnblock1,617.8999999761581,img/planet4_left.png,4,Community 2,NA,TRUE,f,f,NA,NA,NA,111,6,"13,2,3,14,9,4,10,7,6,12,15,5,1,11,8"
14930,commdev-image-keyboard-response,352,1116184,learnblock1,827.1999999880791,img/planet12_left.png,12,Community 2,NA,TRUE,f,f,NA,NA,NA,111,6,"13,2,3,14,9,4,10,7,6,12,15,5,1,11,8"
14930,commdev-image-keyboard-response,353,1117434,learnblock1,546.7000000178814,img/planet6_left.png,6,Community 2,NA,TRUE,f,f,NA,NA,NA,111,6,"13,2,3,14,9,4,10,7,6,12,15,5,1,11,8"
14930,commdev-image-keyboard-response,354,1118685,learnblock1,665.8999999761581,img/planet4_left.png,4,Community 2,NA,TRUE,f,f,NA,NA,NA,111,6,"13,2,3,14,9,4,10,7,6,12,15,5,1,11,8"
14930,commdev-image-keyboard-response,355,1119936,learnblock1,594.5999999940395,img/planet14_right.png,14,Community 1,NA,TRUE,j,j,NA,NA,NA,111,6,"13,2,3,14,9,4,10,7,6,12,15,5,1,11,8"
14930,commdev-image-keyboard-response,356,1121187,learnblock1,750.6000000238419,img/planet2_right.png,2,Community 1,NA,TRUE,j,j,NA,NA,NA,111,6,"13,2,3,14,9,4,10,7,6,12,15,5,1,11,8"
14930,commdev-image-keyboard-response,357,1122437,learnblock1,920.3999999761581,img/planet3_right.png,3,Community 1,NA,TRUE,j,j,NA,NA,NA,111,6,"13,2,3,14,9,4,10,7,6,12,15,5,1,11,8"
14930,commdev-image-keyboard-response,358,1123689,learnblock1,1000.7999999821186,img/planet14_left.png,14,Community 1,NA,TRUE,f,f,NA,NA,NA,111,6,"13,2,3,14,9,4,10,7,6,12,15,5,1,11,8"
14930,commdev-image-keyboard-response,359,1124940,learnblock1,448.5,img/planet13_left.png,13,Community 1,NA,TRUE,f,f,NA,NA,NA,111,6,"13,2,3,14,9,4,10,7,6,12,15,5,1,11,8"
14930,commdev-image-keyboard-response,360,1126191,learnblock1,629.7999999821186,img/planet9_right.png,9,Community 1,NA,TRUE,j,j,NA,NA,NA,111,6,"13,2,3,14,9,4,10,7,6,12,15,5,1,11,8"
14930,commdev-image-keyboard-response,361,1127442,learnblock1,616.6999999880791,img/planet15_left.png,15,Community 3,NA,TRUE,f,f,NA,NA,NA,111,6,"13,2,3,14,9,4,10,7,6,12,15,5,1,11,8"
14930,commdev-image-keyboard-response,362,1128693,learnblock1,573.1999999880791,img/planet8_right.png,8,Community 3,NA,TRUE,j,j,NA,NA,NA,111,6,"13,2,3,14,9,4,10,7,6,12,15,5,1,11,8"
14930,commdev-image-keyboard-response,363,1129945,learnblock1,610.6000000238419,img/planet11_left.png,11,Community 3,NA,TRUE,f,f,NA,NA,NA,111,6,"13,2,3,14,9,4,10,7,6,12,15,5,1,11,8"
14930,commdev-image-keyboard-response,364,1131196,learnblock1,519.7000000178814,img/planet8_right.png,8,Community 3,NA,TRUE,j,j,NA,NA,NA,111,6,"13,2,3,14,9,4,10,7,6,12,15,5,1,11,8"
14930,commdev-image-keyboard-response,365,1132447,learnblock1,815.2999999821186,img/planet11_right.png,11,Community 3,NA,TRUE,j,j,NA,NA,NA,111,6,"13,2,3,14,9,4,10,7,6,12,15,5,1,11,8"
14930,commdev-image-keyboard-response,366,1133698,learnblock1,646.5,img/planet15_right.png,15,Community 3,NA,TRUE,j,j,NA,NA,NA,111,6,"13,2,3,14,9,4,10,7,6,12,15,5,1,11,8"
14930,commdev-image-keyboard-response,367,1134949,learnblock1,539.2999999821186,img/planet1_right.png,1,Community 3,NA,TRUE,j,j,NA,NA,NA,111,6,"13,2,3,14,9,4,10,7,6,12,15,5,1,11,8"
14930,commdev-image-keyboard-response,368,1136200,learnblock1,696.0999999940395,img/planet8_left.png,8,Community 3,NA,TRUE,f,f,NA,NA,NA,111,6,"13,2,3,14,9,4,10,7,6,12,15,5,1,11,8"
14930,commdev-image-keyboard-response,369,1137451,learnblock1,665,img/planet15_right.png,15,Community 3,NA,TRUE,j,j,NA,NA,NA,111,6,"13,2,3,14,9,4,10,7,6,12,15,5,1,11,8"
14930,commdev-image-keyboard-response,370,1138702,learnblock1,800.1999999880791,img/planet11_right.png,11,Community 3,NA,TRUE,j,j,NA,NA,NA,111,6,"13,2,3,14,9,4,10,7,6,12,15,5,1,11,8"
14930,commdev-image-keyboard-response,371,1139953,learnblock1,704.5999999940395,img/planet5_left.png,5,Community 3,NA,TRUE,f,f,NA,NA,NA,111,6,"13,2,3,14,9,4,10,7,6,12,15,5,1,11,8"
14930,commdev-image-keyboard-response,372,1141204,learnblock1,683.8999999761581,img/planet8_left.png,8,Community 3,NA,TRUE,f,f,NA,NA,NA,111,6,"13,2,3,14,9,4,10,7,6,12,15,5,1,11,8"
14930,commdev-image-keyboard-response,373,1142455,learnblock1,428,img/planet11_left.png,11,Community 3,NA,TRUE,f,f,NA,NA,NA,111,6,"13,2,3,14,9,4,10,7,6,12,15,5,1,11,8"
14930,commdev-image-keyboard-response,374,1143706,learnblock1,560,img/planet15_right.png,15,Community 3,NA,TRUE,j,j,NA,NA,NA,111,6,"13,2,3,14,9,4,10,7,6,12,15,5,1,11,8"
14930,commdev-image-keyboard-response,375,1144957,learnblock1,520.2999999821186,img/planet8_right.png,8,Community 3,NA,TRUE,j,j,NA,NA,NA,111,6,"13,2,3,14,9,4,10,7,6,12,15,5,1,11,8"
14930,commdev-image-keyboard-response,376,1146208,learnblock1,557.7000000178814,img/planet5_left.png,5,Community 3,NA,TRUE,f,f,NA,NA,NA,111,6,"13,2,3,14,9,4,10,7,6,12,15,5,1,11,8"
14930,commdev-image-keyboard-response,377,1147459,learnblock1,570.2999999821186,img/planet7_right.png,7,Community 2,NA,TRUE,j,j,NA,NA,NA,111,6,"13,2,3,14,9,4,10,7,6,12,15,5,1,11,8"
14930,commdev-image-keyboard-response,378,1148710,learnblock1,743.1999999880791,img/planet6_right.png,6,Community 2,NA,TRUE,j,j,NA,NA,NA,111,6,"13,2,3,14,9,4,10,7,6,12,15,5,1,11,8"
14930,commdev-image-keyboard-response,379,1149961,learnblock1,690,img/planet12_right.png,12,Community 2,NA,TRUE,j,j,NA,NA,NA,111,6,"13,2,3,14,9,4,10,7,6,12,15,5,1,11,8"
14930,commdev-image-keyboard-response,380,1151213,learnblock1,554.4000000059605,img/planet4_left.png,4,Community 2,NA,TRUE,f,f,NA,NA,NA,111,6,"13,2,3,14,9,4,10,7,6,12,15,5,1,11,8"
14930,commdev-image-keyboard-response,381,1152464,learnblock1,875.5,img/planet14_left.png,14,Community 1,NA,TRUE,f,f,NA,NA,NA,111,6,"13,2,3,14,9,4,10,7,6,12,15,5,1,11,8"
14930,commdev-image-keyboard-response,382,1153715,learnblock1,580.6000000238419,img/planet3_right.png,3,Community 1,NA,TRUE,j,j,NA,NA,NA,111,6,"13,2,3,14,9,4,10,7,6,12,15,5,1,11,8"
14930,commdev-image-keyboard-response,383,1154966,learnblock1,580.5,img/planet9_left.png,9,Community 1,NA,TRUE,f,f,NA,NA,NA,111,6,"13,2,3,14,9,4,10,7,6,12,15,5,1,11,8"
14930,commdev-image-keyboard-response,384,1156217,learnblock1,583.1999999880791,img/planet15_right.png,15,Community 3,NA,TRUE,j,j,NA,NA,NA,111,6,"13,2,3,14,9,4,10,7,6,12,15,5,1,11,8"
14930,commdev-image-keyboard-response,385,1157468,learnblock1,563.1000000238419,img/planet11_right.png,11,Community 3,NA,TRUE,j,j,NA,NA,NA,111,6,"13,2,3,14,9,4,10,7,6,12,15,5,1,11,8"
14930,commdev-image-keyboard-response,386,1158720,learnblock1,524.7999999821186,img/planet5_right.png,5,Community 3,NA,TRUE,j,j,NA,NA,NA,111,6,"13,2,3,14,9,4,10,7,6,12,15,5,1,11,8"
14930,commdev-image-keyboard-response,387,1159972,learnblock1,545.1999999880791,img/planet1_left.png,1,Community 3,NA,TRUE,f,f,NA,NA,NA,111,6,"13,2,3,14,9,4,10,7,6,12,15,5,1,11,8"
14930,commdev-image-keyboard-response,388,1161222,learnblock1,484.7000000178814,img/planet5_right.png,5,Community 3,NA,TRUE,j,j,NA,NA,NA,111,6,"13,2,3,14,9,4,10,7,6,12,15,5,1,11,8"
14930,commdev-image-keyboard-response,389,1162474,learnblock1,659.3999999761581,img/planet7_right.png,7,Community 2,NA,TRUE,j,j,NA,NA,NA,111,6,"13,2,3,14,9,4,10,7,6,12,15,5,1,11,8"
14930,commdev-image-keyboard-response,390,1163725,learnblock1,null,img/planet12_right.png,12,Community 2,NA,FALSE,null,j,NA,NA,NA,111,6,"13,2,3,14,9,4,10,7,6,12,15,5,1,11,8"
14930,commdev-image-keyboard-response,391,1164977,learnblock1,null,img/planet7_right.png,7,Community 2,NA,FALSE,null,j,NA,NA,NA,111,6,"13,2,3,14,9,4,10,7,6,12,15,5,1,11,8"
14930,commdev-image-keyboard-response,392,1166228,learnblock1,null,img/planet10_right.png,10,Community 2,NA,FALSE,null,j,NA,NA,NA,111,6,"13,2,3,14,9,4,10,7,6,12,15,5,1,11,8"
14930,commdev-image-keyboard-response,393,1167482,learnblock1,588.5,img/planet4_right.png,4,Community 2,NA,TRUE,j,j,NA,NA,NA,111,6,"13,2,3,14,9,4,10,7,6,12,15,5,1,11,8"
14930,commdev-image-keyboard-response,394,1168733,learnblock1,560.3999999761581,img/planet14_left.png,14,Community 1,NA,FALSE,j,f,NA,NA,NA,111,6,"13,2,3,14,9,4,10,7,6,12,15,5,1,11,8"
14930,commdev-image-keyboard-response,395,1169992,learnblock1,593.5999999940395,img/planet13_right.png,13,Community 1,NA,TRUE,j,j,NA,NA,NA,111,6,"13,2,3,14,9,4,10,7,6,12,15,5,1,11,8"
14930,commdev-image-keyboard-response,396,1171244,learnblock1,656.7000000178814,img/planet14_right.png,14,Community 1,NA,TRUE,j,j,NA,NA,NA,111,6,"13,2,3,14,9,4,10,7,6,12,15,5,1,11,8"
14930,commdev-image-keyboard-response,397,1172494,learnblock1,856.2000000178814,img/planet13_right.png,13,Community 1,NA,TRUE,j,j,NA,NA,NA,111,6,"13,2,3,14,9,4,10,7,6,12,15,5,1,11,8"
14930,commdev-image-keyboard-response,398,1173745,learnblock1,789.0999999940395,img/planet2_right.png,2,Community 1,NA,TRUE,j,j,NA,NA,NA,111,6,"13,2,3,14,9,4,10,7,6,12,15,5,1,11,8"
14930,commdev-image-keyboard-response,399,1175002,learnblock1,710.6999999880791,img/planet3_left.png,3,Community 1,NA,TRUE,f,f,NA,NA,NA,111,6,"13,2,3,14,9,4,10,7,6,12,15,5,1,11,8"
14930,commdev-image-keyboard-response,400,1176256,learnblock1,503.90000000596046,img/planet14_right.png,14,Community 1,NA,TRUE,j,j,NA,NA,NA,111,6,"13,2,3,14,9,4,10,7,6,12,15,5,1,11,8"
14930,commdev-image-keyboard-response,401,1177507,learnblock1,509.69999998807907,img/planet2_left.png,2,Community 1,NA,TRUE,f,f,NA,NA,NA,111,6,"13,2,3,14,9,4,10,7,6,12,15,5,1,11,8"
14930,commdev-image-keyboard-response,402,1178759,learnblock1,644.6999999880791,img/planet14_left.png,14,Community 1,NA,TRUE,f,f,NA,NA,NA,111,6,"13,2,3,14,9,4,10,7,6,12,15,5,1,11,8"
14930,commdev-image-keyboard-response,403,1180010,learnblock1,946.0999999940395,img/planet4_left.png,4,Community 2,NA,TRUE,f,f,NA,NA,NA,111,6,"13,2,3,14,9,4,10,7,6,12,15,5,1,11,8"
14930,commdev-image-keyboard-response,404,1181261,learnblock1,561.9000000059605,img/planet6_right.png,6,Community 2,NA,TRUE,j,j,NA,NA,NA,111,6,"13,2,3,14,9,4,10,7,6,12,15,5,1,11,8"
14930,commdev-image-keyboard-response,405,1182512,learnblock1,null,img/planet10_right.png,10,Community 2,NA,FALSE,null,j,NA,NA,NA,111,6,"13,2,3,14,9,4,10,7,6,12,15,5,1,11,8"
14930,commdev-image-keyboard-response,406,1183764,learnblock1,790.0999999940395,img/planet4_left.png,4,Community 2,NA,TRUE,f,f,NA,NA,NA,111,6,"13,2,3,14,9,4,10,7,6,12,15,5,1,11,8"
14930,commdev-image-keyboard-response,407,1185015,learnblock1,588.8000000119209,img/planet10_right.png,10,Community 2,NA,TRUE,j,j,NA,NA,NA,111,6,"13,2,3,14,9,4,10,7,6,12,15,5,1,11,8"
14930,commdev-image-keyboard-response,408,1186266,learnblock1,927.4000000059605,img/planet6_right.png,6,Community 2,NA,FALSE,f,j,NA,NA,NA,111,6,"13,2,3,14,9,4,10,7,6,12,15,5,1,11,8"
14930,commdev-image-keyboard-response,409,1187517,learnblock1,697.2999999821186,img/planet7_left.png,7,Community 2,NA,TRUE,f,f,NA,NA,NA,111,6,"13,2,3,14,9,4,10,7,6,12,15,5,1,11,8"
14930,commdev-image-keyboard-response,410,1188773,learnblock1,569.5999999940395,img/planet10_right.png,10,Community 2,NA,TRUE,j,j,NA,NA,NA,111,6,"13,2,3,14,9,4,10,7,6,12,15,5,1,11,8"
14930,commdev-image-keyboard-response,411,1190024,learnblock1,889.2999999821186,img/planet12_right.png,12,Community 2,NA,TRUE,j,j,NA,NA,NA,111,6,"13,2,3,14,9,4,10,7,6,12,15,5,1,11,8"
14930,commdev-image-keyboard-response,412,1191275,learnblock1,570.1999999880791,img/planet10_left.png,10,Community 2,NA,TRUE,f,f,NA,NA,NA,111,6,"13,2,3,14,9,4,10,7,6,12,15,5,1,11,8"
14930,commdev-image-keyboard-response,413,1192534,learnblock1,631.0999999940395,img/planet7_left.png,7,Community 2,NA,TRUE,f,f,NA,NA,NA,111,6,"13,2,3,14,9,4,10,7,6,12,15,5,1,11,8"
14930,commdev-image-keyboard-response,414,1193785,learnblock1,797.5999999940395,img/planet6_left.png,6,Community 2,NA,TRUE,f,f,NA,NA,NA,111,6,"13,2,3,14,9,4,10,7,6,12,15,5,1,11,8"
14930,commdev-image-keyboard-response,415,1195035,learnblock1,649.3000000119209,img/planet7_left.png,7,Community 2,NA,TRUE,f,f,NA,NA,NA,111,6,"13,2,3,14,9,4,10,7,6,12,15,5,1,11,8"
14930,commdev-image-keyboard-response,416,1196287,learnblock1,595.6999999880791,img/planet12_left.png,12,Community 2,NA,TRUE,f,f,NA,NA,NA,111,6,"13,2,3,14,9,4,10,7,6,12,15,5,1,11,8"
14930,commdev-image-keyboard-response,417,1197538,learnblock1,590.5999999940395,img/planet6_left.png,6,Community 2,NA,TRUE,f,f,NA,NA,NA,111,6,"13,2,3,14,9,4,10,7,6,12,15,5,1,11,8"
14930,commdev-image-keyboard-response,418,1198789,learnblock1,658.3999999761581,img/planet4_right.png,4,Community 2,NA,TRUE,j,j,NA,NA,NA,111,6,"13,2,3,14,9,4,10,7,6,12,15,5,1,11,8"
14930,commdev-image-keyboard-response,419,1200040,learnblock1,701.0999999940395,img/planet14_left.png,14,Community 1,NA,TRUE,f,f,NA,NA,NA,111,6,"13,2,3,14,9,4,10,7,6,12,15,5,1,11,8"
14930,commdev-image-keyboard-response,420,1201292,learnblock1,779.0999999940395,img/planet3_right.png,3,Community 1,NA,TRUE,j,j,NA,NA,NA,111,6,"13,2,3,14,9,4,10,7,6,12,15,5,1,11,8"
14930,commdev-image-keyboard-response,421,1202543,learnblock1,820.4000000059605,img/planet13_right.png,13,Community 1,NA,TRUE,j,j,NA,NA,NA,111,6,"13,2,3,14,9,4,10,7,6,12,15,5,1,11,8"
14930,commdev-image-keyboard-response,422,1203794,learnblock1,925,img/planet14_right.png,14,Community 1,NA,TRUE,j,j,NA,NA,NA,111,6,"13,2,3,14,9,4,10,7,6,12,15,5,1,11,8"
14930,commdev-image-keyboard-response,423,1205046,learnblock1,559.5,img/planet2_left.png,2,Community 1,NA,TRUE,f,f,NA,NA,NA,111,6,"13,2,3,14,9,4,10,7,6,12,15,5,1,11,8"
14930,commdev-image-keyboard-response,427,1384329,learnblock2,1081.199999988079,img/planet11_right.png,11,Community 3,NA,TRUE,j,j,NA,NA,NA,111,6,"13,2,3,14,9,4,10,7,6,12,15,5,1,11,8"
14930,commdev-image-keyboard-response,428,1385580,learnblock2,534.0999999940395,img/planet1_right.png,1,Community 3,NA,TRUE,j,j,NA,NA,NA,111,6,"13,2,3,14,9,4,10,7,6,12,15,5,1,11,8"
14930,commdev-image-keyboard-response,429,1386831,learnblock2,591.9000000059605,img/planet8_right.png,8,Community 3,NA,TRUE,j,j,NA,NA,NA,111,6,"13,2,3,14,9,4,10,7,6,12,15,5,1,11,8"
14930,commdev-image-keyboard-response,430,1388082,learnblock2,641.8000000119209,img/planet15_right.png,15,Community 3,NA,TRUE,j,j,NA,NA,NA,111,6,"13,2,3,14,9,4,10,7,6,12,15,5,1,11,8"
14930,commdev-image-keyboard-response,431,1389333,learnblock2,738.5999999940395,img/planet8_left.png,8,Community 3,NA,TRUE,f,f,NA,NA,NA,111,6,"13,2,3,14,9,4,10,7,6,12,15,5,1,11,8"
14930,commdev-image-keyboard-response,432,1390585,learnblock2,785.5,img/planet1_left.png,1,Community 3,NA,TRUE,f,f,NA,NA,NA,111,6,"13,2,3,14,9,4,10,7,6,12,15,5,1,11,8"
14930,commdev-image-keyboard-response,433,1391836,learnblock2,616.3000000119209,img/planet5_left.png,5,Community 3,NA,TRUE,f,f,NA,NA,NA,111,6,"13,2,3,14,9,4,10,7,6,12,15,5,1,11,8"
14930,commdev-image-keyboard-response,434,1393088,learnblock2,579.6000000238419,img/planet7_right.png,7,Community 2,NA,TRUE,j,j,NA,NA,NA,111,6,"13,2,3,14,9,4,10,7,6,12,15,5,1,11,8"
14930,commdev-image-keyboard-response,435,1394339,learnblock2,755.0999999940395,img/planet10_right.png,10,Community 2,NA,TRUE,j,j,NA,NA,NA,111,6,"13,2,3,14,9,4,10,7,6,12,15,5,1,11,8"
14930,commdev-image-keyboard-response,436,1395591,learnblock2,582.3000000119209,img/planet6_left.png,6,Community 2,NA,TRUE,f,f,NA,NA,NA,111,6,"13,2,3,14,9,4,10,7,6,12,15,5,1,11,8"
14930,commdev-image-keyboard-response,437,1396842,learnblock2,717,img/planet7_right.png,7,Community 2,NA,TRUE,j,j,NA,NA,NA,111,6,"13,2,3,14,9,4,10,7,6,12,15,5,1,11,8"
14930,commdev-image-keyboard-response,438,1398093,learnblock2,601.9000000059605,img/planet6_right.png,6,Community 2,NA,TRUE,j,j,NA,NA,NA,111,6,"13,2,3,14,9,4,10,7,6,12,15,5,1,11,8"
14930,commdev-image-keyboard-response,439,1399343,learnblock2,682,img/planet4_right.png,4,Community 2,NA,TRUE,j,j,NA,NA,NA,111,6,"13,2,3,14,9,4,10,7,6,12,15,5,1,11,8"
14930,commdev-image-keyboard-response,440,1400595,learnblock2,878.2000000178814,img/planet12_right.png,12,Community 2,NA,TRUE,j,j,NA,NA,NA,111,6,"13,2,3,14,9,4,10,7,6,12,15,5,1,11,8"
14930,commdev-image-keyboard-response,441,1401852,learnblock2,749.7999999821186,img/planet4_right.png,4,Community 2,NA,TRUE,j,j,NA,NA,NA,111,6,"13,2,3,14,9,4,10,7,6,12,15,5,1,11,8"
14930,commdev-image-keyboard-response,442,1403103,learnblock2,609.9000000059605,img/planet6_right.png,6,Community 2,NA,TRUE,j,j,NA,NA,NA,111,6,"13,2,3,14,9,4,10,7,6,12,15,5,1,11,8"
14930,commdev-image-keyboard-response,443,1404355,learnblock2,617.2000000178814,img/planet10_left.png,10,Community 2,NA,TRUE,f,f,NA,NA,NA,111,6,"13,2,3,14,9,4,10,7,6,12,15,5,1,11,8"
14930,commdev-image-keyboard-response,444,1405606,learnblock2,605.7000000178814,img/planet6_left.png,6,Community 2,NA,TRUE,f,f,NA,NA,NA,111,6,"13,2,3,14,9,4,10,7,6,12,15,5,1,11,8"
14930,commdev-image-keyboard-response,445,1406856,learnblock2,925,img/planet7_left.png,7,Community 2,NA,TRUE,f,f,NA,NA,NA,111,6,"13,2,3,14,9,4,10,7,6,12,15,5,1,11,8"
14930,commdev-image-keyboard-response,446,1408108,learnblock2,703.2000000178814,img/planet12_right.png,12,Community 2,NA,TRUE,j,j,NA,NA,NA,111,6,"13,2,3,14,9,4,10,7,6,12,15,5,1,11,8"
14930,commdev-image-keyboard-response,447,1409359,learnblock2,672.6000000238419,img/planet6_right.png,6,Community 2,NA,TRUE,j,j,NA,NA,NA,111,6,"13,2,3,14,9,4,10,7,6,12,15,5,1,11,8"
14930,commdev-image-keyboard-response,448,1410610,learnblock2,650.5,img/planet12_left.png,12,Community 2,NA,TRUE,f,f,NA,NA,NA,111,6,"13,2,3,14,9,4,10,7,6,12,15,5,1,11,8"
14930,commdev-image-keyboard-response,449,1411861,learnblock2,707.3000000119209,img/planet6_right.png,6,Community 2,NA,TRUE,j,j,NA,NA,NA,111,6,"13,2,3,14,9,4,10,7,6,12,15,5,1,11,8"
14930,commdev-image-keyboard-response,450,1413113,learnblock2,875.6000000238419,img/planet12_right.png,12,Community 2,NA,TRUE,j,j,NA,NA,NA,111,6,"13,2,3,14,9,4,10,7,6,12,15,5,1,11,8"
14930,commdev-image-keyboard-response,451,1414364,learnblock2,616.9000000059605,img/planet4_left.png,4,Community 2,NA,TRUE,f,f,NA,NA,NA,111,6,"13,2,3,14,9,4,10,7,6,12,15,5,1,11,8"
14930,commdev-image-keyboard-response,452,1415615,learnblock2,552.7000000178814,img/planet10_left.png,10,Community 2,NA,TRUE,f,f,NA,NA,NA,111,6,"13,2,3,14,9,4,10,7,6,12,15,5,1,11,8"
14930,commdev-image-keyboard-response,453,1416867,learnblock2,658.3000000119209,img/planet7_left.png,7,Community 2,NA,TRUE,f,f,NA,NA,NA,111,6,"13,2,3,14,9,4,10,7,6,12,15,5,1,11,8"
14930,commdev-image-keyboard-response,454,1418118,learnblock2,626,img/planet12_right.png,12,Community 2,NA,TRUE,j,j,NA,NA,NA,111,6,"13,2,3,14,9,4,10,7,6,12,15,5,1,11,8"
14930,commdev-image-keyboard-response,455,1419369,learnblock2,805,img/planet6_left.png,6,Community 2,NA,TRUE,f,f,NA,NA,NA,111,6,"13,2,3,14,9,4,10,7,6,12,15,5,1,11,8"
14930,commdev-image-keyboard-response,456,1420621,learnblock2,750.3000000119209,img/planet7_left.png,7,Community 2,NA,TRUE,f,f,NA,NA,NA,111,6,"13,2,3,14,9,4,10,7,6,12,15,5,1,11,8"
14930,commdev-image-keyboard-response,457,1421872,learnblock2,682.4000000059605,img/planet5_left.png,5,Community 3,NA,TRUE,f,f,NA,NA,NA,111,6,"13,2,3,14,9,4,10,7,6,12,15,5,1,11,8"
14930,commdev-image-keyboard-response,458,1423122,learnblock2,608.9000000059605,img/planet1_left.png,1,Community 3,NA,TRUE,f,f,NA,NA,NA,111,6,"13,2,3,14,9,4,10,7,6,12,15,5,1,11,8"
14930,commdev-image-keyboard-response,459,1424374,learnblock2,757.6000000238419,img/planet15_right.png,15,Community 3,NA,TRUE,j,j,NA,NA,NA,111,6,"13,2,3,14,9,4,10,7,6,12,15,5,1,11,8"
14930,commdev-image-keyboard-response,460,1425625,learnblock2,622.5,img/planet8_right.png,8,Community 3,NA,TRUE,j,j,NA,NA,NA,111,6,"13,2,3,14,9,4,10,7,6,12,15,5,1,11,8"
14930,commdev-image-keyboard-response,461,1426885,learnblock2,710.3000000119209,img/planet15_left.png,15,Community 3,NA,TRUE,f,f,NA,NA,NA,111,6,"13,2,3,14,9,4,10,7,6,12,15,5,1,11,8"
14930,commdev-image-keyboard-response,462,1428136,learnblock2,573.8999999761581,img/planet8_right.png,8,Community 3,NA,TRUE,j,j,NA,NA,NA,111,6,"13,2,3,14,9,4,10,7,6,12,15,5,1,11,8"
14930,commdev-image-keyboard-response,463,1429391,learnblock2,539.6999999880791,img/planet15_right.png,15,Community 3,NA,TRUE,j,j,NA,NA,NA,111,6,"13,2,3,14,9,4,10,7,6,12,15,5,1,11,8"
14930,commdev-image-keyboard-response,464,1430643,learnblock2,585.2000000178814,img/planet8_right.png,8,Community 3,NA,TRUE,j,j,NA,NA,NA,111,6,"13,2,3,14,9,4,10,7,6,12,15,5,1,11,8"
14930,commdev-image-keyboard-response,465,1431894,learnblock2,630.8999999761581,img/planet11_left.png,11,Community 3,NA,TRUE,f,f,NA,NA,NA,111,6,"13,2,3,14,9,4,10,7,6,12,15,5,1,11,8"
14930,commdev-image-keyboard-response,466,1433144,learnblock2,592.8000000119209,img/planet8_right.png,8,Community 3,NA,TRUE,j,j,NA,NA,NA,111,6,"13,2,3,14,9,4,10,7,6,12,15,5,1,11,8"
14930,commdev-image-keyboard-response,467,1434395,learnblock2,604.3000000119209,img/planet11_right.png,11,Community 3,NA,TRUE,j,j,NA,NA,NA,111,6,"13,2,3,14,9,4,10,7,6,12,15,5,1,11,8"
14930,commdev-image-keyboard-response,468,1435646,learnblock2,672,img/planet15_right.png,15,Community 3,NA,TRUE,j,j,NA,NA,NA,111,6,"13,2,3,14,9,4,10,7,6,12,15,5,1,11,8"
14930,commdev-image-keyboard-response,469,1436897,learnblock2,639.0999999940395,img/planet8_left.png,8,Community 3,NA,TRUE,f,f,NA,NA,NA,111,6,"13,2,3,14,9,4,10,7,6,12,15,5,1,11,8"
14930,commdev-image-keyboard-response,470,1438148,learnblock2,574.4000000059605,img/planet1_right.png,1,Community 3,NA,TRUE,j,j,NA,NA,NA,111,6,"13,2,3,14,9,4,10,7,6,12,15,5,1,11,8"
14930,commdev-image-keyboard-response,471,1439400,learnblock2,565.6000000238419,img/planet8_left.png,8,Community 3,NA,TRUE,f,f,NA,NA,NA,111,6,"13,2,3,14,9,4,10,7,6,12,15,5,1,11,8"
14930,commdev-image-keyboard-response,472,1440651,learnblock2,587,img/planet5_left.png,5,Community 3,NA,TRUE,f,f,NA,NA,NA,111,6,"13,2,3,14,9,4,10,7,6,12,15,5,1,11,8"
14930,commdev-image-keyboard-response,473,1441902,learnblock2,729.8000000119209,img/planet11_left.png,11,Community 3,NA,TRUE,f,f,NA,NA,NA,111,6,"13,2,3,14,9,4,10,7,6,12,15,5,1,11,8"
14930,commdev-image-keyboard-response,474,1443154,learnblock2,808.5999999940395,img/planet5_left.png,5,Community 3,NA,TRUE,f,f,NA,NA,NA,111,6,"13,2,3,14,9,4,10,7,6,12,15,5,1,11,8"
14930,commdev-image-keyboard-response,475,1444405,learnblock2,648.4000000059605,img/planet8_left.png,8,Community 3,NA,TRUE,f,f,NA,NA,NA,111,6,"13,2,3,14,9,4,10,7,6,12,15,5,1,11,8"
14930,commdev-image-keyboard-response,476,1445655,learnblock2,584.1000000238419,img/planet15_right.png,15,Community 3,NA,TRUE,j,j,NA,NA,NA,111,6,"13,2,3,14,9,4,10,7,6,12,15,5,1,11,8"
14930,commdev-image-keyboard-response,477,1446907,learnblock2,604.9000000059605,img/planet8_right.png,8,Community 3,NA,TRUE,j,j,NA,NA,NA,111,6,"13,2,3,14,9,4,10,7,6,12,15,5,1,11,8"
14930,commdev-image-keyboard-response,478,1448157,learnblock2,690.5,img/planet5_left.png,5,Community 3,NA,TRUE,f,f,NA,NA,NA,111,6,"13,2,3,14,9,4,10,7,6,12,15,5,1,11,8"
14930,commdev-image-keyboard-response,479,1449408,learnblock2,677.8000000119209,img/planet8_left.png,8,Community 3,NA,TRUE,f,f,NA,NA,NA,111,6,"13,2,3,14,9,4,10,7,6,12,15,5,1,11,8"
14930,commdev-image-keyboard-response,480,1450660,learnblock2,617.5,img/planet5_left.png,5,Community 3,NA,TRUE,f,f,NA,NA,NA,111,6,"13,2,3,14,9,4,10,7,6,12,15,5,1,11,8"
14930,commdev-image-keyboard-response,481,1451913,learnblock2,717.3000000119209,img/planet8_left.png,8,Community 3,NA,TRUE,f,f,NA,NA,NA,111,6,"13,2,3,14,9,4,10,7,6,12,15,5,1,11,8"
14930,commdev-image-keyboard-response,482,1453164,learnblock2,601,img/planet15_right.png,15,Community 3,NA,TRUE,j,j,NA,NA,NA,111,6,"13,2,3,14,9,4,10,7,6,12,15,5,1,11,8"
14930,commdev-image-keyboard-response,483,1454416,learnblock2,790,img/planet8_right.png,8,Community 3,NA,TRUE,j,j,NA,NA,NA,111,6,"13,2,3,14,9,4,10,7,6,12,15,5,1,11,8"
14930,commdev-image-keyboard-response,484,1455666,learnblock2,685.4000000059605,img/planet15_left.png,15,Community 3,NA,TRUE,f,f,NA,NA,NA,111,6,"13,2,3,14,9,4,10,7,6,12,15,5,1,11,8"
14930,commdev-image-keyboard-response,485,1456928,learnblock2,559.8000000119209,img/planet9_right.png,9,Community 1,NA,TRUE,j,j,NA,NA,NA,111,6,"13,2,3,14,9,4,10,7,6,12,15,5,1,11,8"
14930,commdev-image-keyboard-response,486,1458179,learnblock2,658.8000000119209,img/planet2_left.png,2,Community 1,NA,TRUE,f,f,NA,NA,NA,111,6,"13,2,3,14,9,4,10,7,6,12,15,5,1,11,8"
14930,commdev-image-keyboard-response,487,1459430,learnblock2,619.9000000059605,img/planet13_left.png,13,Community 1,NA,TRUE,f,f,NA,NA,NA,111,6,"13,2,3,14,9,4,10,7,6,12,15,5,1,11,8"
14930,commdev-image-keyboard-response,488,1460681,learnblock2,529.7000000178814,img/planet2_left.png,2,Community 1,NA,TRUE,f,f,NA,NA,NA,111,6,"13,2,3,14,9,4,10,7,6,12,15,5,1,11,8"
14930,commdev-image-keyboard-response,489,1461935,learnblock2,615.5,img/planet13_right.png,13,Community 1,NA,TRUE,j,j,NA,NA,NA,111,6,"13,2,3,14,9,4,10,7,6,12,15,5,1,11,8"
14930,commdev-image-keyboard-response,490,1463187,learnblock2,467.2999999821186,img/planet2_right.png,2,Community 1,NA,TRUE,j,j,NA,NA,NA,111,6,"13,2,3,14,9,4,10,7,6,12,15,5,1,11,8"
14930,commdev-image-keyboard-response,491,1464438,learnblock2,564,img/planet13_right.png,13,Community 1,NA,TRUE,j,j,NA,NA,NA,111,6,"13,2,3,14,9,4,10,7,6,12,15,5,1,11,8"
14930,commdev-image-keyboard-response,492,1465689,learnblock2,543.8000000119209,img/planet14_right.png,14,Community 1,NA,TRUE,j,j,NA,NA,NA,111,6,"13,2,3,14,9,4,10,7,6,12,15,5,1,11,8"
14930,commdev-image-keyboard-response,493,1466940,learnblock2,591.7000000178814,img/planet2_left.png,2,Community 1,NA,TRUE,f,f,NA,NA,NA,111,6,"13,2,3,14,9,4,10,7,6,12,15,5,1,11,8"
14930,commdev-image-keyboard-response,494,1468192,learnblock2,497.5,img/planet9_right.png,9,Community 1,NA,TRUE,j,j,NA,NA,NA,111,6,"13,2,3,14,9,4,10,7,6,12,15,5,1,11,8"
14930,commdev-image-keyboard-response,495,1469443,learnblock2,513.9000000059605,img/planet2_right.png,2,Community 1,NA,TRUE,j,j,NA,NA,NA,111,6,"13,2,3,14,9,4,10,7,6,12,15,5,1,11,8"
14930,commdev-image-keyboard-response,496,1470694,learnblock2,723.2000000178814,img/planet13_right.png,13,Community 1,NA,TRUE,j,j,NA,NA,NA,111,6,"13,2,3,14,9,4,10,7,6,12,15,5,1,11,8"
14930,commdev-image-keyboard-response,497,1471945,learnblock2,627,img/planet2_left.png,2,Community 1,NA,TRUE,f,f,NA,NA,NA,111,6,"13,2,3,14,9,4,10,7,6,12,15,5,1,11,8"
14930,commdev-image-keyboard-response,498,1473197,learnblock2,632.1999999880791,img/planet9_left.png,9,Community 1,NA,TRUE,f,f,NA,NA,NA,111,6,"13,2,3,14,9,4,10,7,6,12,15,5,1,11,8"
14930,commdev-image-keyboard-response,499,1474448,learnblock2,582.1000000238419,img/planet13_left.png,13,Community 1,NA,TRUE,f,f,NA,NA,NA,111,6,"13,2,3,14,9,4,10,7,6,12,15,5,1,11,8"
14930,commdev-image-keyboard-response,500,1475699,learnblock2,701.7000000178814,img/planet3_left.png,3,Community 1,NA,TRUE,f,f,NA,NA,NA,111,6,"13,2,3,14,9,4,10,7,6,12,15,5,1,11,8"
14930,commdev-image-keyboard-response,501,1476951,learnblock2,542.4000000059605,img/planet13_right.png,13,Community 1,NA,TRUE,j,j,NA,NA,NA,111,6,"13,2,3,14,9,4,10,7,6,12,15,5,1,11,8"
14930,commdev-image-keyboard-response,502,1478202,learnblock2,830.4000000059605,img/planet3_left.png,3,Community 1,NA,TRUE,f,f,NA,NA,NA,111,6,"13,2,3,14,9,4,10,7,6,12,15,5,1,11,8"
14930,commdev-image-keyboard-response,503,1479453,learnblock2,603.8000000119209,img/planet13_left.png,13,Community 1,NA,TRUE,f,f,NA,NA,NA,111,6,"13,2,3,14,9,4,10,7,6,12,15,5,1,11,8"
14930,commdev-image-keyboard-response,504,1480703,learnblock2,535.2000000178814,img/planet2_left.png,2,Community 1,NA,TRUE,f,f,NA,NA,NA,111,6,"13,2,3,14,9,4,10,7,6,12,15,5,1,11,8"
14930,commdev-image-keyboard-response,505,1481955,learnblock2,640.6999999880791,img/planet14_left.png,14,Community 1,NA,TRUE,f,f,NA,NA,NA,111,6,"13,2,3,14,9,4,10,7,6,12,15,5,1,11,8"
14930,commdev-image-keyboard-response,506,1483213,learnblock2,875.6999999880791,img/planet3_left.png,3,Community 1,NA,TRUE,f,f,NA,NA,NA,111,6,"13,2,3,14,9,4,10,7,6,12,15,5,1,11,8"
14930,commdev-image-keyboard-response,507,1484464,learnblock2,767.5,img/planet14_left.png,14,Community 1,NA,TRUE,f,f,NA,NA,NA,111,6,"13,2,3,14,9,4,10,7,6,12,15,5,1,11,8"
14930,commdev-image-keyboard-response,508,1485715,learnblock2,638.5999999940395,img/planet2_right.png,2,Community 1,NA,TRUE,j,j,NA,NA,NA,111,6,"13,2,3,14,9,4,10,7,6,12,15,5,1,11,8"
14930,commdev-image-keyboard-response,509,1486967,learnblock2,583.6999999880791,img/planet14_right.png,14,Community 1,NA,TRUE,j,j,NA,NA,NA,111,6,"13,2,3,14,9,4,10,7,6,12,15,5,1,11,8"
14930,commdev-image-keyboard-response,510,1488218,learnblock2,684.2000000178814,img/planet3_right.png,3,Community 1,NA,TRUE,j,j,NA,NA,NA,111,6,"13,2,3,14,9,4,10,7,6,12,15,5,1,11,8"
14930,commdev-image-keyboard-response,511,1489469,learnblock2,705.5,img/planet9_right.png,9,Community 1,NA,TRUE,j,j,NA,NA,NA,111,6,"13,2,3,14,9,4,10,7,6,12,15,5,1,11,8"
14930,commdev-image-keyboard-response,512,1490720,learnblock2,696,img/planet15_left.png,15,Community 3,NA,TRUE,f,f,NA,NA,NA,111,6,"13,2,3,14,9,4,10,7,6,12,15,5,1,11,8"
14930,commdev-image-keyboard-response,513,1491970,learnblock2,849.6999999880791,img/planet8_left.png,8,Community 3,NA,TRUE,f,f,NA,NA,NA,111,6,"13,2,3,14,9,4,10,7,6,12,15,5,1,11,8"
14930,commdev-image-keyboard-response,514,1493221,learnblock2,608.7000000178814,img/planet5_right.png,5,Community 3,NA,TRUE,j,j,NA,NA,NA,111,6,"13,2,3,14,9,4,10,7,6,12,15,5,1,11,8"
14930,commdev-image-keyboard-response,515,1494472,learnblock2,712.5,img/planet1_left.png,1,Community 3,NA,TRUE,f,f,NA,NA,NA,111,6,"13,2,3,14,9,4,10,7,6,12,15,5,1,11,8"
14930,commdev-image-keyboard-response,516,1495724,learnblock2,660.7000000178814,img/planet8_right.png,8,Community 3,NA,TRUE,j,j,NA,NA,NA,111,6,"13,2,3,14,9,4,10,7,6,12,15,5,1,11,8"
14930,commdev-image-keyboard-response,517,1496975,learnblock2,714.9000000059605,img/planet11_right.png,11,Community 3,NA,TRUE,j,j,NA,NA,NA,111,6,"13,2,3,14,9,4,10,7,6,12,15,5,1,11,8"
14930,commdev-image-keyboard-response,518,1498226,learnblock2,707.2999999821186,img/planet1_right.png,1,Community 3,NA,TRUE,j,j,NA,NA,NA,111,6,"13,2,3,14,9,4,10,7,6,12,15,5,1,11,8"
14930,commdev-image-keyboard-response,519,1499477,learnblock2,601.8000000119209,img/planet8_left.png,8,Community 3,NA,TRUE,f,f,NA,NA,NA,111,6,"13,2,3,14,9,4,10,7,6,12,15,5,1,11,8"
14930,commdev-image-keyboard-response,520,1500727,learnblock2,860.2999999821186,img/planet1_left.png,1,Community 3,NA,TRUE,f,f,NA,NA,NA,111,6,"13,2,3,14,9,4,10,7,6,12,15,5,1,11,8"
14930,commdev-image-keyboard-response,521,1501978,learnblock2,669.5,img/planet8_right.png,8,Community 3,NA,TRUE,j,j,NA,NA,NA,111,6,"13,2,3,14,9,4,10,7,6,12,15,5,1,11,8"
14930,commdev-image-keyboard-response,522,1503229,learnblock2,771.8000000119209,img/planet15_right.png,15,Community 3,NA,TRUE,j,j,NA,NA,NA,111,6,"13,2,3,14,9,4,10,7,6,12,15,5,1,11,8"
14930,commdev-image-keyboard-response,523,1504480,learnblock2,638.8000000119209,img/planet9_left.png,9,Community 1,NA,TRUE,f,f,NA,NA,NA,111,6,"13,2,3,14,9,4,10,7,6,12,15,5,1,11,8"
14930,commdev-image-keyboard-response,524,1505731,learnblock2,631,img/planet13_right.png,13,Community 1,NA,TRUE,j,j,NA,NA,NA,111,6,"13,2,3,14,9,4,10,7,6,12,15,5,1,11,8"
14930,commdev-image-keyboard-response,525,1506982,learnblock2,708.8000000119209,img/planet3_left.png,3,Community 1,NA,TRUE,f,f,NA,NA,NA,111,6,"13,2,3,14,9,4,10,7,6,12,15,5,1,11,8"
14930,commdev-image-keyboard-response,526,1508234,learnblock2,547.7000000178814,img/planet13_left.png,13,Community 1,NA,TRUE,f,f,NA,NA,NA,111,6,"13,2,3,14,9,4,10,7,6,12,15,5,1,11,8"
14930,commdev-image-keyboard-response,527,1509485,learnblock2,569,img/planet2_right.png,2,Community 1,NA,TRUE,j,j,NA,NA,NA,111,6,"13,2,3,14,9,4,10,7,6,12,15,5,1,11,8"
14930,commdev-image-keyboard-response,528,1510737,learnblock2,699.4000000059605,img/planet3_right.png,3,Community 1,NA,TRUE,j,j,NA,NA,NA,111,6,"13,2,3,14,9,4,10,7,6,12,15,5,1,11,8"
14930,commdev-image-keyboard-response,529,1511988,learnblock2,673.8000000119209,img/planet13_right.png,13,Community 1,NA,TRUE,j,j,NA,NA,NA,111,6,"13,2,3,14,9,4,10,7,6,12,15,5,1,11,8"
14930,commdev-image-keyboard-response,530,1513239,learnblock2,643,img/planet14_right.png,14,Community 1,NA,TRUE,j,j,NA,NA,NA,111,6,"13,2,3,14,9,4,10,7,6,12,15,5,1,11,8"
14930,commdev-image-keyboard-response,531,1514490,learnblock2,657,img/planet2_right.png,2,Community 1,NA,TRUE,j,j,NA,NA,NA,111,6,"13,2,3,14,9,4,10,7,6,12,15,5,1,11,8"
14930,commdev-image-keyboard-response,532,1515741,learnblock2,651.7000000178814,img/planet9_left.png,9,Community 1,NA,TRUE,f,f,NA,NA,NA,111,6,"13,2,3,14,9,4,10,7,6,12,15,5,1,11,8"
14930,commdev-image-keyboard-response,533,1516991,learnblock2,609.1999999880791,img/planet3_right.png,3,Community 1,NA,TRUE,j,j,NA,NA,NA,111,6,"13,2,3,14,9,4,10,7,6,12,15,5,1,11,8"
14930,commdev-image-keyboard-response,534,1518253,learnblock2,575.6999999880791,img/planet9_right.png,9,Community 1,NA,TRUE,j,j,NA,NA,NA,111,6,"13,2,3,14,9,4,10,7,6,12,15,5,1,11,8"
14930,commdev-image-keyboard-response,535,1519504,learnblock2,539.6999999880791,img/planet2_left.png,2,Community 1,NA,TRUE,f,f,NA,NA,NA,111,6,"13,2,3,14,9,4,10,7,6,12,15,5,1,11,8"
14930,commdev-image-keyboard-response,536,1520755,learnblock2,637.7000000178814,img/planet14_right.png,14,Community 1,NA,TRUE,j,j,NA,NA,NA,111,6,"13,2,3,14,9,4,10,7,6,12,15,5,1,11,8"
14930,commdev-image-keyboard-response,537,1522007,learnblock2,769.9000000059605,img/planet3_right.png,3,Community 1,NA,TRUE,j,j,NA,NA,NA,111,6,"13,2,3,14,9,4,10,7,6,12,15,5,1,11,8"
14930,commdev-image-keyboard-response,538,1523258,learnblock2,714.0999999940395,img/planet9_right.png,9,Community 1,NA,TRUE,j,j,NA,NA,NA,111,6,"13,2,3,14,9,4,10,7,6,12,15,5,1,11,8"
14930,commdev-image-keyboard-response,539,1524509,learnblock2,567.1999999880791,img/planet15_left.png,15,Community 3,NA,TRUE,f,f,NA,NA,NA,111,6,"13,2,3,14,9,4,10,7,6,12,15,5,1,11,8"
14930,commdev-image-keyboard-response,540,1525760,learnblock2,631.5,img/planet8_right.png,8,Community 3,NA,TRUE,j,j,NA,NA,NA,111,6,"13,2,3,14,9,4,10,7,6,12,15,5,1,11,8"
14930,commdev-image-keyboard-response,541,1527012,learnblock2,751.4000000059605,img/planet11_right.png,11,Community 3,NA,TRUE,j,j,NA,NA,NA,111,6,"13,2,3,14,9,4,10,7,6,12,15,5,1,11,8"
14930,commdev-image-keyboard-response,542,1528263,learnblock2,772.3000000119209,img/planet15_right.png,15,Community 3,NA,TRUE,j,j,NA,NA,NA,111,6,"13,2,3,14,9,4,10,7,6,12,15,5,1,11,8"
14930,commdev-image-keyboard-response,543,1529515,learnblock2,591.4000000059605,img/planet8_right.png,8,Community 3,NA,TRUE,j,j,NA,NA,NA,111,6,"13,2,3,14,9,4,10,7,6,12,15,5,1,11,8"
14930,commdev-image-keyboard-response,544,1530766,learnblock2,584.2000000178814,img/planet15_left.png,15,Community 3,NA,TRUE,f,f,NA,NA,NA,111,6,"13,2,3,14,9,4,10,7,6,12,15,5,1,11,8"
14930,commdev-image-keyboard-response,545,1532017,learnblock2,694.0999999940395,img/planet9_left.png,9,Community 1,NA,TRUE,f,f,NA,NA,NA,111,6,"13,2,3,14,9,4,10,7,6,12,15,5,1,11,8"
14930,commdev-image-keyboard-response,546,1533268,learnblock2,658.5999999940395,img/planet13_left.png,13,Community 1,NA,TRUE,f,f,NA,NA,NA,111,6,"13,2,3,14,9,4,10,7,6,12,15,5,1,11,8"
14930,commdev-image-keyboard-response,547,1534519,learnblock2,608.0999999940395,img/planet14_right.png,14,Community 1,NA,TRUE,j,j,NA,NA,NA,111,6,"13,2,3,14,9,4,10,7,6,12,15,5,1,11,8"
14930,commdev-image-keyboard-response,548,1535770,learnblock2,579.8999999761581,img/planet2_right.png,2,Community 1,NA,TRUE,j,j,NA,NA,NA,111,6,"13,2,3,14,9,4,10,7,6,12,15,5,1,11,8"
14930,commdev-image-keyboard-response,549,1537021,learnblock2,638.9000000059605,img/planet14_left.png,14,Community 1,NA,TRUE,f,f,NA,NA,NA,111,6,"13,2,3,14,9,4,10,7,6,12,15,5,1,11,8"
14930,commdev-image-keyboard-response,550,1538272,learnblock2,696.7000000178814,img/planet3_right.png,3,Community 1,NA,TRUE,j,j,NA,NA,NA,111,6,"13,2,3,14,9,4,10,7,6,12,15,5,1,11,8"
14930,commdev-image-keyboard-response,551,1539523,learnblock2,595.5,img/planet2_right.png,2,Community 1,NA,TRUE,j,j,NA,NA,NA,111,6,"13,2,3,14,9,4,10,7,6,12,15,5,1,11,8"
14930,commdev-image-keyboard-response,552,1540774,learnblock2,570.5,img/planet3_right.png,3,Community 1,NA,TRUE,j,j,NA,NA,NA,111,6,"13,2,3,14,9,4,10,7,6,12,15,5,1,11,8"
14930,commdev-image-keyboard-response,553,1542032,learnblock2,530.3000000119209,img/planet13_right.png,13,Community 1,NA,TRUE,j,j,NA,NA,NA,111,6,"13,2,3,14,9,4,10,7,6,12,15,5,1,11,8"
14930,commdev-image-keyboard-response,554,1543283,learnblock2,437.7000000178814,img/planet2_right.png,2,Community 1,NA,TRUE,j,j,NA,NA,NA,111,6,"13,2,3,14,9,4,10,7,6,12,15,5,1,11,8"
14930,commdev-image-keyboard-response,555,1544534,learnblock2,591,img/planet13_left.png,13,Community 1,NA,TRUE,f,f,NA,NA,NA,111,6,"13,2,3,14,9,4,10,7,6,12,15,5,1,11,8"
14930,commdev-image-keyboard-response,556,1545787,learnblock2,605.5999999940395,img/planet14_left.png,14,Community 1,NA,TRUE,f,f,NA,NA,NA,111,6,"13,2,3,14,9,4,10,7,6,12,15,5,1,11,8"
14930,commdev-image-keyboard-response,557,1547038,learnblock2,489.59999999403954,img/planet2_left.png,2,Community 1,NA,TRUE,f,f,NA,NA,NA,111,6,"13,2,3,14,9,4,10,7,6,12,15,5,1,11,8"
14930,commdev-image-keyboard-response,558,1548290,learnblock2,547.7000000178814,img/planet13_right.png,13,Community 1,NA,TRUE,j,j,NA,NA,NA,111,6,"13,2,3,14,9,4,10,7,6,12,15,5,1,11,8"
14930,commdev-image-keyboard-response,559,1549542,learnblock2,666.4000000059605,img/planet2_left.png,2,Community 1,NA,FALSE,j,f,NA,NA,NA,111,6,"13,2,3,14,9,4,10,7,6,12,15,5,1,11,8"
14930,commdev-image-keyboard-response,560,1550793,learnblock2,733.9000000059605,img/planet3_left.png,3,Community 1,NA,TRUE,f,f,NA,NA,NA,111,6,"13,2,3,14,9,4,10,7,6,12,15,5,1,11,8"
14930,commdev-image-keyboard-response,561,1552044,learnblock2,580.6999999880791,img/planet13_left.png,13,Community 1,NA,TRUE,f,f,NA,NA,NA,111,6,"13,2,3,14,9,4,10,7,6,12,15,5,1,11,8"
14930,commdev-image-keyboard-response,562,1553295,learnblock2,583.5999999940395,img/planet9_right.png,9,Community 1,NA,TRUE,j,j,NA,NA,NA,111,6,"13,2,3,14,9,4,10,7,6,12,15,5,1,11,8"
14930,commdev-image-keyboard-response,563,1554547,learnblock2,616.7999999821186,img/planet13_right.png,13,Community 1,NA,TRUE,j,j,NA,NA,NA,111,6,"13,2,3,14,9,4,10,7,6,12,15,5,1,11,8"
14930,commdev-image-keyboard-response,564,1555798,learnblock2,602.0999999940395,img/planet9_left.png,9,Community 1,NA,TRUE,f,f,NA,NA,NA,111,6,"13,2,3,14,9,4,10,7,6,12,15,5,1,11,8"
14930,commdev-image-keyboard-response,565,1557048,learnblock2,903,img/planet15_left.png,15,Community 3,NA,TRUE,f,f,NA,NA,NA,111,6,"13,2,3,14,9,4,10,7,6,12,15,5,1,11,8"
14930,commdev-image-keyboard-response,566,1558299,learnblock2,847.2999999821186,img/planet8_left.png,8,Community 3,NA,TRUE,f,f,NA,NA,NA,111,6,"13,2,3,14,9,4,10,7,6,12,15,5,1,11,8"
14930,commdev-image-keyboard-response,567,1559551,learnblock2,633.1999999880791,img/planet5_left.png,5,Community 3,NA,TRUE,f,f,NA,NA,NA,111,6,"13,2,3,14,9,4,10,7,6,12,15,5,1,11,8"
14930,commdev-image-keyboard-response,568,1560802,learnblock2,642.0999999940395,img/planet8_left.png,8,Community 3,NA,TRUE,f,f,NA,NA,NA,111,6,"13,2,3,14,9,4,10,7,6,12,15,5,1,11,8"
14930,commdev-image-keyboard-response,569,1562052,learnblock2,569.3000000119209,img/planet5_left.png,5,Community 3,NA,TRUE,f,f,NA,NA,NA,111,6,"13,2,3,14,9,4,10,7,6,12,15,5,1,11,8"
14930,commdev-image-keyboard-response,570,1563304,learnblock2,681.2999999821186,img/planet11_left.png,11,Community 3,NA,TRUE,f,f,NA,NA,NA,111,6,"13,2,3,14,9,4,10,7,6,12,15,5,1,11,8"
14930,commdev-image-keyboard-response,571,1564555,learnblock2,630.5999999940395,img/planet5_right.png,5,Community 3,NA,TRUE,j,j,NA,NA,NA,111,6,"13,2,3,14,9,4,10,7,6,12,15,5,1,11,8"
14930,commdev-image-keyboard-response,572,1565809,learnblock2,584.1000000238419,img/planet1_left.png,1,Community 3,NA,TRUE,f,f,NA,NA,NA,111,6,"13,2,3,14,9,4,10,7,6,12,15,5,1,11,8"
14930,commdev-image-keyboard-response,573,1567060,learnblock2,637.9000000059605,img/planet15_right.png,15,Community 3,NA,TRUE,j,j,NA,NA,NA,111,6,"13,2,3,14,9,4,10,7,6,12,15,5,1,11,8"
14930,commdev-image-keyboard-response,574,1568311,learnblock2,595.1999999880791,img/planet9_left.png,9,Community 1,NA,TRUE,f,f,NA,NA,NA,111,6,"13,2,3,14,9,4,10,7,6,12,15,5,1,11,8"
14930,commdev-image-keyboard-response,575,1569562,learnblock2,619,img/planet3_right.png,3,Community 1,NA,TRUE,j,j,NA,NA,NA,111,6,"13,2,3,14,9,4,10,7,6,12,15,5,1,11,8"
14930,commdev-image-keyboard-response,576,1570813,learnblock2,628.7999999821186,img/planet14_right.png,14,Community 1,NA,TRUE,j,j,NA,NA,NA,111,6,"13,2,3,14,9,4,10,7,6,12,15,5,1,11,8"
14930,commdev-image-keyboard-response,577,1572064,learnblock2,610.9000000059605,img/planet4_left.png,4,Community 2,NA,TRUE,f,f,NA,NA,NA,111,6,"13,2,3,14,9,4,10,7,6,12,15,5,1,11,8"
14930,commdev-image-keyboard-response,578,1573316,learnblock2,673.6999999880791,img/planet6_right.png,6,Community 2,NA,TRUE,j,j,NA,NA,NA,111,6,"13,2,3,14,9,4,10,7,6,12,15,5,1,11,8"
14930,commdev-image-keyboard-response,579,1574567,learnblock2,581.7999999821186,img/planet10_left.png,10,Community 2,NA,TRUE,f,f,NA,NA,NA,111,6,"13,2,3,14,9,4,10,7,6,12,15,5,1,11,8"
14930,commdev-image-keyboard-response,580,1575818,learnblock2,729.2999999821186,img/planet7_left.png,7,Community 2,NA,TRUE,f,f,NA,NA,NA,111,6,"13,2,3,14,9,4,10,7,6,12,15,5,1,11,8"
14930,commdev-image-keyboard-response,581,1577069,learnblock2,609.6999999880791,img/planet10_left.png,10,Community 2,NA,TRUE,f,f,NA,NA,NA,111,6,"13,2,3,14,9,4,10,7,6,12,15,5,1,11,8"
14930,commdev-image-keyboard-response,582,1578320,learnblock2,600.5,img/planet4_left.png,4,Community 2,NA,TRUE,f,f,NA,NA,NA,111,6,"13,2,3,14,9,4,10,7,6,12,15,5,1,11,8"
14930,commdev-image-keyboard-response,583,1579571,learnblock2,593.3999999761581,img/planet14_right.png,14,Community 1,NA,TRUE,j,j,NA,NA,NA,111,6,"13,2,3,14,9,4,10,7,6,12,15,5,1,11,8"
14930,commdev-image-keyboard-response,584,1580822,learnblock2,1070.5999999940395,img/planet3_right.png,3,Community 1,NA,TRUE,j,j,NA,NA,NA,111,6,"13,2,3,14,9,4,10,7,6,12,15,5,1,11,8"
14930,commdev-image-keyboard-response,585,1582073,learnblock2,719,img/planet14_right.png,14,Community 1,NA,TRUE,j,j,NA,NA,NA,111,6,"13,2,3,14,9,4,10,7,6,12,15,5,1,11,8"
14930,commdev-image-keyboard-response,586,1583324,learnblock2,618.5,img/planet3_left.png,3,Community 1,NA,TRUE,f,f,NA,NA,NA,111,6,"13,2,3,14,9,4,10,7,6,12,15,5,1,11,8"
14930,commdev-image-keyboard-response,587,1584575,learnblock2,569.5,img/planet13_right.png,13,Community 1,NA,TRUE,j,j,NA,NA,NA,111,6,"13,2,3,14,9,4,10,7,6,12,15,5,1,11,8"
14930,commdev-image-keyboard-response,588,1585826,learnblock2,753.6999999880791,img/planet14_right.png,14,Community 1,NA,TRUE,j,j,NA,NA,NA,111,6,"13,2,3,14,9,4,10,7,6,12,15,5,1,11,8"
14930,commdev-image-keyboard-response,589,1587078,learnblock2,653.0999999940395,img/planet3_left.png,3,Community 1,NA,TRUE,f,f,NA,NA,NA,111,6,"13,2,3,14,9,4,10,7,6,12,15,5,1,11,8"
14930,commdev-image-keyboard-response,590,1588328,learnblock2,672.1999999880791,img/planet13_right.png,13,Community 1,NA,TRUE,j,j,NA,NA,NA,111,6,"13,2,3,14,9,4,10,7,6,12,15,5,1,11,8"
14930,commdev-image-keyboard-response,591,1589579,learnblock2,565.6000000238419,img/planet9_right.png,9,Community 1,NA,TRUE,j,j,NA,NA,NA,111,6,"13,2,3,14,9,4,10,7,6,12,15,5,1,11,8"
14930,commdev-image-keyboard-response,592,1590830,learnblock2,619.5,img/planet3_left.png,3,Community 1,NA,TRUE,f,f,NA,NA,NA,111,6,"13,2,3,14,9,4,10,7,6,12,15,5,1,11,8"
14930,commdev-image-keyboard-response,593,1592082,learnblock2,606.1999999880791,img/planet9_left.png,9,Community 1,NA,TRUE,f,f,NA,NA,NA,111,6,"13,2,3,14,9,4,10,7,6,12,15,5,1,11,8"
14930,commdev-image-keyboard-response,594,1593332,learnblock2,640.3000000119209,img/planet2_right.png,2,Community 1,NA,TRUE,j,j,NA,NA,NA,111,6,"13,2,3,14,9,4,10,7,6,12,15,5,1,11,8"
14930,commdev-image-keyboard-response,595,1594583,learnblock2,657.6000000238419,img/planet13_left.png,13,Community 1,NA,TRUE,f,f,NA,NA,NA,111,6,"13,2,3,14,9,4,10,7,6,12,15,5,1,11,8"
14930,commdev-image-keyboard-response,596,1595835,learnblock2,575.4000000059605,img/planet2_left.png,2,Community 1,NA,TRUE,f,f,NA,NA,NA,111,6,"13,2,3,14,9,4,10,7,6,12,15,5,1,11,8"
14930,commdev-image-keyboard-response,597,1597085,learnblock2,609.5999999940395,img/planet9_right.png,9,Community 1,NA,TRUE,j,j,NA,NA,NA,111,6,"13,2,3,14,9,4,10,7,6,12,15,5,1,11,8"
14930,commdev-image-keyboard-response,598,1598346,learnblock2,660.6000000238419,img/planet3_right.png,3,Community 1,NA,TRUE,j,j,NA,NA,NA,111,6,"13,2,3,14,9,4,10,7,6,12,15,5,1,11,8"
14930,commdev-image-keyboard-response,599,1599610,learnblock2,650.2999999821186,img/planet9_right.png,9,Community 1,NA,TRUE,j,j,NA,NA,NA,111,6,"13,2,3,14,9,4,10,7,6,12,15,5,1,11,8"
14930,commdev-image-keyboard-response,600,1600861,learnblock2,675.1000000238419,img/planet3_left.png,3,Community 1,NA,TRUE,f,f,NA,NA,NA,111,6,"13,2,3,14,9,4,10,7,6,12,15,5,1,11,8"
14930,commdev-image-keyboard-response,601,1602112,learnblock2,589.6000000238419,img/planet13_left.png,13,Community 1,NA,TRUE,f,f,NA,NA,NA,111,6,"13,2,3,14,9,4,10,7,6,12,15,5,1,11,8"
14930,commdev-image-keyboard-response,602,1603364,learnblock2,572.1999999880791,img/planet3_left.png,3,Community 1,NA,TRUE,f,f,NA,NA,NA,111,6,"13,2,3,14,9,4,10,7,6,12,15,5,1,11,8"
14930,commdev-image-keyboard-response,603,1604615,learnblock2,655.1999999880791,img/planet14_right.png,14,Community 1,NA,TRUE,j,j,NA,NA,NA,111,6,"13,2,3,14,9,4,10,7,6,12,15,5,1,11,8"
14930,commdev-image-keyboard-response,604,1605865,learnblock2,735.1000000238419,img/planet3_right.png,3,Community 1,NA,TRUE,j,j,NA,NA,NA,111,6,"13,2,3,14,9,4,10,7,6,12,15,5,1,11,8"
14930,commdev-image-keyboard-response,605,1607116,learnblock2,null,img/planet13_left.png,13,Community 1,NA,FALSE,null,f,NA,NA,NA,111,6,"13,2,3,14,9,4,10,7,6,12,15,5,1,11,8"
14930,commdev-image-keyboard-response,606,1608368,learnblock2,592.3000000119209,img/planet14_right.png,14,Community 1,NA,FALSE,f,j,NA,NA,NA,111,6,"13,2,3,14,9,4,10,7,6,12,15,5,1,11,8"
14930,commdev-image-keyboard-response,607,1609619,learnblock2,585.9000000059605,img/planet2_right.png,2,Community 1,NA,TRUE,j,j,NA,NA,NA,111,6,"13,2,3,14,9,4,10,7,6,12,15,5,1,11,8"
14930,commdev-image-keyboard-response,608,1610870,learnblock2,573.2999999821186,img/planet13_left.png,13,Community 1,NA,TRUE,f,f,NA,NA,NA,111,6,"13,2,3,14,9,4,10,7,6,12,15,5,1,11,8"
14930,commdev-image-keyboard-response,609,1612122,learnblock2,575.5,img/planet2_left.png,2,Community 1,NA,TRUE,f,f,NA,NA,NA,111,6,"13,2,3,14,9,4,10,7,6,12,15,5,1,11,8"
14930,commdev-image-keyboard-response,610,1613373,learnblock2,642.8999999761581,img/planet9_left.png,9,Community 1,NA,TRUE,f,f,NA,NA,NA,111,6,"13,2,3,14,9,4,10,7,6,12,15,5,1,11,8"
14930,commdev-image-keyboard-response,611,1614624,learnblock2,687.6000000238419,img/planet2_right.png,2,Community 1,NA,TRUE,j,j,NA,NA,NA,111,6,"13,2,3,14,9,4,10,7,6,12,15,5,1,11,8"
14930,commdev-image-keyboard-response,612,1615875,learnblock2,693.4000000059605,img/planet9_right.png,9,Community 1,NA,TRUE,j,j,NA,NA,NA,111,6,"13,2,3,14,9,4,10,7,6,12,15,5,1,11,8"
14930,commdev-image-keyboard-response,613,1617126,learnblock2,591.9000000059605,img/planet2_right.png,2,Community 1,NA,TRUE,j,j,NA,NA,NA,111,6,"13,2,3,14,9,4,10,7,6,12,15,5,1,11,8"
14930,commdev-image-keyboard-response,614,1618377,learnblock2,716.0999999940395,img/planet3_left.png,3,Community 1,NA,TRUE,f,f,NA,NA,NA,111,6,"13,2,3,14,9,4,10,7,6,12,15,5,1,11,8"
14930,commdev-image-keyboard-response,615,1619629,learnblock2,665.5,img/planet2_right.png,2,Community 1,NA,TRUE,j,j,NA,NA,NA,111,6,"13,2,3,14,9,4,10,7,6,12,15,5,1,11,8"
14930,commdev-image-keyboard-response,616,1620880,learnblock2,921.6999999880791,img/planet13_right.png,13,Community 1,NA,TRUE,j,j,NA,NA,NA,111,6,"13,2,3,14,9,4,10,7,6,12,15,5,1,11,8"
14930,commdev-image-keyboard-response,617,1622131,learnblock2,597.5999999940395,img/planet9_left.png,9,Community 1,NA,TRUE,f,f,NA,NA,NA,111,6,"13,2,3,14,9,4,10,7,6,12,15,5,1,11,8"
14930,commdev-image-keyboard-response,618,1623382,learnblock2,647,img/planet2_left.png,2,Community 1,NA,TRUE,f,f,NA,NA,NA,111,6,"13,2,3,14,9,4,10,7,6,12,15,5,1,11,8"
14930,commdev-image-keyboard-response,619,1624633,learnblock2,545.6999999880791,img/planet9_right.png,9,Community 1,NA,TRUE,j,j,NA,NA,NA,111,6,"13,2,3,14,9,4,10,7,6,12,15,5,1,11,8"
14930,commdev-image-keyboard-response,620,1625884,learnblock2,773.8000000119209,img/planet15_right.png,15,Community 3,NA,TRUE,j,j,NA,NA,NA,111,6,"13,2,3,14,9,4,10,7,6,12,15,5,1,11,8"
14930,commdev-image-keyboard-response,621,1627135,learnblock2,705.5,img/planet8_right.png,8,Community 3,NA,TRUE,j,j,NA,NA,NA,111,6,"13,2,3,14,9,4,10,7,6,12,15,5,1,11,8"
14930,commdev-image-keyboard-response,622,1628386,learnblock2,657.1999999880791,img/planet5_left.png,5,Community 3,NA,TRUE,f,f,NA,NA,NA,111,6,"13,2,3,14,9,4,10,7,6,12,15,5,1,11,8"
14930,commdev-image-keyboard-response,623,1629637,learnblock2,687.2999999821186,img/planet8_left.png,8,Community 3,NA,TRUE,f,f,NA,NA,NA,111,6,"13,2,3,14,9,4,10,7,6,12,15,5,1,11,8"
14930,commdev-image-keyboard-response,624,1630888,learnblock2,672.5,img/planet11_right.png,11,Community 3,NA,TRUE,j,j,NA,NA,NA,111,6,"13,2,3,14,9,4,10,7,6,12,15,5,1,11,8"
14930,commdev-image-keyboard-response,625,1632140,learnblock2,644.7999999821186,img/planet8_left.png,8,Community 3,NA,TRUE,f,f,NA,NA,NA,111,6,"13,2,3,14,9,4,10,7,6,12,15,5,1,11,8"
14930,commdev-image-keyboard-response,626,1633391,learnblock2,565.3000000119209,img/planet1_left.png,1,Community 3,NA,TRUE,f,f,NA,NA,NA,111,6,"13,2,3,14,9,4,10,7,6,12,15,5,1,11,8"
14930,commdev-image-keyboard-response,627,1634642,learnblock2,639,img/planet15_right.png,15,Community 3,NA,TRUE,j,j,NA,NA,NA,111,6,"13,2,3,14,9,4,10,7,6,12,15,5,1,11,8"
14930,commdev-image-keyboard-response,628,1635892,learnblock2,637.7999999821186,img/planet1_left.png,1,Community 3,NA,FALSE,j,f,NA,NA,NA,111,6,"13,2,3,14,9,4,10,7,6,12,15,5,1,11,8"
14930,commdev-image-keyboard-response,629,1637144,learnblock2,576.0999999940395,img/planet15_right.png,15,Community 3,NA,TRUE,j,j,NA,NA,NA,111,6,"13,2,3,14,9,4,10,7,6,12,15,5,1,11,8"
14930,commdev-image-keyboard-response,630,1638395,learnblock2,665.9000000059605,img/planet1_left.png,1,Community 3,NA,TRUE,f,f,NA,NA,NA,111,6,"13,2,3,14,9,4,10,7,6,12,15,5,1,11,8"
14930,commdev-image-keyboard-response,631,1639646,learnblock2,631.7999999821186,img/planet8_right.png,8,Community 3,NA,TRUE,j,j,NA,NA,NA,111,6,"13,2,3,14,9,4,10,7,6,12,15,5,1,11,8"
14930,commdev-image-keyboard-response,632,1640898,learnblock2,753,img/planet11_right.png,11,Community 3,NA,TRUE,j,j,NA,NA,NA,111,6,"13,2,3,14,9,4,10,7,6,12,15,5,1,11,8"
14930,commdev-image-keyboard-response,633,1642149,learnblock2,682.5,img/planet15_right.png,15,Community 3,NA,TRUE,j,j,NA,NA,NA,111,6,"13,2,3,14,9,4,10,7,6,12,15,5,1,11,8"
14930,commdev-image-keyboard-response,634,1643400,learnblock2,630.1000000238419,img/planet9_right.png,9,Community 1,NA,TRUE,j,j,NA,NA,NA,111,6,"13,2,3,14,9,4,10,7,6,12,15,5,1,11,8"
14930,commdev-image-keyboard-response,635,1644651,learnblock2,648.2999999821186,img/planet15_right.png,15,Community 3,NA,TRUE,j,j,NA,NA,NA,111,6,"13,2,3,14,9,4,10,7,6,12,15,5,1,11,8"
14930,commdev-image-keyboard-response,636,1645903,learnblock2,581.6999999880791,img/planet9_left.png,9,Community 1,NA,TRUE,f,f,NA,NA,NA,111,6,"13,2,3,14,9,4,10,7,6,12,15,5,1,11,8"
14930,commdev-image-keyboard-response,637,1647154,learnblock2,570,img/planet2_right.png,2,Community 1,NA,TRUE,j,j,NA,NA,NA,111,6,"13,2,3,14,9,4,10,7,6,12,15,5,1,11,8"
14930,commdev-image-keyboard-response,638,1648405,learnblock2,660.7999999821186,img/planet3_right.png,3,Community 1,NA,TRUE,j,j,NA,NA,NA,111,6,"13,2,3,14,9,4,10,7,6,12,15,5,1,11,8"
14930,commdev-image-keyboard-response,639,1649657,learnblock2,664.7000000178814,img/planet9_right.png,9,Community 1,NA,TRUE,j,j,NA,NA,NA,111,6,"13,2,3,14,9,4,10,7,6,12,15,5,1,11,8"
14930,commdev-image-keyboard-response,640,1650908,learnblock2,658.3000000119209,img/planet13_left.png,13,Community 1,NA,TRUE,f,f,NA,NA,NA,111,6,"13,2,3,14,9,4,10,7,6,12,15,5,1,11,8"
14930,commdev-image-keyboard-response,641,1652159,learnblock2,606.4000000059605,img/planet9_right.png,9,Community 1,NA,TRUE,j,j,NA,NA,NA,111,6,"13,2,3,14,9,4,10,7,6,12,15,5,1,11,8"
14930,commdev-image-keyboard-response,642,1653410,learnblock2,729.8999999761581,img/planet3_right.png,3,Community 1,NA,TRUE,j,j,NA,NA,NA,111,6,"13,2,3,14,9,4,10,7,6,12,15,5,1,11,8"
14930,commdev-image-keyboard-response,643,1654661,learnblock2,838.5999999940395,img/planet2_left.png,2,Community 1,NA,TRUE,f,f,NA,NA,NA,111,6,"13,2,3,14,9,4,10,7,6,12,15,5,1,11,8"
14930,commdev-image-keyboard-response,644,1655927,learnblock2,694.5999999940395,img/planet14_right.png,14,Community 1,NA,TRUE,j,j,NA,NA,NA,111,6,"13,2,3,14,9,4,10,7,6,12,15,5,1,11,8"
14930,commdev-image-keyboard-response,645,1657178,learnblock2,525.3999999761581,img/planet13_left.png,13,Community 1,NA,TRUE,f,f,NA,NA,NA,111,6,"13,2,3,14,9,4,10,7,6,12,15,5,1,11,8"
14930,commdev-image-keyboard-response,646,1658429,learnblock2,590.3999999761581,img/planet9_left.png,9,Community 1,NA,TRUE,f,f,NA,NA,NA,111,6,"13,2,3,14,9,4,10,7,6,12,15,5,1,11,8"
