subject_id,trial_type,trial_index,time_elapsed,block,rt,stimulus,planet,community,response,correct,key_press,learning_correct_response,parse,init_locations,final_locations,browser_interactions,num_comp,planet_map
15139,commdev-instructions,7,193790,NA,6195,"<p>In this game, you are a scientist on board a space shuttle. </p><p> On each mission, you will visit planets all across the universe.</p><img src=""img/controlroom.jpg"" width=300vw>",NA,NA,NA,NA,NA,NA,NA,NA,NA,1,6,"6,3,10,9,1,7,8,11,4,12,15,14,13,2,5"
15139,commdev-instructions,8,201501,NA,5628,"<p>Here are a few planets you might see:</p><img src=""img/practice1.png"" width=200vw><img src=""img/practice2.png"" width=200vw><img src=""img/practice3.png"" width=200vw>",NA,NA,NA,NA,NA,NA,NA,NA,NA,1,6,"6,3,10,9,1,7,8,11,4,12,15,14,13,2,5"
15139,commdev-instructions,9,214706,NA,5792,"<p>Your job as a scientist is to record which direction the winds are moving on each planet.</p><p>There are two types of wind directions:</p><img src=""img/practice1_left.png"" width=200vw><img src=""img/practice1_right.png"" width=200vw>",NA,NA,NA,NA,NA,NA,NA,NA,NA,1,6,"6,3,10,9,1,7,8,11,4,12,15,14,13,2,5"
15139,commdev-instructions,10,221046,NA,1443,"<p>If the winds are moving this way, press the letter <strong>F</strong> on the keyboard as fast as you can.</p><img src=""img/leftwind.png"" width=250vw>",NA,NA,NA,NA,NA,NA,NA,NA,NA,1,6,"6,3,10,9,1,7,8,11,4,12,15,14,13,2,5"
15139,commdev-instructions,11,268941,NA,43380,"<p>If the winds are moving this way, press the letter <strong>J</strong> on the keyboard as fast as you can.</p><img src=""img/rightwind.png"" width=350vw>",NA,NA,NA,NA,NA,NA,NA,NA,NA,1,6,"6,3,10,9,1,7,8,11,4,12,15,14,13,2,5"
15139,commdev-instructions,12,276030,NA,2657,<p>You will have 1 second to respond. Try to respond before the time runs out!,NA,NA,NA,NA,NA,NA,NA,NA,NA,1,6,"6,3,10,9,1,7,8,11,4,12,15,14,13,2,5"
15139,commdev-instructions,13,282214,NA,732,<p>The planets you will visit will look different from each other.</p><p>You should respond <strong>only</strong> based on wind direction.,NA,NA,NA,NA,NA,NA,NA,NA,NA,1,6,"6,3,10,9,1,7,8,11,4,12,15,14,13,2,5"
15139,commdev-instructions,14,290574,NA,3172,"<p> Ready to start the practice round? </p><p> Remember, press <strong>F</strong> or <strong>J</strong> depending on the wind direction.<br><img src=""img/categorize_planet_example.png""",NA,NA,NA,NA,NA,NA,NA,NA,NA,1,6,"6,3,10,9,1,7,8,11,4,12,15,14,13,2,5"
15139,commdev-instructions,26,344046,NA,922,"<p>Great, now try a short practice mission. </p><p> This time, you will have 1 second to respond and you won't know whether you pressed the right or wrong key for each planet.</p>",NA,NA,NA,NA,NA,NA,NA,NA,NA,1,6,"6,3,10,9,1,7,8,11,4,12,15,14,13,2,5"
15139,commdev-image-keyboard-response,27,345412,practice,null,img/practice2_right.png,NA,Number not found in mappings,NA,FALSE,null,j,NA,NA,NA,1,6,"6,3,10,9,1,7,8,11,4,12,15,14,13,2,5"
15139,commdev-image-keyboard-response,28,346671,practice,null,img/practice1_right.png,NA,Number not found in mappings,NA,FALSE,null,j,NA,NA,NA,1,6,"6,3,10,9,1,7,8,11,4,12,15,14,13,2,5"
15139,commdev-image-keyboard-response,29,347930,practice,535,img/practice3_right.png,NA,Number not found in mappings,NA,FALSE,f,j,NA,NA,NA,1,6,"6,3,10,9,1,7,8,11,4,12,15,14,13,2,5"
15139,commdev-image-keyboard-response,30,349193,practice,579,img/practice2_right.png,NA,Number not found in mappings,NA,TRUE,j,j,NA,NA,NA,1,6,"6,3,10,9,1,7,8,11,4,12,15,14,13,2,5"
15139,commdev-image-keyboard-response,31,350565,practice,413,img/practice1_left.png,NA,Number not found in mappings,NA,FALSE,j,f,NA,NA,NA,1,6,"6,3,10,9,1,7,8,11,4,12,15,14,13,2,5"
15139,commdev-image-keyboard-response,32,351970,practice,520,img/practice3_left.png,NA,Number not found in mappings,NA,FALSE,j,f,NA,NA,NA,1,6,"6,3,10,9,1,7,8,11,4,12,15,14,13,2,5"
15139,commdev-image-keyboard-response,33,353222,practice,156,img/practice2_left.png,NA,Number not found in mappings,NA,TRUE,f,f,NA,NA,NA,1,6,"6,3,10,9,1,7,8,11,4,12,15,14,13,2,5"
15139,commdev-image-keyboard-response,34,354483,practice,463,img/practice4_left.png,NA,Number not found in mappings,NA,TRUE,f,f,NA,NA,NA,1,6,"6,3,10,9,1,7,8,11,4,12,15,14,13,2,5"
15139,commdev-instructions,35,367069,NA,3015,"<p>Great job with the practice round.</p><p>During real missions, you won't know whether you pressed the right or wrong key for each planet.</p><p>But between missions, we will tell you how you did overall.</p>",NA,NA,NA,NA,NA,NA,NA,NA,NA,1,6,"6,3,10,9,1,7,8,11,4,12,15,14,13,2,5"
15139,commdev-instructions,36,377365,NA,2042,<p>Try your best! You will be paid a bonus based on how many correct responses you make!</p><p>Responses that are too slow will not count toward your bonus.</p>,NA,NA,NA,NA,NA,NA,NA,NA,NA,1,6,"6,3,10,9,1,7,8,11,4,12,15,14,13,2,5"
15139,commdev-instructions,37,460574,NA,76992,"<p>You are almost ready to start the real game.</p><p> First, we are going to ask you some questions about how the game works.</p>",NA,NA,NA,NA,NA,NA,NA,NA,NA,1,6,"6,3,10,9,1,7,8,11,4,12,15,14,13,2,5"
15139,commdev-instructions,46,550326,NA,5734,"<p> Nice work! It is now time to start the real game.<p></p>You will go on two missions to record wind directions of different planets.<p></p>Each one will take about 5 minutes. You will get to take a break between missions.<p><p> Remember, press <strong>F</strong> or <strong>J</strong> depending on the wind direction. Good luck!<br><img src=""img/categorize_planet_example.png""",NA,NA,NA,NA,NA,NA,NA,NA,NA,1,6,"6,3,10,9,1,7,8,11,4,12,15,14,13,2,5"
15139,commdev-image-keyboard-response,48,553705,learnblock1,null,img/planet7_left.png,7,Community 2,NA,FALSE,null,f,NA,NA,NA,1,6,"6,3,10,9,1,7,8,11,4,12,15,14,13,2,5"
15139,commdev-image-keyboard-response,49,554965,learnblock1,27,img/planet9_left.png,9,Community 1,NA,TRUE,f,f,NA,NA,NA,1,6,"6,3,10,9,1,7,8,11,4,12,15,14,13,2,5"
15139,commdev-image-keyboard-response,50,556229,learnblock1,914,img/planet3_left.png,3,Community 1,NA,TRUE,f,f,NA,NA,NA,1,6,"6,3,10,9,1,7,8,11,4,12,15,14,13,2,5"
15139,commdev-image-keyboard-response,51,557487,learnblock1,561,img/planet1_left.png,1,Community 1,NA,TRUE,f,f,NA,NA,NA,1,6,"6,3,10,9,1,7,8,11,4,12,15,14,13,2,5"
15139,commdev-image-keyboard-response,52,558750,learnblock1,935,img/planet3_right.png,3,Community 1,NA,TRUE,j,j,NA,NA,NA,1,6,"6,3,10,9,1,7,8,11,4,12,15,14,13,2,5"
15139,commdev-image-keyboard-response,53,560015,learnblock1,814,img/planet6_right.png,6,Community 1,NA,TRUE,j,j,NA,NA,NA,1,6,"6,3,10,9,1,7,8,11,4,12,15,14,13,2,5"
15139,commdev-image-keyboard-response,54,561277,learnblock1,536,img/planet10_left.png,10,Community 1,NA,TRUE,f,f,NA,NA,NA,1,6,"6,3,10,9,1,7,8,11,4,12,15,14,13,2,5"
15139,commdev-image-keyboard-response,55,562541,learnblock1,671,img/planet6_left.png,6,Community 1,NA,TRUE,f,f,NA,NA,NA,1,6,"6,3,10,9,1,7,8,11,4,12,15,14,13,2,5"
15139,commdev-image-keyboard-response,56,563802,learnblock1,800,img/planet3_right.png,3,Community 1,NA,TRUE,j,j,NA,NA,NA,1,6,"6,3,10,9,1,7,8,11,4,12,15,14,13,2,5"
15139,commdev-image-keyboard-response,57,565052,learnblock1,581,img/planet6_left.png,6,Community 1,NA,TRUE,f,f,NA,NA,NA,1,6,"6,3,10,9,1,7,8,11,4,12,15,14,13,2,5"
15139,commdev-image-keyboard-response,58,566393,learnblock1,991,img/planet1_right.png,1,Community 1,NA,TRUE,j,j,NA,NA,NA,1,6,"6,3,10,9,1,7,8,11,4,12,15,14,13,2,5"
15139,commdev-image-keyboard-response,59,567657,learnblock1,590,img/planet6_left.png,6,Community 1,NA,TRUE,f,f,NA,NA,NA,1,6,"6,3,10,9,1,7,8,11,4,12,15,14,13,2,5"
15139,commdev-image-keyboard-response,60,568995,learnblock1,534,img/planet10_left.png,10,Community 1,NA,TRUE,f,f,NA,NA,NA,1,6,"6,3,10,9,1,7,8,11,4,12,15,14,13,2,5"
15139,commdev-image-keyboard-response,61,570258,learnblock1,513,img/planet1_left.png,1,Community 1,NA,TRUE,f,f,NA,NA,NA,1,6,"6,3,10,9,1,7,8,11,4,12,15,14,13,2,5"
15139,commdev-image-keyboard-response,62,571522,learnblock1,579,img/planet6_left.png,6,Community 1,NA,TRUE,f,f,NA,NA,NA,1,6,"6,3,10,9,1,7,8,11,4,12,15,14,13,2,5"
15139,commdev-image-keyboard-response,63,572785,learnblock1,572,img/planet10_left.png,10,Community 1,NA,TRUE,f,f,NA,NA,NA,1,6,"6,3,10,9,1,7,8,11,4,12,15,14,13,2,5"
15139,commdev-image-keyboard-response,64,574040,learnblock1,899,img/planet3_left.png,3,Community 1,NA,TRUE,f,f,NA,NA,NA,1,6,"6,3,10,9,1,7,8,11,4,12,15,14,13,2,5"
15139,commdev-image-keyboard-response,65,575304,learnblock1,607,img/planet9_right.png,9,Community 1,NA,TRUE,j,j,NA,NA,NA,1,6,"6,3,10,9,1,7,8,11,4,12,15,14,13,2,5"
15139,commdev-image-keyboard-response,66,576557,learnblock1,678,img/planet6_left.png,6,Community 1,NA,TRUE,f,f,NA,NA,NA,1,6,"6,3,10,9,1,7,8,11,4,12,15,14,13,2,5"
15139,commdev-image-keyboard-response,67,577820,learnblock1,527,img/planet9_right.png,9,Community 1,NA,TRUE,j,j,NA,NA,NA,1,6,"6,3,10,9,1,7,8,11,4,12,15,14,13,2,5"
15139,commdev-image-keyboard-response,68,579083,learnblock1,443,img/planet10_left.png,10,Community 1,NA,TRUE,f,f,NA,NA,NA,1,6,"6,3,10,9,1,7,8,11,4,12,15,14,13,2,5"
15139,commdev-image-keyboard-response,69,580344,learnblock1,596,img/planet3_right.png,3,Community 1,NA,TRUE,j,j,NA,NA,NA,1,6,"6,3,10,9,1,7,8,11,4,12,15,14,13,2,5"
15139,commdev-image-keyboard-response,70,581599,learnblock1,532,img/planet10_left.png,10,Community 1,NA,TRUE,f,f,NA,NA,NA,1,6,"6,3,10,9,1,7,8,11,4,12,15,14,13,2,5"
15139,commdev-image-keyboard-response,71,582850,learnblock1,518,img/planet6_right.png,6,Community 1,NA,TRUE,j,j,NA,NA,NA,1,6,"6,3,10,9,1,7,8,11,4,12,15,14,13,2,5"
15139,commdev-image-keyboard-response,72,584107,learnblock1,387,img/planet10_left.png,10,Community 1,NA,TRUE,f,f,NA,NA,NA,1,6,"6,3,10,9,1,7,8,11,4,12,15,14,13,2,5"
15139,commdev-image-keyboard-response,73,585367,learnblock1,739,img/planet9_left.png,9,Community 1,NA,FALSE,j,f,NA,NA,NA,1,6,"6,3,10,9,1,7,8,11,4,12,15,14,13,2,5"
15139,commdev-image-keyboard-response,74,586763,learnblock1,990,img/planet3_right.png,3,Community 1,NA,TRUE,j,j,NA,NA,NA,1,6,"6,3,10,9,1,7,8,11,4,12,15,14,13,2,5"
15139,commdev-image-keyboard-response,75,588026,learnblock1,475,img/planet9_left.png,9,Community 1,NA,TRUE,f,f,NA,NA,NA,1,6,"6,3,10,9,1,7,8,11,4,12,15,14,13,2,5"
15139,commdev-image-keyboard-response,76,589291,learnblock1,787,img/planet7_right.png,7,Community 2,NA,TRUE,j,j,NA,NA,NA,1,6,"6,3,10,9,1,7,8,11,4,12,15,14,13,2,5"
15139,commdev-image-keyboard-response,77,590558,learnblock1,553,img/planet12_left.png,12,Community 2,NA,TRUE,f,f,NA,NA,NA,1,6,"6,3,10,9,1,7,8,11,4,12,15,14,13,2,5"
15139,commdev-image-keyboard-response,78,591824,learnblock1,641,img/planet4_right.png,4,Community 2,NA,TRUE,j,j,NA,NA,NA,1,6,"6,3,10,9,1,7,8,11,4,12,15,14,13,2,5"
15139,commdev-image-keyboard-response,79,593087,learnblock1,495,img/planet11_left.png,11,Community 2,NA,TRUE,f,f,NA,NA,NA,1,6,"6,3,10,9,1,7,8,11,4,12,15,14,13,2,5"
15139,commdev-image-keyboard-response,80,594351,learnblock1,790,img/planet4_left.png,4,Community 2,NA,TRUE,f,f,NA,NA,NA,1,6,"6,3,10,9,1,7,8,11,4,12,15,14,13,2,5"
15139,commdev-image-keyboard-response,81,595617,learnblock1,758,img/planet7_left.png,7,Community 2,NA,TRUE,f,f,NA,NA,NA,1,6,"6,3,10,9,1,7,8,11,4,12,15,14,13,2,5"
15139,commdev-image-keyboard-response,82,596879,learnblock1,643,img/planet9_left.png,9,Community 1,NA,TRUE,f,f,NA,NA,NA,1,6,"6,3,10,9,1,7,8,11,4,12,15,14,13,2,5"
15139,commdev-image-keyboard-response,83,598269,learnblock1,919,img/planet3_left.png,3,Community 1,NA,TRUE,f,f,NA,NA,NA,1,6,"6,3,10,9,1,7,8,11,4,12,15,14,13,2,5"
15139,commdev-image-keyboard-response,84,599534,learnblock1,767,img/planet1_left.png,1,Community 1,NA,TRUE,f,f,NA,NA,NA,1,6,"6,3,10,9,1,7,8,11,4,12,15,14,13,2,5"
15139,commdev-image-keyboard-response,85,600785,learnblock1,752,img/planet3_left.png,3,Community 1,NA,TRUE,f,f,NA,NA,NA,1,6,"6,3,10,9,1,7,8,11,4,12,15,14,13,2,5"
15139,commdev-image-keyboard-response,86,602053,learnblock1,827,img/planet1_left.png,1,Community 1,NA,TRUE,f,f,NA,NA,NA,1,6,"6,3,10,9,1,7,8,11,4,12,15,14,13,2,5"
15139,commdev-image-keyboard-response,87,603319,learnblock1,731,img/planet10_right.png,10,Community 1,NA,TRUE,j,j,NA,NA,NA,1,6,"6,3,10,9,1,7,8,11,4,12,15,14,13,2,5"
15139,commdev-image-keyboard-response,88,604580,learnblock1,647,img/planet3_left.png,3,Community 1,NA,TRUE,f,f,NA,NA,NA,1,6,"6,3,10,9,1,7,8,11,4,12,15,14,13,2,5"
15139,commdev-image-keyboard-response,89,605841,learnblock1,488,img/planet1_right.png,1,Community 1,NA,TRUE,j,j,NA,NA,NA,1,6,"6,3,10,9,1,7,8,11,4,12,15,14,13,2,5"
15139,commdev-image-keyboard-response,90,607106,learnblock1,789,img/planet10_left.png,10,Community 1,NA,TRUE,f,f,NA,NA,NA,1,6,"6,3,10,9,1,7,8,11,4,12,15,14,13,2,5"
15139,commdev-image-keyboard-response,91,608368,learnblock1,715,img/planet3_left.png,3,Community 1,NA,TRUE,f,f,NA,NA,NA,1,6,"6,3,10,9,1,7,8,11,4,12,15,14,13,2,5"
15139,commdev-image-keyboard-response,92,609620,learnblock1,613,img/planet9_left.png,9,Community 1,NA,TRUE,f,f,NA,NA,NA,1,6,"6,3,10,9,1,7,8,11,4,12,15,14,13,2,5"
15139,commdev-image-keyboard-response,93,610988,learnblock1,697,img/planet7_right.png,7,Community 2,NA,TRUE,j,j,NA,NA,NA,1,6,"6,3,10,9,1,7,8,11,4,12,15,14,13,2,5"
15139,commdev-image-keyboard-response,94,612252,learnblock1,762,img/planet8_right.png,8,Community 2,NA,TRUE,j,j,NA,NA,NA,1,6,"6,3,10,9,1,7,8,11,4,12,15,14,13,2,5"
15139,commdev-image-keyboard-response,95,613513,learnblock1,643,img/planet12_right.png,12,Community 2,NA,TRUE,j,j,NA,NA,NA,1,6,"6,3,10,9,1,7,8,11,4,12,15,14,13,2,5"
15139,commdev-image-keyboard-response,96,614764,learnblock1,579,img/planet7_right.png,7,Community 2,NA,TRUE,j,j,NA,NA,NA,1,6,"6,3,10,9,1,7,8,11,4,12,15,14,13,2,5"
15139,commdev-image-keyboard-response,97,616027,learnblock1,878,img/planet12_left.png,12,Community 2,NA,TRUE,f,f,NA,NA,NA,1,6,"6,3,10,9,1,7,8,11,4,12,15,14,13,2,5"
15139,commdev-image-keyboard-response,98,617292,learnblock1,869,img/planet8_right.png,8,Community 2,NA,TRUE,j,j,NA,NA,NA,1,6,"6,3,10,9,1,7,8,11,4,12,15,14,13,2,5"
15139,commdev-image-keyboard-response,99,618554,learnblock1,835,img/planet7_left.png,7,Community 2,NA,TRUE,f,f,NA,NA,NA,1,6,"6,3,10,9,1,7,8,11,4,12,15,14,13,2,5"
15139,commdev-image-keyboard-response,100,619810,learnblock1,788,img/planet8_left.png,8,Community 2,NA,TRUE,f,f,NA,NA,NA,1,6,"6,3,10,9,1,7,8,11,4,12,15,14,13,2,5"
15139,commdev-image-keyboard-response,101,621069,learnblock1,676,img/planet7_right.png,7,Community 2,NA,TRUE,j,j,NA,NA,NA,1,6,"6,3,10,9,1,7,8,11,4,12,15,14,13,2,5"
15139,commdev-image-keyboard-response,102,622319,learnblock1,632,img/planet12_left.png,12,Community 2,NA,TRUE,f,f,NA,NA,NA,1,6,"6,3,10,9,1,7,8,11,4,12,15,14,13,2,5"
15139,commdev-image-keyboard-response,103,623583,learnblock1,718,img/planet11_left.png,11,Community 2,NA,TRUE,f,f,NA,NA,NA,1,6,"6,3,10,9,1,7,8,11,4,12,15,14,13,2,5"
15139,commdev-image-keyboard-response,104,624847,learnblock1,661,img/planet8_left.png,8,Community 2,NA,TRUE,f,f,NA,NA,NA,1,6,"6,3,10,9,1,7,8,11,4,12,15,14,13,2,5"
15139,commdev-image-keyboard-response,105,626112,learnblock1,655,img/planet4_right.png,4,Community 2,NA,TRUE,j,j,NA,NA,NA,1,6,"6,3,10,9,1,7,8,11,4,12,15,14,13,2,5"
15139,commdev-image-keyboard-response,106,627513,learnblock1,527,img/planet8_left.png,8,Community 2,NA,TRUE,f,f,NA,NA,NA,1,6,"6,3,10,9,1,7,8,11,4,12,15,14,13,2,5"
15139,commdev-image-keyboard-response,107,628778,learnblock1,516,img/planet7_left.png,7,Community 2,NA,TRUE,f,f,NA,NA,NA,1,6,"6,3,10,9,1,7,8,11,4,12,15,14,13,2,5"
15139,commdev-image-keyboard-response,108,630032,learnblock1,596,img/planet9_right.png,9,Community 1,NA,TRUE,j,j,NA,NA,NA,1,6,"6,3,10,9,1,7,8,11,4,12,15,14,13,2,5"
15139,commdev-image-keyboard-response,109,631298,learnblock1,636,img/planet7_right.png,7,Community 2,NA,TRUE,j,j,NA,NA,NA,1,6,"6,3,10,9,1,7,8,11,4,12,15,14,13,2,5"
15139,commdev-image-keyboard-response,110,632680,learnblock1,538,img/planet9_left.png,9,Community 1,NA,TRUE,f,f,NA,NA,NA,1,6,"6,3,10,9,1,7,8,11,4,12,15,14,13,2,5"
15139,commdev-image-keyboard-response,111,633944,learnblock1,734,img/planet3_left.png,3,Community 1,NA,TRUE,f,f,NA,NA,NA,1,6,"6,3,10,9,1,7,8,11,4,12,15,14,13,2,5"
15139,commdev-image-keyboard-response,112,635208,learnblock1,564,img/planet1_left.png,1,Community 1,NA,TRUE,f,f,NA,NA,NA,1,6,"6,3,10,9,1,7,8,11,4,12,15,14,13,2,5"
15139,commdev-image-keyboard-response,113,636468,learnblock1,567,img/planet3_left.png,3,Community 1,NA,TRUE,f,f,NA,NA,NA,1,6,"6,3,10,9,1,7,8,11,4,12,15,14,13,2,5"
15139,commdev-image-keyboard-response,114,637776,learnblock1,610,img/planet6_left.png,6,Community 1,NA,TRUE,f,f,NA,NA,NA,1,6,"6,3,10,9,1,7,8,11,4,12,15,14,13,2,5"
15139,commdev-image-keyboard-response,115,639041,learnblock1,723,img/planet3_right.png,3,Community 1,NA,TRUE,j,j,NA,NA,NA,1,6,"6,3,10,9,1,7,8,11,4,12,15,14,13,2,5"
15139,commdev-image-keyboard-response,116,640301,learnblock1,637,img/planet1_right.png,1,Community 1,NA,TRUE,j,j,NA,NA,NA,1,6,"6,3,10,9,1,7,8,11,4,12,15,14,13,2,5"
15139,commdev-image-keyboard-response,117,641565,learnblock1,575,img/planet10_left.png,10,Community 1,NA,TRUE,f,f,NA,NA,NA,1,6,"6,3,10,9,1,7,8,11,4,12,15,14,13,2,5"
15139,commdev-image-keyboard-response,118,642816,learnblock1,594,img/planet6_left.png,6,Community 1,NA,TRUE,f,f,NA,NA,NA,1,6,"6,3,10,9,1,7,8,11,4,12,15,14,13,2,5"
15139,commdev-image-keyboard-response,119,644166,learnblock1,533,img/planet1_left.png,1,Community 1,NA,TRUE,f,f,NA,NA,NA,1,6,"6,3,10,9,1,7,8,11,4,12,15,14,13,2,5"
15139,commdev-image-keyboard-response,120,645433,learnblock1,528,img/planet3_left.png,3,Community 1,NA,TRUE,f,f,NA,NA,NA,1,6,"6,3,10,9,1,7,8,11,4,12,15,14,13,2,5"
15139,commdev-image-keyboard-response,121,646764,learnblock1,541,img/planet9_right.png,9,Community 1,NA,TRUE,j,j,NA,NA,NA,1,6,"6,3,10,9,1,7,8,11,4,12,15,14,13,2,5"
15139,commdev-image-keyboard-response,122,648027,learnblock1,521,img/planet10_left.png,10,Community 1,NA,TRUE,f,f,NA,NA,NA,1,6,"6,3,10,9,1,7,8,11,4,12,15,14,13,2,5"
15139,commdev-image-keyboard-response,123,649279,learnblock1,540,img/planet6_right.png,6,Community 1,NA,TRUE,j,j,NA,NA,NA,1,6,"6,3,10,9,1,7,8,11,4,12,15,14,13,2,5"
15139,commdev-image-keyboard-response,124,650531,learnblock1,504,img/planet3_left.png,3,Community 1,NA,TRUE,f,f,NA,NA,NA,1,6,"6,3,10,9,1,7,8,11,4,12,15,14,13,2,5"
15139,commdev-image-keyboard-response,125,651795,learnblock1,688,img/planet1_right.png,1,Community 1,NA,TRUE,j,j,NA,NA,NA,1,6,"6,3,10,9,1,7,8,11,4,12,15,14,13,2,5"
15139,commdev-image-keyboard-response,126,653056,learnblock1,820,img/planet15_right.png,15,Community 3,NA,TRUE,j,j,NA,NA,NA,1,6,"6,3,10,9,1,7,8,11,4,12,15,14,13,2,5"
15139,commdev-image-keyboard-response,127,654314,learnblock1,606,img/planet1_right.png,1,Community 1,NA,TRUE,j,j,NA,NA,NA,1,6,"6,3,10,9,1,7,8,11,4,12,15,14,13,2,5"
15139,commdev-image-keyboard-response,128,655567,learnblock1,595,img/planet6_left.png,6,Community 1,NA,TRUE,f,f,NA,NA,NA,1,6,"6,3,10,9,1,7,8,11,4,12,15,14,13,2,5"
15139,commdev-image-keyboard-response,129,656828,learnblock1,null,img/planet3_right.png,3,Community 1,NA,FALSE,null,j,NA,NA,NA,1,6,"6,3,10,9,1,7,8,11,4,12,15,14,13,2,5"
15139,commdev-image-keyboard-response,130,658081,learnblock1,146,img/planet9_right.png,9,Community 1,NA,TRUE,j,j,NA,NA,NA,1,6,"6,3,10,9,1,7,8,11,4,12,15,14,13,2,5"
15139,commdev-image-keyboard-response,131,659334,learnblock1,522,img/planet6_right.png,6,Community 1,NA,TRUE,j,j,NA,NA,NA,1,6,"6,3,10,9,1,7,8,11,4,12,15,14,13,2,5"
15139,commdev-image-keyboard-response,132,660599,learnblock1,550,img/planet1_right.png,1,Community 1,NA,TRUE,j,j,NA,NA,NA,1,6,"6,3,10,9,1,7,8,11,4,12,15,14,13,2,5"
15139,commdev-image-keyboard-response,133,661857,learnblock1,576,img/planet10_left.png,10,Community 1,NA,TRUE,f,f,NA,NA,NA,1,6,"6,3,10,9,1,7,8,11,4,12,15,14,13,2,5"
15139,commdev-image-keyboard-response,134,663120,learnblock1,598,img/planet3_left.png,3,Community 1,NA,TRUE,f,f,NA,NA,NA,1,6,"6,3,10,9,1,7,8,11,4,12,15,14,13,2,5"
15139,commdev-image-keyboard-response,135,664383,learnblock1,685,img/planet9_right.png,9,Community 1,NA,TRUE,j,j,NA,NA,NA,1,6,"6,3,10,9,1,7,8,11,4,12,15,14,13,2,5"
15139,commdev-image-keyboard-response,136,665649,learnblock1,701,img/planet10_left.png,10,Community 1,NA,TRUE,f,f,NA,NA,NA,1,6,"6,3,10,9,1,7,8,11,4,12,15,14,13,2,5"
15139,commdev-image-keyboard-response,137,666914,learnblock1,676,img/planet3_left.png,3,Community 1,NA,TRUE,f,f,NA,NA,NA,1,6,"6,3,10,9,1,7,8,11,4,12,15,14,13,2,5"
15139,commdev-image-keyboard-response,138,668177,learnblock1,645,img/planet10_right.png,10,Community 1,NA,TRUE,j,j,NA,NA,NA,1,6,"6,3,10,9,1,7,8,11,4,12,15,14,13,2,5"
15139,commdev-image-keyboard-response,139,669565,learnblock1,685,img/planet6_right.png,6,Community 1,NA,TRUE,j,j,NA,NA,NA,1,6,"6,3,10,9,1,7,8,11,4,12,15,14,13,2,5"
15139,commdev-image-keyboard-response,140,670828,learnblock1,552,img/planet1_left.png,1,Community 1,NA,TRUE,f,f,NA,NA,NA,1,6,"6,3,10,9,1,7,8,11,4,12,15,14,13,2,5"
15139,commdev-image-keyboard-response,141,672132,learnblock1,491,img/planet10_right.png,10,Community 1,NA,TRUE,j,j,NA,NA,NA,1,6,"6,3,10,9,1,7,8,11,4,12,15,14,13,2,5"
15139,commdev-image-keyboard-response,142,673397,learnblock1,425,img/planet3_left.png,3,Community 1,NA,TRUE,f,f,NA,NA,NA,1,6,"6,3,10,9,1,7,8,11,4,12,15,14,13,2,5"
15139,commdev-image-keyboard-response,143,674663,learnblock1,489,img/planet1_left.png,1,Community 1,NA,TRUE,f,f,NA,NA,NA,1,6,"6,3,10,9,1,7,8,11,4,12,15,14,13,2,5"
15139,commdev-image-keyboard-response,144,675915,learnblock1,552,img/planet3_left.png,3,Community 1,NA,TRUE,f,f,NA,NA,NA,1,6,"6,3,10,9,1,7,8,11,4,12,15,14,13,2,5"
15139,commdev-image-keyboard-response,145,677178,learnblock1,554,img/planet1_left.png,1,Community 1,NA,TRUE,f,f,NA,NA,NA,1,6,"6,3,10,9,1,7,8,11,4,12,15,14,13,2,5"
15139,commdev-image-keyboard-response,146,678440,learnblock1,529,img/planet15_right.png,15,Community 3,NA,TRUE,j,j,NA,NA,NA,1,6,"6,3,10,9,1,7,8,11,4,12,15,14,13,2,5"
15139,commdev-image-keyboard-response,147,679705,learnblock1,454,img/planet13_left.png,13,Community 3,NA,TRUE,f,f,NA,NA,NA,1,6,"6,3,10,9,1,7,8,11,4,12,15,14,13,2,5"
15139,commdev-image-keyboard-response,148,680966,learnblock1,517,img/planet14_left.png,14,Community 3,NA,TRUE,f,f,NA,NA,NA,1,6,"6,3,10,9,1,7,8,11,4,12,15,14,13,2,5"
15139,commdev-image-keyboard-response,149,682223,learnblock1,599,img/planet11_left.png,11,Community 2,NA,TRUE,f,f,NA,NA,NA,1,6,"6,3,10,9,1,7,8,11,4,12,15,14,13,2,5"
15139,commdev-image-keyboard-response,150,683481,learnblock1,543,img/planet14_right.png,14,Community 3,NA,FALSE,f,j,NA,NA,NA,1,6,"6,3,10,9,1,7,8,11,4,12,15,14,13,2,5"
15139,commdev-image-keyboard-response,151,684747,learnblock1,628,img/planet2_left.png,2,Community 3,NA,TRUE,f,f,NA,NA,NA,1,6,"6,3,10,9,1,7,8,11,4,12,15,14,13,2,5"
15139,commdev-image-keyboard-response,152,686008,learnblock1,588,img/planet13_right.png,13,Community 3,NA,TRUE,j,j,NA,NA,NA,1,6,"6,3,10,9,1,7,8,11,4,12,15,14,13,2,5"
15139,commdev-image-keyboard-response,153,687269,learnblock1,612,img/planet5_right.png,5,Community 3,NA,TRUE,j,j,NA,NA,NA,1,6,"6,3,10,9,1,7,8,11,4,12,15,14,13,2,5"
15139,commdev-image-keyboard-response,154,688623,learnblock1,649,img/planet2_left.png,2,Community 3,NA,TRUE,f,f,NA,NA,NA,1,6,"6,3,10,9,1,7,8,11,4,12,15,14,13,2,5"
15139,commdev-image-keyboard-response,155,689885,learnblock1,616,img/planet15_right.png,15,Community 3,NA,TRUE,j,j,NA,NA,NA,1,6,"6,3,10,9,1,7,8,11,4,12,15,14,13,2,5"
15139,commdev-image-keyboard-response,156,691148,learnblock1,552,img/planet13_left.png,13,Community 3,NA,TRUE,f,f,NA,NA,NA,1,6,"6,3,10,9,1,7,8,11,4,12,15,14,13,2,5"
15139,commdev-image-keyboard-response,157,692413,learnblock1,624,img/planet5_left.png,5,Community 3,NA,TRUE,f,f,NA,NA,NA,1,6,"6,3,10,9,1,7,8,11,4,12,15,14,13,2,5"
15139,commdev-image-keyboard-response,158,693673,learnblock1,671,img/planet13_left.png,13,Community 3,NA,TRUE,f,f,NA,NA,NA,1,6,"6,3,10,9,1,7,8,11,4,12,15,14,13,2,5"
15139,commdev-image-keyboard-response,159,694930,learnblock1,702,img/planet5_left.png,5,Community 3,NA,TRUE,f,f,NA,NA,NA,1,6,"6,3,10,9,1,7,8,11,4,12,15,14,13,2,5"
15139,commdev-image-keyboard-response,160,696191,learnblock1,725,img/planet14_right.png,14,Community 3,NA,TRUE,j,j,NA,NA,NA,1,6,"6,3,10,9,1,7,8,11,4,12,15,14,13,2,5"
15139,commdev-image-keyboard-response,161,697452,learnblock1,760,img/planet2_right.png,2,Community 3,NA,TRUE,j,j,NA,NA,NA,1,6,"6,3,10,9,1,7,8,11,4,12,15,14,13,2,5"
15139,commdev-image-keyboard-response,162,698716,learnblock1,865,img/planet5_left.png,5,Community 3,NA,TRUE,f,f,NA,NA,NA,1,6,"6,3,10,9,1,7,8,11,4,12,15,14,13,2,5"
15139,commdev-image-keyboard-response,163,699976,learnblock1,725,img/planet14_left.png,14,Community 3,NA,TRUE,f,f,NA,NA,NA,1,6,"6,3,10,9,1,7,8,11,4,12,15,14,13,2,5"
15139,commdev-image-keyboard-response,164,701238,learnblock1,790,img/planet5_left.png,5,Community 3,NA,TRUE,f,f,NA,NA,NA,1,6,"6,3,10,9,1,7,8,11,4,12,15,14,13,2,5"
15139,commdev-image-keyboard-response,165,702498,learnblock1,686,img/planet2_right.png,2,Community 3,NA,TRUE,j,j,NA,NA,NA,1,6,"6,3,10,9,1,7,8,11,4,12,15,14,13,2,5"
15139,commdev-image-keyboard-response,166,703765,learnblock1,637,img/planet5_left.png,5,Community 3,NA,TRUE,f,f,NA,NA,NA,1,6,"6,3,10,9,1,7,8,11,4,12,15,14,13,2,5"
15139,commdev-image-keyboard-response,167,705150,learnblock1,642,img/planet2_right.png,2,Community 3,NA,TRUE,j,j,NA,NA,NA,1,6,"6,3,10,9,1,7,8,11,4,12,15,14,13,2,5"
15139,commdev-image-keyboard-response,168,706409,learnblock1,586,img/planet13_left.png,13,Community 3,NA,TRUE,f,f,NA,NA,NA,1,6,"6,3,10,9,1,7,8,11,4,12,15,14,13,2,5"
15139,commdev-image-keyboard-response,169,707738,learnblock1,859,img/planet5_right.png,5,Community 3,NA,TRUE,j,j,NA,NA,NA,1,6,"6,3,10,9,1,7,8,11,4,12,15,14,13,2,5"
15139,commdev-image-keyboard-response,170,709004,learnblock1,627,img/planet13_right.png,13,Community 3,NA,TRUE,j,j,NA,NA,NA,1,6,"6,3,10,9,1,7,8,11,4,12,15,14,13,2,5"
15139,commdev-image-keyboard-response,171,710268,learnblock1,540,img/planet2_right.png,2,Community 3,NA,TRUE,j,j,NA,NA,NA,1,6,"6,3,10,9,1,7,8,11,4,12,15,14,13,2,5"
15139,commdev-image-keyboard-response,172,711526,learnblock1,561,img/planet5_right.png,5,Community 3,NA,TRUE,j,j,NA,NA,NA,1,6,"6,3,10,9,1,7,8,11,4,12,15,14,13,2,5"
15139,commdev-image-keyboard-response,173,712779,learnblock1,713,img/planet15_left.png,15,Community 3,NA,TRUE,f,f,NA,NA,NA,1,6,"6,3,10,9,1,7,8,11,4,12,15,14,13,2,5"
15139,commdev-image-keyboard-response,174,714044,learnblock1,651,img/planet2_right.png,2,Community 3,NA,TRUE,j,j,NA,NA,NA,1,6,"6,3,10,9,1,7,8,11,4,12,15,14,13,2,5"
15139,commdev-image-keyboard-response,175,715307,learnblock1,489,img/planet14_left.png,14,Community 3,NA,TRUE,f,f,NA,NA,NA,1,6,"6,3,10,9,1,7,8,11,4,12,15,14,13,2,5"
15139,commdev-image-keyboard-response,176,716572,learnblock1,561,img/planet13_left.png,13,Community 3,NA,TRUE,f,f,NA,NA,NA,1,6,"6,3,10,9,1,7,8,11,4,12,15,14,13,2,5"
15139,commdev-image-keyboard-response,177,717833,learnblock1,571,img/planet2_right.png,2,Community 3,NA,TRUE,j,j,NA,NA,NA,1,6,"6,3,10,9,1,7,8,11,4,12,15,14,13,2,5"
15139,commdev-image-keyboard-response,178,719098,learnblock1,620,img/planet15_right.png,15,Community 3,NA,TRUE,j,j,NA,NA,NA,1,6,"6,3,10,9,1,7,8,11,4,12,15,14,13,2,5"
15139,commdev-image-keyboard-response,179,720360,learnblock1,685,img/planet5_left.png,5,Community 3,NA,TRUE,f,f,NA,NA,NA,1,6,"6,3,10,9,1,7,8,11,4,12,15,14,13,2,5"
15139,commdev-image-keyboard-response,180,721622,learnblock1,1141,img/planet13_right.png,13,Community 3,NA,TRUE,j,j,NA,NA,NA,1,6,"6,3,10,9,1,7,8,11,4,12,15,14,13,2,5"
15139,commdev-image-keyboard-response,181,722886,learnblock1,472,img/planet15_left.png,15,Community 3,NA,TRUE,f,f,NA,NA,NA,1,6,"6,3,10,9,1,7,8,11,4,12,15,14,13,2,5"
15139,commdev-image-keyboard-response,182,724147,learnblock1,526,img/planet13_right.png,13,Community 3,NA,TRUE,j,j,NA,NA,NA,1,6,"6,3,10,9,1,7,8,11,4,12,15,14,13,2,5"
15139,commdev-image-keyboard-response,183,725404,learnblock1,570,img/planet15_left.png,15,Community 3,NA,TRUE,f,f,NA,NA,NA,1,6,"6,3,10,9,1,7,8,11,4,12,15,14,13,2,5"
15139,commdev-image-keyboard-response,184,726669,learnblock1,618,img/planet2_left.png,2,Community 3,NA,TRUE,f,f,NA,NA,NA,1,6,"6,3,10,9,1,7,8,11,4,12,15,14,13,2,5"
15139,commdev-image-keyboard-response,185,728025,learnblock1,531,img/planet13_left.png,13,Community 3,NA,TRUE,f,f,NA,NA,NA,1,6,"6,3,10,9,1,7,8,11,4,12,15,14,13,2,5"
15139,commdev-image-keyboard-response,186,729289,learnblock1,519,img/planet15_left.png,15,Community 3,NA,TRUE,f,f,NA,NA,NA,1,6,"6,3,10,9,1,7,8,11,4,12,15,14,13,2,5"
15139,commdev-image-keyboard-response,187,730551,learnblock1,662,img/planet2_left.png,2,Community 3,NA,TRUE,f,f,NA,NA,NA,1,6,"6,3,10,9,1,7,8,11,4,12,15,14,13,2,5"
15139,commdev-image-keyboard-response,188,731807,learnblock1,504,img/planet13_left.png,13,Community 3,NA,TRUE,f,f,NA,NA,NA,1,6,"6,3,10,9,1,7,8,11,4,12,15,14,13,2,5"
15139,commdev-image-keyboard-response,189,733068,learnblock1,575,img/planet5_left.png,5,Community 3,NA,TRUE,f,f,NA,NA,NA,1,6,"6,3,10,9,1,7,8,11,4,12,15,14,13,2,5"
15139,commdev-image-keyboard-response,190,734397,learnblock1,472,img/planet15_left.png,15,Community 3,NA,TRUE,f,f,NA,NA,NA,1,6,"6,3,10,9,1,7,8,11,4,12,15,14,13,2,5"
15139,commdev-image-keyboard-response,191,735656,learnblock1,553,img/planet5_left.png,5,Community 3,NA,TRUE,f,f,NA,NA,NA,1,6,"6,3,10,9,1,7,8,11,4,12,15,14,13,2,5"
15139,commdev-image-keyboard-response,192,736962,learnblock1,710,img/planet15_right.png,15,Community 3,NA,TRUE,j,j,NA,NA,NA,1,6,"6,3,10,9,1,7,8,11,4,12,15,14,13,2,5"
15139,commdev-image-keyboard-response,193,738224,learnblock1,691,img/planet1_left.png,1,Community 1,NA,TRUE,f,f,NA,NA,NA,1,6,"6,3,10,9,1,7,8,11,4,12,15,14,13,2,5"
15139,commdev-image-keyboard-response,194,739486,learnblock1,527,img/planet10_left.png,10,Community 1,NA,TRUE,f,f,NA,NA,NA,1,6,"6,3,10,9,1,7,8,11,4,12,15,14,13,2,5"
15139,commdev-image-keyboard-response,195,740751,learnblock1,728,img/planet1_left.png,1,Community 1,NA,TRUE,f,f,NA,NA,NA,1,6,"6,3,10,9,1,7,8,11,4,12,15,14,13,2,5"
15139,commdev-image-keyboard-response,196,742005,learnblock1,607,img/planet3_left.png,3,Community 1,NA,TRUE,f,f,NA,NA,NA,1,6,"6,3,10,9,1,7,8,11,4,12,15,14,13,2,5"
15139,commdev-image-keyboard-response,197,743267,learnblock1,791,img/planet10_left.png,10,Community 1,NA,TRUE,f,f,NA,NA,NA,1,6,"6,3,10,9,1,7,8,11,4,12,15,14,13,2,5"
15139,commdev-image-keyboard-response,198,744526,learnblock1,819,img/planet6_right.png,6,Community 1,NA,TRUE,j,j,NA,NA,NA,1,6,"6,3,10,9,1,7,8,11,4,12,15,14,13,2,5"
15139,commdev-image-keyboard-response,199,745779,learnblock1,null,img/planet3_right.png,3,Community 1,NA,FALSE,null,j,NA,NA,NA,1,6,"6,3,10,9,1,7,8,11,4,12,15,14,13,2,5"
15139,commdev-image-keyboard-response,200,747042,learnblock1,653,img/planet1_left.png,1,Community 1,NA,TRUE,f,f,NA,NA,NA,1,6,"6,3,10,9,1,7,8,11,4,12,15,14,13,2,5"
15139,commdev-image-keyboard-response,201,748433,learnblock1,588,img/planet15_left.png,15,Community 3,NA,TRUE,f,f,NA,NA,NA,1,6,"6,3,10,9,1,7,8,11,4,12,15,14,13,2,5"
15139,commdev-image-keyboard-response,202,749690,learnblock1,491,img/planet5_left.png,5,Community 3,NA,TRUE,f,f,NA,NA,NA,1,6,"6,3,10,9,1,7,8,11,4,12,15,14,13,2,5"
15139,commdev-image-keyboard-response,203,750954,learnblock1,555,img/planet15_left.png,15,Community 3,NA,TRUE,f,f,NA,NA,NA,1,6,"6,3,10,9,1,7,8,11,4,12,15,14,13,2,5"
15139,commdev-image-keyboard-response,204,752207,learnblock1,533,img/planet1_right.png,1,Community 1,NA,TRUE,j,j,NA,NA,NA,1,6,"6,3,10,9,1,7,8,11,4,12,15,14,13,2,5"
15139,commdev-image-keyboard-response,205,753468,learnblock1,513,img/planet15_left.png,15,Community 3,NA,TRUE,f,f,NA,NA,NA,1,6,"6,3,10,9,1,7,8,11,4,12,15,14,13,2,5"
15139,commdev-image-keyboard-response,206,754731,learnblock1,663,img/planet13_left.png,13,Community 3,NA,TRUE,f,f,NA,NA,NA,1,6,"6,3,10,9,1,7,8,11,4,12,15,14,13,2,5"
15139,commdev-image-keyboard-response,207,755991,learnblock1,595,img/planet15_left.png,15,Community 3,NA,TRUE,f,f,NA,NA,NA,1,6,"6,3,10,9,1,7,8,11,4,12,15,14,13,2,5"
15139,commdev-image-keyboard-response,208,757336,learnblock1,624,img/planet1_right.png,1,Community 1,NA,TRUE,j,j,NA,NA,NA,1,6,"6,3,10,9,1,7,8,11,4,12,15,14,13,2,5"
15139,commdev-image-keyboard-response,209,758587,learnblock1,716,img/planet3_right.png,3,Community 1,NA,TRUE,j,j,NA,NA,NA,1,6,"6,3,10,9,1,7,8,11,4,12,15,14,13,2,5"
15139,commdev-image-keyboard-response,210,759850,learnblock1,580,img/planet10_right.png,10,Community 1,NA,TRUE,j,j,NA,NA,NA,1,6,"6,3,10,9,1,7,8,11,4,12,15,14,13,2,5"
15139,commdev-image-keyboard-response,211,761115,learnblock1,605,img/planet6_left.png,6,Community 1,NA,TRUE,f,f,NA,NA,NA,1,6,"6,3,10,9,1,7,8,11,4,12,15,14,13,2,5"
15139,commdev-image-keyboard-response,212,762459,learnblock1,588,img/planet3_right.png,3,Community 1,NA,TRUE,j,j,NA,NA,NA,1,6,"6,3,10,9,1,7,8,11,4,12,15,14,13,2,5"
15139,commdev-image-keyboard-response,213,763724,learnblock1,577,img/planet10_left.png,10,Community 1,NA,TRUE,f,f,NA,NA,NA,1,6,"6,3,10,9,1,7,8,11,4,12,15,14,13,2,5"
15139,commdev-image-keyboard-response,214,765052,learnblock1,545,img/planet1_left.png,1,Community 1,NA,TRUE,f,f,NA,NA,NA,1,6,"6,3,10,9,1,7,8,11,4,12,15,14,13,2,5"
15139,commdev-image-keyboard-response,215,766314,learnblock1,513,img/planet3_right.png,3,Community 1,NA,TRUE,j,j,NA,NA,NA,1,6,"6,3,10,9,1,7,8,11,4,12,15,14,13,2,5"
15139,commdev-image-keyboard-response,216,767574,learnblock1,578,img/planet6_left.png,6,Community 1,NA,TRUE,f,f,NA,NA,NA,1,6,"6,3,10,9,1,7,8,11,4,12,15,14,13,2,5"
15139,commdev-image-keyboard-response,217,768825,learnblock1,655,img/planet3_right.png,3,Community 1,NA,TRUE,j,j,NA,NA,NA,1,6,"6,3,10,9,1,7,8,11,4,12,15,14,13,2,5"
15139,commdev-image-keyboard-response,218,770090,learnblock1,565,img/planet6_right.png,6,Community 1,NA,TRUE,j,j,NA,NA,NA,1,6,"6,3,10,9,1,7,8,11,4,12,15,14,13,2,5"
15139,commdev-image-keyboard-response,219,771403,learnblock1,627,img/planet10_right.png,10,Community 1,NA,TRUE,j,j,NA,NA,NA,1,6,"6,3,10,9,1,7,8,11,4,12,15,14,13,2,5"
15139,commdev-image-keyboard-response,220,772665,learnblock1,564,img/planet6_right.png,6,Community 1,NA,TRUE,j,j,NA,NA,NA,1,6,"6,3,10,9,1,7,8,11,4,12,15,14,13,2,5"
15139,commdev-image-keyboard-response,221,773977,learnblock1,null,img/planet9_left.png,9,Community 1,NA,FALSE,null,f,NA,NA,NA,1,6,"6,3,10,9,1,7,8,11,4,12,15,14,13,2,5"
15139,commdev-image-keyboard-response,222,775240,learnblock1,684,img/planet7_left.png,7,Community 2,NA,TRUE,f,f,NA,NA,NA,1,6,"6,3,10,9,1,7,8,11,4,12,15,14,13,2,5"
15139,commdev-image-keyboard-response,223,776503,learnblock1,613,img/planet9_left.png,9,Community 1,NA,TRUE,f,f,NA,NA,NA,1,6,"6,3,10,9,1,7,8,11,4,12,15,14,13,2,5"
15139,commdev-image-keyboard-response,224,777768,learnblock1,527,img/planet6_left.png,6,Community 1,NA,TRUE,f,f,NA,NA,NA,1,6,"6,3,10,9,1,7,8,11,4,12,15,14,13,2,5"
15139,commdev-image-keyboard-response,225,779032,learnblock1,460,img/planet10_left.png,10,Community 1,NA,TRUE,f,f,NA,NA,NA,1,6,"6,3,10,9,1,7,8,11,4,12,15,14,13,2,5"
15139,commdev-image-keyboard-response,226,780294,learnblock1,427,img/planet9_left.png,9,Community 1,NA,TRUE,f,f,NA,NA,NA,1,6,"6,3,10,9,1,7,8,11,4,12,15,14,13,2,5"
15139,commdev-image-keyboard-response,227,781554,learnblock1,473,img/planet6_left.png,6,Community 1,NA,TRUE,f,f,NA,NA,NA,1,6,"6,3,10,9,1,7,8,11,4,12,15,14,13,2,5"
15139,commdev-image-keyboard-response,228,782816,learnblock1,604,img/planet3_right.png,3,Community 1,NA,TRUE,j,j,NA,NA,NA,1,6,"6,3,10,9,1,7,8,11,4,12,15,14,13,2,5"
15139,commdev-image-keyboard-response,229,784067,learnblock1,518,img/planet1_right.png,1,Community 1,NA,TRUE,j,j,NA,NA,NA,1,6,"6,3,10,9,1,7,8,11,4,12,15,14,13,2,5"
15139,commdev-image-keyboard-response,230,785325,learnblock1,731,img/planet6_right.png,6,Community 1,NA,TRUE,j,j,NA,NA,NA,1,6,"6,3,10,9,1,7,8,11,4,12,15,14,13,2,5"
15139,commdev-image-keyboard-response,231,786589,learnblock1,546,img/planet9_right.png,9,Community 1,NA,TRUE,j,j,NA,NA,NA,1,6,"6,3,10,9,1,7,8,11,4,12,15,14,13,2,5"
15139,commdev-image-keyboard-response,232,787855,learnblock1,642,img/planet6_left.png,6,Community 1,NA,TRUE,f,f,NA,NA,NA,1,6,"6,3,10,9,1,7,8,11,4,12,15,14,13,2,5"
15139,commdev-image-keyboard-response,233,789244,learnblock1,479,img/planet9_left.png,9,Community 1,NA,TRUE,f,f,NA,NA,NA,1,6,"6,3,10,9,1,7,8,11,4,12,15,14,13,2,5"
15139,commdev-image-keyboard-response,234,790504,learnblock1,569,img/planet3_left.png,3,Community 1,NA,TRUE,f,f,NA,NA,NA,1,6,"6,3,10,9,1,7,8,11,4,12,15,14,13,2,5"
15139,commdev-image-keyboard-response,235,791817,learnblock1,598,img/planet9_right.png,9,Community 1,NA,TRUE,j,j,NA,NA,NA,1,6,"6,3,10,9,1,7,8,11,4,12,15,14,13,2,5"
15139,commdev-image-keyboard-response,236,793080,learnblock1,668,img/planet3_left.png,3,Community 1,NA,TRUE,f,f,NA,NA,NA,1,6,"6,3,10,9,1,7,8,11,4,12,15,14,13,2,5"
15139,commdev-image-keyboard-response,237,794496,learnblock1,710,img/planet6_left.png,6,Community 1,NA,TRUE,f,f,NA,NA,NA,1,6,"6,3,10,9,1,7,8,11,4,12,15,14,13,2,5"
15139,commdev-image-keyboard-response,238,795757,learnblock1,606,img/planet9_right.png,9,Community 1,NA,FALSE,f,j,NA,NA,NA,1,6,"6,3,10,9,1,7,8,11,4,12,15,14,13,2,5"
15139,commdev-image-keyboard-response,239,797115,learnblock1,673,img/planet7_left.png,7,Community 2,NA,TRUE,f,f,NA,NA,NA,1,6,"6,3,10,9,1,7,8,11,4,12,15,14,13,2,5"
15139,commdev-image-keyboard-response,240,798380,learnblock1,787,img/planet8_left.png,8,Community 2,NA,TRUE,f,f,NA,NA,NA,1,6,"6,3,10,9,1,7,8,11,4,12,15,14,13,2,5"
15139,commdev-image-keyboard-response,241,799640,learnblock1,673,img/planet11_left.png,11,Community 2,NA,TRUE,f,f,NA,NA,NA,1,6,"6,3,10,9,1,7,8,11,4,12,15,14,13,2,5"
15139,commdev-image-keyboard-response,242,800902,learnblock1,1038,img/planet14_right.png,14,Community 3,NA,TRUE,j,j,NA,NA,NA,1,6,"6,3,10,9,1,7,8,11,4,12,15,14,13,2,5"
15139,commdev-image-keyboard-response,243,802165,learnblock1,640,img/planet11_right.png,11,Community 2,NA,TRUE,j,j,NA,NA,NA,1,6,"6,3,10,9,1,7,8,11,4,12,15,14,13,2,5"
15139,commdev-image-keyboard-response,244,803427,learnblock1,514,img/planet14_right.png,14,Community 3,NA,TRUE,j,j,NA,NA,NA,1,6,"6,3,10,9,1,7,8,11,4,12,15,14,13,2,5"
15139,commdev-image-keyboard-response,245,804683,learnblock1,547,img/planet11_left.png,11,Community 2,NA,TRUE,f,f,NA,NA,NA,1,6,"6,3,10,9,1,7,8,11,4,12,15,14,13,2,5"
15139,commdev-image-keyboard-response,246,805974,learnblock1,603,img/planet12_right.png,12,Community 2,NA,TRUE,j,j,NA,NA,NA,1,6,"6,3,10,9,1,7,8,11,4,12,15,14,13,2,5"
15139,commdev-image-keyboard-response,247,807236,learnblock1,455,img/planet11_left.png,11,Community 2,NA,TRUE,f,f,NA,NA,NA,1,6,"6,3,10,9,1,7,8,11,4,12,15,14,13,2,5"
15139,commdev-image-keyboard-response,248,808496,learnblock1,472,img/planet4_right.png,4,Community 2,NA,TRUE,j,j,NA,NA,NA,1,6,"6,3,10,9,1,7,8,11,4,12,15,14,13,2,5"
15139,commdev-image-keyboard-response,249,809760,learnblock1,784,img/planet7_right.png,7,Community 2,NA,TRUE,j,j,NA,NA,NA,1,6,"6,3,10,9,1,7,8,11,4,12,15,14,13,2,5"
15139,commdev-image-keyboard-response,250,811024,learnblock1,526,img/planet9_right.png,9,Community 1,NA,TRUE,j,j,NA,NA,NA,1,6,"6,3,10,9,1,7,8,11,4,12,15,14,13,2,5"
15139,commdev-image-keyboard-response,251,812287,learnblock1,624,img/planet10_left.png,10,Community 1,NA,TRUE,f,f,NA,NA,NA,1,6,"6,3,10,9,1,7,8,11,4,12,15,14,13,2,5"
15139,commdev-image-keyboard-response,252,813551,learnblock1,726,img/planet1_right.png,1,Community 1,NA,TRUE,j,j,NA,NA,NA,1,6,"6,3,10,9,1,7,8,11,4,12,15,14,13,2,5"
15139,commdev-image-keyboard-response,253,814815,learnblock1,536,img/planet6_left.png,6,Community 1,NA,TRUE,f,f,NA,NA,NA,1,6,"6,3,10,9,1,7,8,11,4,12,15,14,13,2,5"
15139,commdev-image-keyboard-response,254,816077,learnblock1,526,img/planet3_right.png,3,Community 1,NA,TRUE,j,j,NA,NA,NA,1,6,"6,3,10,9,1,7,8,11,4,12,15,14,13,2,5"
15139,commdev-image-keyboard-response,255,817356,learnblock1,521,img/planet1_right.png,1,Community 1,NA,TRUE,j,j,NA,NA,NA,1,6,"6,3,10,9,1,7,8,11,4,12,15,14,13,2,5"
15139,commdev-image-keyboard-response,256,818616,learnblock1,474,img/planet6_left.png,6,Community 1,NA,TRUE,f,f,NA,NA,NA,1,6,"6,3,10,9,1,7,8,11,4,12,15,14,13,2,5"
15139,commdev-image-keyboard-response,257,819868,learnblock1,484,img/planet9_right.png,9,Community 1,NA,TRUE,j,j,NA,NA,NA,1,6,"6,3,10,9,1,7,8,11,4,12,15,14,13,2,5"
15139,commdev-image-keyboard-response,258,821120,learnblock1,659,img/planet3_right.png,3,Community 1,NA,TRUE,j,j,NA,NA,NA,1,6,"6,3,10,9,1,7,8,11,4,12,15,14,13,2,5"
15139,commdev-image-keyboard-response,259,822381,learnblock1,655,img/planet6_right.png,6,Community 1,NA,TRUE,j,j,NA,NA,NA,1,6,"6,3,10,9,1,7,8,11,4,12,15,14,13,2,5"
15139,commdev-image-keyboard-response,260,823645,learnblock1,600,img/planet10_left.png,10,Community 1,NA,TRUE,f,f,NA,NA,NA,1,6,"6,3,10,9,1,7,8,11,4,12,15,14,13,2,5"
15139,commdev-image-keyboard-response,261,824904,learnblock1,570,img/planet6_right.png,6,Community 1,NA,TRUE,j,j,NA,NA,NA,1,6,"6,3,10,9,1,7,8,11,4,12,15,14,13,2,5"
15139,commdev-image-keyboard-response,262,826216,learnblock1,590,img/planet1_right.png,1,Community 1,NA,TRUE,j,j,NA,NA,NA,1,6,"6,3,10,9,1,7,8,11,4,12,15,14,13,2,5"
15139,commdev-image-keyboard-response,263,827478,learnblock1,515,img/planet6_right.png,6,Community 1,NA,TRUE,j,j,NA,NA,NA,1,6,"6,3,10,9,1,7,8,11,4,12,15,14,13,2,5"
15139,commdev-image-keyboard-response,264,828829,learnblock1,528,img/planet1_right.png,1,Community 1,NA,TRUE,j,j,NA,NA,NA,1,6,"6,3,10,9,1,7,8,11,4,12,15,14,13,2,5"
15139,commdev-image-keyboard-response,265,830092,learnblock1,555,img/planet3_left.png,3,Community 1,NA,TRUE,f,f,NA,NA,NA,1,6,"6,3,10,9,1,7,8,11,4,12,15,14,13,2,5"
15139,commdev-image-keyboard-response,266,831397,learnblock1,535,img/planet9_left.png,9,Community 1,NA,TRUE,f,f,NA,NA,NA,1,6,"6,3,10,9,1,7,8,11,4,12,15,14,13,2,5"
15139,commdev-image-keyboard-response,267,832661,learnblock1,450,img/planet10_left.png,10,Community 1,NA,TRUE,f,f,NA,NA,NA,1,6,"6,3,10,9,1,7,8,11,4,12,15,14,13,2,5"
15139,commdev-image-keyboard-response,268,833917,learnblock1,704,img/planet3_left.png,3,Community 1,NA,TRUE,f,f,NA,NA,NA,1,6,"6,3,10,9,1,7,8,11,4,12,15,14,13,2,5"
15139,commdev-image-keyboard-response,269,835181,learnblock1,512,img/planet10_left.png,10,Community 1,NA,TRUE,f,f,NA,NA,NA,1,6,"6,3,10,9,1,7,8,11,4,12,15,14,13,2,5"
15139,commdev-image-keyboard-response,270,836435,learnblock1,537,img/planet1_left.png,1,Community 1,NA,TRUE,f,f,NA,NA,NA,1,6,"6,3,10,9,1,7,8,11,4,12,15,14,13,2,5"
15139,commdev-image-keyboard-response,271,837693,learnblock1,636,img/planet15_right.png,15,Community 3,NA,TRUE,j,j,NA,NA,NA,1,6,"6,3,10,9,1,7,8,11,4,12,15,14,13,2,5"
15139,commdev-image-keyboard-response,272,838945,learnblock1,681,img/planet13_right.png,13,Community 3,NA,TRUE,j,j,NA,NA,NA,1,6,"6,3,10,9,1,7,8,11,4,12,15,14,13,2,5"
15139,commdev-image-keyboard-response,273,840197,learnblock1,637,img/planet5_left.png,5,Community 3,NA,TRUE,f,f,NA,NA,NA,1,6,"6,3,10,9,1,7,8,11,4,12,15,14,13,2,5"
15139,commdev-image-keyboard-response,274,841450,learnblock1,537,img/planet15_right.png,15,Community 3,NA,TRUE,j,j,NA,NA,NA,1,6,"6,3,10,9,1,7,8,11,4,12,15,14,13,2,5"
15139,commdev-image-keyboard-response,275,842704,learnblock1,461,img/planet1_left.png,1,Community 1,NA,TRUE,f,f,NA,NA,NA,1,6,"6,3,10,9,1,7,8,11,4,12,15,14,13,2,5"
15139,commdev-image-keyboard-response,276,843954,learnblock1,558,img/planet10_left.png,10,Community 1,NA,TRUE,f,f,NA,NA,NA,1,6,"6,3,10,9,1,7,8,11,4,12,15,14,13,2,5"
15139,commdev-image-keyboard-response,277,845264,learnblock1,437,img/planet1_left.png,1,Community 1,NA,TRUE,f,f,NA,NA,NA,1,6,"6,3,10,9,1,7,8,11,4,12,15,14,13,2,5"
15139,commdev-image-keyboard-response,278,846525,learnblock1,686,img/planet3_left.png,3,Community 1,NA,TRUE,f,f,NA,NA,NA,1,6,"6,3,10,9,1,7,8,11,4,12,15,14,13,2,5"
15139,commdev-image-keyboard-response,279,847790,learnblock1,616,img/planet9_right.png,9,Community 1,NA,TRUE,j,j,NA,NA,NA,1,6,"6,3,10,9,1,7,8,11,4,12,15,14,13,2,5"
15139,commdev-image-keyboard-response,280,849054,learnblock1,824,img/planet7_right.png,7,Community 2,NA,TRUE,j,j,NA,NA,NA,1,6,"6,3,10,9,1,7,8,11,4,12,15,14,13,2,5"
15139,commdev-image-keyboard-response,281,850307,learnblock1,752,img/planet8_left.png,8,Community 2,NA,TRUE,f,f,NA,NA,NA,1,6,"6,3,10,9,1,7,8,11,4,12,15,14,13,2,5"
15139,commdev-image-keyboard-response,282,851571,learnblock1,676,img/planet7_right.png,7,Community 2,NA,TRUE,j,j,NA,NA,NA,1,6,"6,3,10,9,1,7,8,11,4,12,15,14,13,2,5"
15139,commdev-image-keyboard-response,283,852834,learnblock1,620,img/planet12_left.png,12,Community 2,NA,TRUE,f,f,NA,NA,NA,1,6,"6,3,10,9,1,7,8,11,4,12,15,14,13,2,5"
15139,commdev-image-keyboard-response,284,854098,learnblock1,643,img/planet8_left.png,8,Community 2,NA,TRUE,f,f,NA,NA,NA,1,6,"6,3,10,9,1,7,8,11,4,12,15,14,13,2,5"
15139,commdev-image-keyboard-response,285,855480,learnblock1,594,img/planet4_left.png,4,Community 2,NA,TRUE,f,f,NA,NA,NA,1,6,"6,3,10,9,1,7,8,11,4,12,15,14,13,2,5"
15139,commdev-image-keyboard-response,286,856745,learnblock1,500,img/planet12_left.png,12,Community 2,NA,TRUE,f,f,NA,NA,NA,1,6,"6,3,10,9,1,7,8,11,4,12,15,14,13,2,5"
15139,commdev-image-keyboard-response,287,857999,learnblock1,476,img/planet7_left.png,7,Community 2,NA,TRUE,f,f,NA,NA,NA,1,6,"6,3,10,9,1,7,8,11,4,12,15,14,13,2,5"
15139,commdev-image-keyboard-response,288,859266,learnblock1,494,img/planet9_left.png,9,Community 1,NA,TRUE,f,f,NA,NA,NA,1,6,"6,3,10,9,1,7,8,11,4,12,15,14,13,2,5"
15139,commdev-image-keyboard-response,289,860521,learnblock1,540,img/planet7_left.png,7,Community 2,NA,TRUE,f,f,NA,NA,NA,1,6,"6,3,10,9,1,7,8,11,4,12,15,14,13,2,5"
15139,commdev-image-keyboard-response,290,861782,learnblock1,566,img/planet9_right.png,9,Community 1,NA,TRUE,j,j,NA,NA,NA,1,6,"6,3,10,9,1,7,8,11,4,12,15,14,13,2,5"
15139,commdev-image-keyboard-response,291,863038,learnblock1,560,img/planet6_left.png,6,Community 1,NA,TRUE,f,f,NA,NA,NA,1,6,"6,3,10,9,1,7,8,11,4,12,15,14,13,2,5"
15139,commdev-image-keyboard-response,292,864301,learnblock1,525,img/planet10_left.png,10,Community 1,NA,TRUE,f,f,NA,NA,NA,1,6,"6,3,10,9,1,7,8,11,4,12,15,14,13,2,5"
15139,commdev-image-keyboard-response,293,865564,learnblock1,562,img/planet3_right.png,3,Community 1,NA,TRUE,j,j,NA,NA,NA,1,6,"6,3,10,9,1,7,8,11,4,12,15,14,13,2,5"
15139,commdev-image-keyboard-response,294,866824,learnblock1,530,img/planet6_left.png,6,Community 1,NA,TRUE,f,f,NA,NA,NA,1,6,"6,3,10,9,1,7,8,11,4,12,15,14,13,2,5"
15139,commdev-image-keyboard-response,295,868078,learnblock1,566,img/planet10_left.png,10,Community 1,NA,TRUE,f,f,NA,NA,NA,1,6,"6,3,10,9,1,7,8,11,4,12,15,14,13,2,5"
15139,commdev-image-keyboard-response,296,869339,learnblock1,542,img/planet3_left.png,3,Community 1,NA,TRUE,f,f,NA,NA,NA,1,6,"6,3,10,9,1,7,8,11,4,12,15,14,13,2,5"
15139,commdev-image-keyboard-response,297,870602,learnblock1,433,img/planet10_left.png,10,Community 1,NA,TRUE,f,f,NA,NA,NA,1,6,"6,3,10,9,1,7,8,11,4,12,15,14,13,2,5"
15139,commdev-image-keyboard-response,298,871854,learnblock1,484,img/planet1_left.png,1,Community 1,NA,TRUE,f,f,NA,NA,NA,1,6,"6,3,10,9,1,7,8,11,4,12,15,14,13,2,5"
15139,commdev-image-keyboard-response,299,873118,learnblock1,639,img/planet10_right.png,10,Community 1,NA,TRUE,j,j,NA,NA,NA,1,6,"6,3,10,9,1,7,8,11,4,12,15,14,13,2,5"
15139,commdev-image-keyboard-response,300,874382,learnblock1,441,img/planet1_left.png,1,Community 1,NA,TRUE,f,f,NA,NA,NA,1,6,"6,3,10,9,1,7,8,11,4,12,15,14,13,2,5"
15139,commdev-image-keyboard-response,301,875643,learnblock1,567,img/planet3_right.png,3,Community 1,NA,TRUE,j,j,NA,NA,NA,1,6,"6,3,10,9,1,7,8,11,4,12,15,14,13,2,5"
15139,commdev-image-keyboard-response,302,876960,learnblock1,377,img/planet1_left.png,1,Community 1,NA,TRUE,f,f,NA,NA,NA,1,6,"6,3,10,9,1,7,8,11,4,12,15,14,13,2,5"
15139,commdev-image-keyboard-response,303,878222,learnblock1,463,img/planet10_left.png,10,Community 1,NA,TRUE,f,f,NA,NA,NA,1,6,"6,3,10,9,1,7,8,11,4,12,15,14,13,2,5"
15139,commdev-image-keyboard-response,304,879488,learnblock1,455,img/planet1_left.png,1,Community 1,NA,TRUE,f,f,NA,NA,NA,1,6,"6,3,10,9,1,7,8,11,4,12,15,14,13,2,5"
15139,commdev-image-keyboard-response,305,880739,learnblock1,532,img/planet3_right.png,3,Community 1,NA,TRUE,j,j,NA,NA,NA,1,6,"6,3,10,9,1,7,8,11,4,12,15,14,13,2,5"
15139,commdev-image-keyboard-response,306,882001,learnblock1,410,img/planet10_left.png,10,Community 1,NA,TRUE,f,f,NA,NA,NA,1,6,"6,3,10,9,1,7,8,11,4,12,15,14,13,2,5"
15139,commdev-image-keyboard-response,307,883263,learnblock1,700,img/planet9_left.png,9,Community 1,NA,TRUE,f,f,NA,NA,NA,1,6,"6,3,10,9,1,7,8,11,4,12,15,14,13,2,5"
15139,commdev-image-keyboard-response,308,884529,learnblock1,607,img/planet3_right.png,3,Community 1,NA,TRUE,j,j,NA,NA,NA,1,6,"6,3,10,9,1,7,8,11,4,12,15,14,13,2,5"
15139,commdev-image-keyboard-response,309,885792,learnblock1,652,img/planet6_right.png,6,Community 1,NA,TRUE,j,j,NA,NA,NA,1,6,"6,3,10,9,1,7,8,11,4,12,15,14,13,2,5"
15139,commdev-image-keyboard-response,310,887044,learnblock1,550,img/planet1_right.png,1,Community 1,NA,TRUE,j,j,NA,NA,NA,1,6,"6,3,10,9,1,7,8,11,4,12,15,14,13,2,5"
15139,commdev-image-keyboard-response,311,888302,learnblock1,546,img/planet3_right.png,3,Community 1,NA,TRUE,j,j,NA,NA,NA,1,6,"6,3,10,9,1,7,8,11,4,12,15,14,13,2,5"
15139,commdev-image-keyboard-response,312,889564,learnblock1,560,img/planet9_left.png,9,Community 1,NA,TRUE,f,f,NA,NA,NA,1,6,"6,3,10,9,1,7,8,11,4,12,15,14,13,2,5"
15139,commdev-image-keyboard-response,313,890830,learnblock1,456,img/planet10_right.png,10,Community 1,NA,TRUE,j,j,NA,NA,NA,1,6,"6,3,10,9,1,7,8,11,4,12,15,14,13,2,5"
15139,commdev-image-keyboard-response,314,892094,learnblock1,488,img/planet6_left.png,6,Community 1,NA,TRUE,f,f,NA,NA,NA,1,6,"6,3,10,9,1,7,8,11,4,12,15,14,13,2,5"
15139,commdev-image-keyboard-response,315,893355,learnblock1,486,img/planet1_right.png,1,Community 1,NA,TRUE,j,j,NA,NA,NA,1,6,"6,3,10,9,1,7,8,11,4,12,15,14,13,2,5"
15139,commdev-image-keyboard-response,316,894620,learnblock1,426,img/planet15_left.png,15,Community 3,NA,TRUE,f,f,NA,NA,NA,1,6,"6,3,10,9,1,7,8,11,4,12,15,14,13,2,5"
15139,commdev-image-keyboard-response,317,895883,learnblock1,473,img/planet5_right.png,5,Community 3,NA,TRUE,j,j,NA,NA,NA,1,6,"6,3,10,9,1,7,8,11,4,12,15,14,13,2,5"
15139,commdev-image-keyboard-response,318,897135,learnblock1,508,img/planet2_right.png,2,Community 3,NA,TRUE,j,j,NA,NA,NA,1,6,"6,3,10,9,1,7,8,11,4,12,15,14,13,2,5"
15139,commdev-image-keyboard-response,319,898386,learnblock1,543,img/planet14_left.png,14,Community 3,NA,TRUE,f,f,NA,NA,NA,1,6,"6,3,10,9,1,7,8,11,4,12,15,14,13,2,5"
15139,commdev-image-keyboard-response,320,899645,learnblock1,524,img/planet11_right.png,11,Community 2,NA,TRUE,j,j,NA,NA,NA,1,6,"6,3,10,9,1,7,8,11,4,12,15,14,13,2,5"
15139,commdev-image-keyboard-response,321,900899,learnblock1,648,img/planet12_right.png,12,Community 2,NA,TRUE,j,j,NA,NA,NA,1,6,"6,3,10,9,1,7,8,11,4,12,15,14,13,2,5"
15139,commdev-image-keyboard-response,322,902160,learnblock1,652,img/planet7_right.png,7,Community 2,NA,TRUE,j,j,NA,NA,NA,1,6,"6,3,10,9,1,7,8,11,4,12,15,14,13,2,5"
15139,commdev-image-keyboard-response,323,903421,learnblock1,606,img/planet9_left.png,9,Community 1,NA,TRUE,f,f,NA,NA,NA,1,6,"6,3,10,9,1,7,8,11,4,12,15,14,13,2,5"
15139,commdev-image-keyboard-response,324,904688,learnblock1,571,img/planet3_right.png,3,Community 1,NA,TRUE,j,j,NA,NA,NA,1,6,"6,3,10,9,1,7,8,11,4,12,15,14,13,2,5"
15139,commdev-image-keyboard-response,325,905996,learnblock1,535,img/planet1_left.png,1,Community 1,NA,TRUE,f,f,NA,NA,NA,1,6,"6,3,10,9,1,7,8,11,4,12,15,14,13,2,5"
15139,commdev-image-keyboard-response,326,907261,learnblock1,587,img/planet15_left.png,15,Community 3,NA,TRUE,f,f,NA,NA,NA,1,6,"6,3,10,9,1,7,8,11,4,12,15,14,13,2,5"
15139,commdev-image-keyboard-response,327,908583,learnblock1,626,img/planet2_left.png,2,Community 3,NA,TRUE,f,f,NA,NA,NA,1,6,"6,3,10,9,1,7,8,11,4,12,15,14,13,2,5"
15139,commdev-image-keyboard-response,328,909847,learnblock1,535,img/planet5_right.png,5,Community 3,NA,TRUE,j,j,NA,NA,NA,1,6,"6,3,10,9,1,7,8,11,4,12,15,14,13,2,5"
15139,commdev-image-keyboard-response,329,911111,learnblock1,598,img/planet13_right.png,13,Community 3,NA,TRUE,j,j,NA,NA,NA,1,6,"6,3,10,9,1,7,8,11,4,12,15,14,13,2,5"
15139,commdev-image-keyboard-response,330,912373,learnblock1,591,img/planet5_right.png,5,Community 3,NA,TRUE,j,j,NA,NA,NA,1,6,"6,3,10,9,1,7,8,11,4,12,15,14,13,2,5"
15139,commdev-image-keyboard-response,331,913634,learnblock1,586,img/planet14_left.png,14,Community 3,NA,FALSE,j,f,NA,NA,NA,1,6,"6,3,10,9,1,7,8,11,4,12,15,14,13,2,5"
15139,commdev-image-keyboard-response,332,914962,learnblock1,578,img/planet2_left.png,2,Community 3,NA,TRUE,f,f,NA,NA,NA,1,6,"6,3,10,9,1,7,8,11,4,12,15,14,13,2,5"
15139,commdev-image-keyboard-response,333,916224,learnblock1,605,img/planet13_left.png,13,Community 3,NA,TRUE,f,f,NA,NA,NA,1,6,"6,3,10,9,1,7,8,11,4,12,15,14,13,2,5"
15139,commdev-image-keyboard-response,334,917490,learnblock1,564,img/planet14_left.png,14,Community 3,NA,TRUE,f,f,NA,NA,NA,1,6,"6,3,10,9,1,7,8,11,4,12,15,14,13,2,5"
15139,commdev-image-keyboard-response,335,918749,learnblock1,651,img/planet2_left.png,2,Community 3,NA,TRUE,f,f,NA,NA,NA,1,6,"6,3,10,9,1,7,8,11,4,12,15,14,13,2,5"
15139,commdev-image-keyboard-response,336,920003,learnblock1,672,img/planet15_left.png,15,Community 3,NA,TRUE,f,f,NA,NA,NA,1,6,"6,3,10,9,1,7,8,11,4,12,15,14,13,2,5"
15139,commdev-image-keyboard-response,337,921267,learnblock1,682,img/planet1_left.png,1,Community 1,NA,TRUE,f,f,NA,NA,NA,1,6,"6,3,10,9,1,7,8,11,4,12,15,14,13,2,5"
15139,commdev-image-keyboard-response,338,922529,learnblock1,691,img/planet10_left.png,10,Community 1,NA,TRUE,f,f,NA,NA,NA,1,6,"6,3,10,9,1,7,8,11,4,12,15,14,13,2,5"
15139,commdev-image-keyboard-response,339,923790,learnblock1,589,img/planet9_right.png,9,Community 1,NA,TRUE,j,j,NA,NA,NA,1,6,"6,3,10,9,1,7,8,11,4,12,15,14,13,2,5"
15139,commdev-image-keyboard-response,340,925053,learnblock1,662,img/planet3_left.png,3,Community 1,NA,TRUE,f,f,NA,NA,NA,1,6,"6,3,10,9,1,7,8,11,4,12,15,14,13,2,5"
15139,commdev-image-keyboard-response,341,926454,learnblock1,671,img/planet6_right.png,6,Community 1,NA,TRUE,j,j,NA,NA,NA,1,6,"6,3,10,9,1,7,8,11,4,12,15,14,13,2,5"
15139,commdev-image-keyboard-response,342,927711,learnblock1,647,img/planet1_right.png,1,Community 1,NA,TRUE,j,j,NA,NA,NA,1,6,"6,3,10,9,1,7,8,11,4,12,15,14,13,2,5"
15139,commdev-image-keyboard-response,343,929108,learnblock1,717,img/planet6_left.png,6,Community 1,NA,TRUE,f,f,NA,NA,NA,1,6,"6,3,10,9,1,7,8,11,4,12,15,14,13,2,5"
15139,commdev-image-keyboard-response,344,930374,learnblock1,816,img/planet3_right.png,3,Community 1,NA,TRUE,j,j,NA,NA,NA,1,6,"6,3,10,9,1,7,8,11,4,12,15,14,13,2,5"
15139,commdev-image-keyboard-response,345,931638,learnblock1,663,img/planet10_right.png,10,Community 1,NA,TRUE,j,j,NA,NA,NA,1,6,"6,3,10,9,1,7,8,11,4,12,15,14,13,2,5"
15139,commdev-image-keyboard-response,346,932898,learnblock1,592,img/planet1_right.png,1,Community 1,NA,TRUE,j,j,NA,NA,NA,1,6,"6,3,10,9,1,7,8,11,4,12,15,14,13,2,5"
15139,commdev-image-keyboard-response,347,934243,learnblock1,580,img/planet3_left.png,3,Community 1,NA,TRUE,f,f,NA,NA,NA,1,6,"6,3,10,9,1,7,8,11,4,12,15,14,13,2,5"
15139,commdev-image-keyboard-response,351,985944,learnblock2,1144,img/planet7_right.png,7,Community 2,NA,TRUE,j,j,NA,NA,NA,1,6,"6,3,10,9,1,7,8,11,4,12,15,14,13,2,5"
15139,commdev-image-keyboard-response,352,987207,learnblock2,863,img/planet12_right.png,12,Community 2,NA,TRUE,j,j,NA,NA,NA,1,6,"6,3,10,9,1,7,8,11,4,12,15,14,13,2,5"
15139,commdev-image-keyboard-response,353,988459,learnblock2,654,img/planet7_left.png,7,Community 2,NA,TRUE,f,f,NA,NA,NA,1,6,"6,3,10,9,1,7,8,11,4,12,15,14,13,2,5"
15139,commdev-image-keyboard-response,354,989721,learnblock2,702,img/planet12_right.png,12,Community 2,NA,TRUE,j,j,NA,NA,NA,1,6,"6,3,10,9,1,7,8,11,4,12,15,14,13,2,5"
15139,commdev-image-keyboard-response,355,990972,learnblock2,620,img/planet4_right.png,4,Community 2,NA,TRUE,j,j,NA,NA,NA,1,6,"6,3,10,9,1,7,8,11,4,12,15,14,13,2,5"
15139,commdev-image-keyboard-response,356,992232,learnblock2,1000,img/planet8_left.png,8,Community 2,NA,TRUE,f,f,NA,NA,NA,1,6,"6,3,10,9,1,7,8,11,4,12,15,14,13,2,5"
15139,commdev-image-keyboard-response,357,993498,learnblock2,573,img/planet11_right.png,11,Community 2,NA,TRUE,j,j,NA,NA,NA,1,6,"6,3,10,9,1,7,8,11,4,12,15,14,13,2,5"
15139,commdev-image-keyboard-response,358,994760,learnblock2,579,img/planet4_right.png,4,Community 2,NA,TRUE,j,j,NA,NA,NA,1,6,"6,3,10,9,1,7,8,11,4,12,15,14,13,2,5"
15139,commdev-image-keyboard-response,359,996089,learnblock2,616,img/planet8_left.png,8,Community 2,NA,TRUE,f,f,NA,NA,NA,1,6,"6,3,10,9,1,7,8,11,4,12,15,14,13,2,5"
15139,commdev-image-keyboard-response,360,997346,learnblock2,668,img/planet7_left.png,7,Community 2,NA,TRUE,f,f,NA,NA,NA,1,6,"6,3,10,9,1,7,8,11,4,12,15,14,13,2,5"
15139,commdev-image-keyboard-response,361,998607,learnblock2,566,img/planet4_right.png,4,Community 2,NA,TRUE,j,j,NA,NA,NA,1,6,"6,3,10,9,1,7,8,11,4,12,15,14,13,2,5"
15139,commdev-image-keyboard-response,362,999865,learnblock2,647,img/planet8_left.png,8,Community 2,NA,TRUE,f,f,NA,NA,NA,1,6,"6,3,10,9,1,7,8,11,4,12,15,14,13,2,5"
15139,commdev-image-keyboard-response,363,1001259,learnblock2,699,img/planet11_right.png,11,Community 2,NA,TRUE,j,j,NA,NA,NA,1,6,"6,3,10,9,1,7,8,11,4,12,15,14,13,2,5"
15139,commdev-image-keyboard-response,364,1002515,learnblock2,738,img/planet4_right.png,4,Community 2,NA,TRUE,j,j,NA,NA,NA,1,6,"6,3,10,9,1,7,8,11,4,12,15,14,13,2,5"
15139,commdev-image-keyboard-response,365,1003775,learnblock2,658,img/planet12_right.png,12,Community 2,NA,TRUE,j,j,NA,NA,NA,1,6,"6,3,10,9,1,7,8,11,4,12,15,14,13,2,5"
15139,commdev-image-keyboard-response,366,1005037,learnblock2,599,img/planet11_left.png,11,Community 2,NA,TRUE,f,f,NA,NA,NA,1,6,"6,3,10,9,1,7,8,11,4,12,15,14,13,2,5"
15139,commdev-image-keyboard-response,367,1006301,learnblock2,560,img/planet8_right.png,8,Community 2,NA,TRUE,j,j,NA,NA,NA,1,6,"6,3,10,9,1,7,8,11,4,12,15,14,13,2,5"
15139,commdev-image-keyboard-response,368,1007565,learnblock2,607,img/planet7_left.png,7,Community 2,NA,TRUE,f,f,NA,NA,NA,1,6,"6,3,10,9,1,7,8,11,4,12,15,14,13,2,5"
15139,commdev-image-keyboard-response,369,1008827,learnblock2,609,img/planet8_right.png,8,Community 2,NA,TRUE,j,j,NA,NA,NA,1,6,"6,3,10,9,1,7,8,11,4,12,15,14,13,2,5"
15139,commdev-image-keyboard-response,370,1010088,learnblock2,603,img/planet12_right.png,12,Community 2,NA,TRUE,j,j,NA,NA,NA,1,6,"6,3,10,9,1,7,8,11,4,12,15,14,13,2,5"
15139,commdev-image-keyboard-response,371,1011350,learnblock2,695,img/planet7_left.png,7,Community 2,NA,TRUE,f,f,NA,NA,NA,1,6,"6,3,10,9,1,7,8,11,4,12,15,14,13,2,5"
15139,commdev-image-keyboard-response,372,1012613,learnblock2,727,img/planet9_left.png,9,Community 1,NA,TRUE,f,f,NA,NA,NA,1,6,"6,3,10,9,1,7,8,11,4,12,15,14,13,2,5"
15139,commdev-image-keyboard-response,373,1013871,learnblock2,816,img/planet6_right.png,6,Community 1,NA,TRUE,j,j,NA,NA,NA,1,6,"6,3,10,9,1,7,8,11,4,12,15,14,13,2,5"
15139,commdev-image-keyboard-response,374,1015127,learnblock2,847,img/planet9_right.png,9,Community 1,NA,TRUE,j,j,NA,NA,NA,1,6,"6,3,10,9,1,7,8,11,4,12,15,14,13,2,5"
15139,commdev-image-keyboard-response,375,1016390,learnblock2,744,img/planet10_left.png,10,Community 1,NA,TRUE,f,f,NA,NA,NA,1,6,"6,3,10,9,1,7,8,11,4,12,15,14,13,2,5"
15139,commdev-image-keyboard-response,376,1017647,learnblock2,639,img/planet9_right.png,9,Community 1,NA,TRUE,j,j,NA,NA,NA,1,6,"6,3,10,9,1,7,8,11,4,12,15,14,13,2,5"
15139,commdev-image-keyboard-response,377,1019031,learnblock2,612,img/planet10_right.png,10,Community 1,NA,TRUE,j,j,NA,NA,NA,1,6,"6,3,10,9,1,7,8,11,4,12,15,14,13,2,5"
15139,commdev-image-keyboard-response,378,1020297,learnblock2,728,img/planet3_right.png,3,Community 1,NA,TRUE,j,j,NA,NA,NA,1,6,"6,3,10,9,1,7,8,11,4,12,15,14,13,2,5"
15139,commdev-image-keyboard-response,379,1021560,learnblock2,596,img/planet10_left.png,10,Community 1,NA,TRUE,f,f,NA,NA,NA,1,6,"6,3,10,9,1,7,8,11,4,12,15,14,13,2,5"
15139,commdev-image-keyboard-response,380,1022812,learnblock2,605,img/planet6_right.png,6,Community 1,NA,TRUE,j,j,NA,NA,NA,1,6,"6,3,10,9,1,7,8,11,4,12,15,14,13,2,5"
15139,commdev-image-keyboard-response,381,1024074,learnblock2,608,img/planet9_right.png,9,Community 1,NA,TRUE,j,j,NA,NA,NA,1,6,"6,3,10,9,1,7,8,11,4,12,15,14,13,2,5"
15139,commdev-image-keyboard-response,382,1025337,learnblock2,555,img/planet10_right.png,10,Community 1,NA,TRUE,j,j,NA,NA,NA,1,6,"6,3,10,9,1,7,8,11,4,12,15,14,13,2,5"
15139,commdev-image-keyboard-response,383,1026596,learnblock2,613,img/planet9_right.png,9,Community 1,NA,TRUE,j,j,NA,NA,NA,1,6,"6,3,10,9,1,7,8,11,4,12,15,14,13,2,5"
15139,commdev-image-keyboard-response,384,1027861,learnblock2,700,img/planet7_right.png,7,Community 2,NA,TRUE,j,j,NA,NA,NA,1,6,"6,3,10,9,1,7,8,11,4,12,15,14,13,2,5"
15139,commdev-image-keyboard-response,385,1029126,learnblock2,743,img/planet9_left.png,9,Community 1,NA,TRUE,f,f,NA,NA,NA,1,6,"6,3,10,9,1,7,8,11,4,12,15,14,13,2,5"
15139,commdev-image-keyboard-response,386,1030377,learnblock2,583,img/planet10_right.png,10,Community 1,NA,TRUE,j,j,NA,NA,NA,1,6,"6,3,10,9,1,7,8,11,4,12,15,14,13,2,5"
15139,commdev-image-keyboard-response,387,1031634,learnblock2,614,img/planet9_right.png,9,Community 1,NA,TRUE,j,j,NA,NA,NA,1,6,"6,3,10,9,1,7,8,11,4,12,15,14,13,2,5"
15139,commdev-image-keyboard-response,388,1032998,learnblock2,654,img/planet3_left.png,3,Community 1,NA,TRUE,f,f,NA,NA,NA,1,6,"6,3,10,9,1,7,8,11,4,12,15,14,13,2,5"
15139,commdev-image-keyboard-response,389,1034259,learnblock2,918,img/planet6_left.png,6,Community 1,NA,TRUE,f,f,NA,NA,NA,1,6,"6,3,10,9,1,7,8,11,4,12,15,14,13,2,5"
15139,commdev-image-keyboard-response,390,1035522,learnblock2,578,img/planet3_left.png,3,Community 1,NA,TRUE,f,f,NA,NA,NA,1,6,"6,3,10,9,1,7,8,11,4,12,15,14,13,2,5"
15139,commdev-image-keyboard-response,391,1036786,learnblock2,572,img/planet6_left.png,6,Community 1,NA,TRUE,f,f,NA,NA,NA,1,6,"6,3,10,9,1,7,8,11,4,12,15,14,13,2,5"
15139,commdev-image-keyboard-response,392,1038039,learnblock2,620,img/planet10_right.png,10,Community 1,NA,TRUE,j,j,NA,NA,NA,1,6,"6,3,10,9,1,7,8,11,4,12,15,14,13,2,5"
15139,commdev-image-keyboard-response,393,1039292,learnblock2,542,img/planet9_right.png,9,Community 1,NA,TRUE,j,j,NA,NA,NA,1,6,"6,3,10,9,1,7,8,11,4,12,15,14,13,2,5"
15139,commdev-image-keyboard-response,394,1040556,learnblock2,536,img/planet7_right.png,7,Community 2,NA,TRUE,j,j,NA,NA,NA,1,6,"6,3,10,9,1,7,8,11,4,12,15,14,13,2,5"
15139,commdev-image-keyboard-response,395,1041822,learnblock2,637,img/planet4_left.png,4,Community 2,NA,TRUE,f,f,NA,NA,NA,1,6,"6,3,10,9,1,7,8,11,4,12,15,14,13,2,5"
15139,commdev-image-keyboard-response,396,1043087,learnblock2,534,img/planet12_right.png,12,Community 2,NA,TRUE,j,j,NA,NA,NA,1,6,"6,3,10,9,1,7,8,11,4,12,15,14,13,2,5"
15139,commdev-image-keyboard-response,397,1044338,learnblock2,557,img/planet11_left.png,11,Community 2,NA,TRUE,f,f,NA,NA,NA,1,6,"6,3,10,9,1,7,8,11,4,12,15,14,13,2,5"
15139,commdev-image-keyboard-response,398,1045596,learnblock2,491,img/planet8_right.png,8,Community 2,NA,TRUE,j,j,NA,NA,NA,1,6,"6,3,10,9,1,7,8,11,4,12,15,14,13,2,5"
15139,commdev-image-keyboard-response,399,1046851,learnblock2,769,img/planet11_right.png,11,Community 2,NA,TRUE,j,j,NA,NA,NA,1,6,"6,3,10,9,1,7,8,11,4,12,15,14,13,2,5"
15139,commdev-image-keyboard-response,400,1048109,learnblock2,515,img/planet4_right.png,4,Community 2,NA,TRUE,j,j,NA,NA,NA,1,6,"6,3,10,9,1,7,8,11,4,12,15,14,13,2,5"
15139,commdev-image-keyboard-response,401,1049371,learnblock2,617,img/planet8_left.png,8,Community 2,NA,TRUE,f,f,NA,NA,NA,1,6,"6,3,10,9,1,7,8,11,4,12,15,14,13,2,5"
15139,commdev-image-keyboard-response,402,1050739,learnblock2,490,img/planet11_right.png,11,Community 2,NA,TRUE,j,j,NA,NA,NA,1,6,"6,3,10,9,1,7,8,11,4,12,15,14,13,2,5"
15139,commdev-image-keyboard-response,403,1052001,learnblock2,684,img/planet12_left.png,12,Community 2,NA,TRUE,f,f,NA,NA,NA,1,6,"6,3,10,9,1,7,8,11,4,12,15,14,13,2,5"
15139,commdev-image-keyboard-response,404,1053264,learnblock2,661,img/planet11_left.png,11,Community 2,NA,TRUE,f,f,NA,NA,NA,1,6,"6,3,10,9,1,7,8,11,4,12,15,14,13,2,5"
15139,commdev-image-keyboard-response,405,1054519,learnblock2,549,img/planet12_left.png,12,Community 2,NA,TRUE,f,f,NA,NA,NA,1,6,"6,3,10,9,1,7,8,11,4,12,15,14,13,2,5"
15139,commdev-image-keyboard-response,406,1055783,learnblock2,528,img/planet4_left.png,4,Community 2,NA,TRUE,f,f,NA,NA,NA,1,6,"6,3,10,9,1,7,8,11,4,12,15,14,13,2,5"
15139,commdev-image-keyboard-response,407,1057057,learnblock2,862,img/planet8_left.png,8,Community 2,NA,TRUE,f,f,NA,NA,NA,1,6,"6,3,10,9,1,7,8,11,4,12,15,14,13,2,5"
15139,commdev-image-keyboard-response,408,1058309,learnblock2,526,img/planet7_right.png,7,Community 2,NA,TRUE,j,j,NA,NA,NA,1,6,"6,3,10,9,1,7,8,11,4,12,15,14,13,2,5"
15139,commdev-image-keyboard-response,409,1059598,learnblock2,577,img/planet8_left.png,8,Community 2,NA,TRUE,f,f,NA,NA,NA,1,6,"6,3,10,9,1,7,8,11,4,12,15,14,13,2,5"
15139,commdev-image-keyboard-response,410,1060855,learnblock2,553,img/planet12_right.png,12,Community 2,NA,TRUE,j,j,NA,NA,NA,1,6,"6,3,10,9,1,7,8,11,4,12,15,14,13,2,5"
15139,commdev-image-keyboard-response,411,1062153,learnblock2,615,img/planet8_left.png,8,Community 2,NA,TRUE,f,f,NA,NA,NA,1,6,"6,3,10,9,1,7,8,11,4,12,15,14,13,2,5"
15139,commdev-image-keyboard-response,412,1063413,learnblock2,557,img/planet11_left.png,11,Community 2,NA,TRUE,f,f,NA,NA,NA,1,6,"6,3,10,9,1,7,8,11,4,12,15,14,13,2,5"
15139,commdev-image-keyboard-response,413,1064720,learnblock2,536,img/planet14_right.png,14,Community 3,NA,TRUE,j,j,NA,NA,NA,1,6,"6,3,10,9,1,7,8,11,4,12,15,14,13,2,5"
15139,commdev-image-keyboard-response,414,1065985,learnblock2,702,img/planet13_right.png,13,Community 3,NA,TRUE,j,j,NA,NA,NA,1,6,"6,3,10,9,1,7,8,11,4,12,15,14,13,2,5"
15139,commdev-image-keyboard-response,415,1067248,learnblock2,588,img/planet14_right.png,14,Community 3,NA,TRUE,j,j,NA,NA,NA,1,6,"6,3,10,9,1,7,8,11,4,12,15,14,13,2,5"
15139,commdev-image-keyboard-response,416,1068509,learnblock2,528,img/planet5_left.png,5,Community 3,NA,TRUE,f,f,NA,NA,NA,1,6,"6,3,10,9,1,7,8,11,4,12,15,14,13,2,5"
15139,commdev-image-keyboard-response,417,1069774,learnblock2,649,img/planet13_left.png,13,Community 3,NA,TRUE,f,f,NA,NA,NA,1,6,"6,3,10,9,1,7,8,11,4,12,15,14,13,2,5"
15139,commdev-image-keyboard-response,418,1071036,learnblock2,615,img/planet14_right.png,14,Community 3,NA,TRUE,j,j,NA,NA,NA,1,6,"6,3,10,9,1,7,8,11,4,12,15,14,13,2,5"
15139,commdev-image-keyboard-response,419,1072296,learnblock2,569,img/planet13_left.png,13,Community 3,NA,TRUE,f,f,NA,NA,NA,1,6,"6,3,10,9,1,7,8,11,4,12,15,14,13,2,5"
15139,commdev-image-keyboard-response,420,1073619,learnblock2,488,img/planet2_right.png,2,Community 3,NA,TRUE,j,j,NA,NA,NA,1,6,"6,3,10,9,1,7,8,11,4,12,15,14,13,2,5"
15139,commdev-image-keyboard-response,421,1074882,learnblock2,587,img/planet5_left.png,5,Community 3,NA,TRUE,f,f,NA,NA,NA,1,6,"6,3,10,9,1,7,8,11,4,12,15,14,13,2,5"
15139,commdev-image-keyboard-response,422,1076212,learnblock2,596,img/planet13_left.png,13,Community 3,NA,TRUE,f,f,NA,NA,NA,1,6,"6,3,10,9,1,7,8,11,4,12,15,14,13,2,5"
15139,commdev-image-keyboard-response,423,1077465,learnblock2,555,img/planet14_right.png,14,Community 3,NA,TRUE,j,j,NA,NA,NA,1,6,"6,3,10,9,1,7,8,11,4,12,15,14,13,2,5"
15139,commdev-image-keyboard-response,424,1078776,learnblock2,452,img/planet5_left.png,5,Community 3,NA,TRUE,f,f,NA,NA,NA,1,6,"6,3,10,9,1,7,8,11,4,12,15,14,13,2,5"
15139,commdev-image-keyboard-response,425,1080040,learnblock2,541,img/planet13_left.png,13,Community 3,NA,TRUE,f,f,NA,NA,NA,1,6,"6,3,10,9,1,7,8,11,4,12,15,14,13,2,5"
15139,commdev-image-keyboard-response,426,1081302,learnblock2,527,img/planet15_right.png,15,Community 3,NA,TRUE,j,j,NA,NA,NA,1,6,"6,3,10,9,1,7,8,11,4,12,15,14,13,2,5"
15139,commdev-image-keyboard-response,427,1082567,learnblock2,584,img/planet5_left.png,5,Community 3,NA,TRUE,f,f,NA,NA,NA,1,6,"6,3,10,9,1,7,8,11,4,12,15,14,13,2,5"
15139,commdev-image-keyboard-response,428,1083829,learnblock2,647,img/planet2_left.png,2,Community 3,NA,TRUE,f,f,NA,NA,NA,1,6,"6,3,10,9,1,7,8,11,4,12,15,14,13,2,5"
15139,commdev-image-keyboard-response,429,1085093,learnblock2,624,img/planet14_right.png,14,Community 3,NA,TRUE,j,j,NA,NA,NA,1,6,"6,3,10,9,1,7,8,11,4,12,15,14,13,2,5"
15139,commdev-image-keyboard-response,430,1086353,learnblock2,567,img/planet5_left.png,5,Community 3,NA,TRUE,f,f,NA,NA,NA,1,6,"6,3,10,9,1,7,8,11,4,12,15,14,13,2,5"
15139,commdev-image-keyboard-response,431,1087662,learnblock2,559,img/planet13_right.png,13,Community 3,NA,TRUE,j,j,NA,NA,NA,1,6,"6,3,10,9,1,7,8,11,4,12,15,14,13,2,5"
15139,commdev-image-keyboard-response,432,1088927,learnblock2,592,img/planet14_right.png,14,Community 3,NA,TRUE,j,j,NA,NA,NA,1,6,"6,3,10,9,1,7,8,11,4,12,15,14,13,2,5"
15139,commdev-image-keyboard-response,433,1090189,learnblock2,446,img/planet13_left.png,13,Community 3,NA,TRUE,f,f,NA,NA,NA,1,6,"6,3,10,9,1,7,8,11,4,12,15,14,13,2,5"
15139,commdev-image-keyboard-response,434,1091450,learnblock2,514,img/planet2_left.png,2,Community 3,NA,TRUE,f,f,NA,NA,NA,1,6,"6,3,10,9,1,7,8,11,4,12,15,14,13,2,5"
15139,commdev-image-keyboard-response,435,1092713,learnblock2,554,img/planet14_right.png,14,Community 3,NA,TRUE,j,j,NA,NA,NA,1,6,"6,3,10,9,1,7,8,11,4,12,15,14,13,2,5"
15139,commdev-image-keyboard-response,436,1093973,learnblock2,836,img/planet13_right.png,13,Community 3,NA,TRUE,j,j,NA,NA,NA,1,6,"6,3,10,9,1,7,8,11,4,12,15,14,13,2,5"
15139,commdev-image-keyboard-response,437,1095236,learnblock2,553,img/planet2_left.png,2,Community 3,NA,TRUE,f,f,NA,NA,NA,1,6,"6,3,10,9,1,7,8,11,4,12,15,14,13,2,5"
15139,commdev-image-keyboard-response,438,1096502,learnblock2,722,img/planet15_left.png,15,Community 3,NA,TRUE,f,f,NA,NA,NA,1,6,"6,3,10,9,1,7,8,11,4,12,15,14,13,2,5"
15139,commdev-image-keyboard-response,439,1097758,learnblock2,544,img/planet1_right.png,1,Community 1,NA,TRUE,j,j,NA,NA,NA,1,6,"6,3,10,9,1,7,8,11,4,12,15,14,13,2,5"
15139,commdev-image-keyboard-response,440,1099020,learnblock2,568,img/planet3_left.png,3,Community 1,NA,TRUE,f,f,NA,NA,NA,1,6,"6,3,10,9,1,7,8,11,4,12,15,14,13,2,5"
15139,commdev-image-keyboard-response,441,1100270,learnblock2,507,img/planet6_right.png,6,Community 1,NA,TRUE,j,j,NA,NA,NA,1,6,"6,3,10,9,1,7,8,11,4,12,15,14,13,2,5"
15139,commdev-image-keyboard-response,442,1101521,learnblock2,584,img/planet9_right.png,9,Community 1,NA,TRUE,j,j,NA,NA,NA,1,6,"6,3,10,9,1,7,8,11,4,12,15,14,13,2,5"
15139,commdev-image-keyboard-response,443,1102785,learnblock2,564,img/planet7_right.png,7,Community 2,NA,TRUE,j,j,NA,NA,NA,1,6,"6,3,10,9,1,7,8,11,4,12,15,14,13,2,5"
15139,commdev-image-keyboard-response,444,1104050,learnblock2,612,img/planet12_right.png,12,Community 2,NA,TRUE,j,j,NA,NA,NA,1,6,"6,3,10,9,1,7,8,11,4,12,15,14,13,2,5"
15139,commdev-image-keyboard-response,445,1105311,learnblock2,579,img/planet4_right.png,4,Community 2,NA,TRUE,j,j,NA,NA,NA,1,6,"6,3,10,9,1,7,8,11,4,12,15,14,13,2,5"
15139,commdev-image-keyboard-response,446,1106568,learnblock2,557,img/planet8_right.png,8,Community 2,NA,TRUE,j,j,NA,NA,NA,1,6,"6,3,10,9,1,7,8,11,4,12,15,14,13,2,5"
15139,commdev-image-keyboard-response,447,1107823,learnblock2,581,img/planet7_left.png,7,Community 2,NA,TRUE,f,f,NA,NA,NA,1,6,"6,3,10,9,1,7,8,11,4,12,15,14,13,2,5"
15139,commdev-image-keyboard-response,448,1109160,learnblock2,613,img/planet12_right.png,12,Community 2,NA,TRUE,j,j,NA,NA,NA,1,6,"6,3,10,9,1,7,8,11,4,12,15,14,13,2,5"
15139,commdev-image-keyboard-response,449,1110416,learnblock2,685,img/planet7_right.png,7,Community 2,NA,TRUE,j,j,NA,NA,NA,1,6,"6,3,10,9,1,7,8,11,4,12,15,14,13,2,5"
15139,commdev-image-keyboard-response,450,1111674,learnblock2,639,img/planet9_left.png,9,Community 1,NA,TRUE,f,f,NA,NA,NA,1,6,"6,3,10,9,1,7,8,11,4,12,15,14,13,2,5"
15139,commdev-image-keyboard-response,451,1112939,learnblock2,652,img/planet7_left.png,7,Community 2,NA,TRUE,f,f,NA,NA,NA,1,6,"6,3,10,9,1,7,8,11,4,12,15,14,13,2,5"
15139,commdev-image-keyboard-response,452,1114200,learnblock2,659,img/planet12_left.png,12,Community 2,NA,TRUE,f,f,NA,NA,NA,1,6,"6,3,10,9,1,7,8,11,4,12,15,14,13,2,5"
15139,commdev-image-keyboard-response,453,1115460,learnblock2,703,img/planet11_left.png,11,Community 2,NA,TRUE,f,f,NA,NA,NA,1,6,"6,3,10,9,1,7,8,11,4,12,15,14,13,2,5"
15139,commdev-image-keyboard-response,454,1116724,learnblock2,626,img/planet4_left.png,4,Community 2,NA,TRUE,f,f,NA,NA,NA,1,6,"6,3,10,9,1,7,8,11,4,12,15,14,13,2,5"
15139,commdev-image-keyboard-response,455,1118093,learnblock2,585,img/planet7_left.png,7,Community 2,NA,TRUE,f,f,NA,NA,NA,1,6,"6,3,10,9,1,7,8,11,4,12,15,14,13,2,5"
15139,commdev-image-keyboard-response,456,1119358,learnblock2,611,img/planet12_left.png,12,Community 2,NA,TRUE,f,f,NA,NA,NA,1,6,"6,3,10,9,1,7,8,11,4,12,15,14,13,2,5"
15139,commdev-image-keyboard-response,457,1120709,learnblock2,640,img/planet4_right.png,4,Community 2,NA,TRUE,j,j,NA,NA,NA,1,6,"6,3,10,9,1,7,8,11,4,12,15,14,13,2,5"
15139,commdev-image-keyboard-response,458,1121969,learnblock2,582,img/planet11_left.png,11,Community 2,NA,TRUE,f,f,NA,NA,NA,1,6,"6,3,10,9,1,7,8,11,4,12,15,14,13,2,5"
15139,commdev-image-keyboard-response,459,1123296,learnblock2,547,img/planet4_right.png,4,Community 2,NA,TRUE,j,j,NA,NA,NA,1,6,"6,3,10,9,1,7,8,11,4,12,15,14,13,2,5"
15139,commdev-image-keyboard-response,460,1124547,learnblock2,620,img/planet12_right.png,12,Community 2,NA,TRUE,j,j,NA,NA,NA,1,6,"6,3,10,9,1,7,8,11,4,12,15,14,13,2,5"
15139,commdev-image-keyboard-response,461,1125922,learnblock2,489,img/planet11_left.png,11,Community 2,NA,TRUE,f,f,NA,NA,NA,1,6,"6,3,10,9,1,7,8,11,4,12,15,14,13,2,5"
15139,commdev-image-keyboard-response,462,1127182,learnblock2,812,img/planet8_left.png,8,Community 2,NA,TRUE,f,f,NA,NA,NA,1,6,"6,3,10,9,1,7,8,11,4,12,15,14,13,2,5"
15139,commdev-image-keyboard-response,463,1128443,learnblock2,568,img/planet11_left.png,11,Community 2,NA,TRUE,f,f,NA,NA,NA,1,6,"6,3,10,9,1,7,8,11,4,12,15,14,13,2,5"
15139,commdev-image-keyboard-response,464,1129707,learnblock2,523,img/planet8_right.png,8,Community 2,NA,TRUE,j,j,NA,NA,NA,1,6,"6,3,10,9,1,7,8,11,4,12,15,14,13,2,5"
15139,commdev-image-keyboard-response,465,1131036,learnblock2,545,img/planet4_left.png,4,Community 2,NA,TRUE,f,f,NA,NA,NA,1,6,"6,3,10,9,1,7,8,11,4,12,15,14,13,2,5"
15139,commdev-image-keyboard-response,466,1132293,learnblock2,754,img/planet8_left.png,8,Community 2,NA,TRUE,f,f,NA,NA,NA,1,6,"6,3,10,9,1,7,8,11,4,12,15,14,13,2,5"
15139,commdev-image-keyboard-response,467,1133559,learnblock2,841,img/planet12_right.png,12,Community 2,NA,TRUE,j,j,NA,NA,NA,1,6,"6,3,10,9,1,7,8,11,4,12,15,14,13,2,5"
15139,commdev-image-keyboard-response,468,1134821,learnblock2,967,img/planet7_right.png,7,Community 2,NA,TRUE,j,j,NA,NA,NA,1,6,"6,3,10,9,1,7,8,11,4,12,15,14,13,2,5"
15139,commdev-image-keyboard-response,469,1136081,learnblock2,745,img/planet8_right.png,8,Community 2,NA,TRUE,j,j,NA,NA,NA,1,6,"6,3,10,9,1,7,8,11,4,12,15,14,13,2,5"
15139,commdev-image-keyboard-response,470,1137346,learnblock2,580,img/planet4_left.png,4,Community 2,NA,TRUE,f,f,NA,NA,NA,1,6,"6,3,10,9,1,7,8,11,4,12,15,14,13,2,5"
15139,commdev-image-keyboard-response,471,1138608,learnblock2,500,img/planet7_right.png,7,Community 2,NA,TRUE,j,j,NA,NA,NA,1,6,"6,3,10,9,1,7,8,11,4,12,15,14,13,2,5"
15139,commdev-image-keyboard-response,472,1139870,learnblock2,542,img/planet9_right.png,9,Community 1,NA,TRUE,j,j,NA,NA,NA,1,6,"6,3,10,9,1,7,8,11,4,12,15,14,13,2,5"
15139,commdev-image-keyboard-response,473,1141124,learnblock2,597,img/planet6_right.png,6,Community 1,NA,TRUE,j,j,NA,NA,NA,1,6,"6,3,10,9,1,7,8,11,4,12,15,14,13,2,5"
15139,commdev-image-keyboard-response,474,1142386,learnblock2,675,img/planet3_left.png,3,Community 1,NA,TRUE,f,f,NA,NA,NA,1,6,"6,3,10,9,1,7,8,11,4,12,15,14,13,2,5"
15139,commdev-image-keyboard-response,475,1143639,learnblock2,691,img/planet6_right.png,6,Community 1,NA,TRUE,j,j,NA,NA,NA,1,6,"6,3,10,9,1,7,8,11,4,12,15,14,13,2,5"
15139,commdev-image-keyboard-response,476,1144899,learnblock2,607,img/planet9_left.png,9,Community 1,NA,TRUE,f,f,NA,NA,NA,1,6,"6,3,10,9,1,7,8,11,4,12,15,14,13,2,5"
15139,commdev-image-keyboard-response,477,1146257,learnblock2,565,img/planet10_left.png,10,Community 1,NA,TRUE,f,f,NA,NA,NA,1,6,"6,3,10,9,1,7,8,11,4,12,15,14,13,2,5"
15139,commdev-image-keyboard-response,478,1147511,learnblock2,589,img/planet1_left.png,1,Community 1,NA,TRUE,f,f,NA,NA,NA,1,6,"6,3,10,9,1,7,8,11,4,12,15,14,13,2,5"
15139,commdev-image-keyboard-response,479,1148774,learnblock2,495,img/planet6_right.png,6,Community 1,NA,TRUE,j,j,NA,NA,NA,1,6,"6,3,10,9,1,7,8,11,4,12,15,14,13,2,5"
15139,commdev-image-keyboard-response,480,1150035,learnblock2,655,img/planet9_right.png,9,Community 1,NA,TRUE,j,j,NA,NA,NA,1,6,"6,3,10,9,1,7,8,11,4,12,15,14,13,2,5"
15139,commdev-image-keyboard-response,481,1151286,learnblock2,618,img/planet6_left.png,6,Community 1,NA,TRUE,f,f,NA,NA,NA,1,6,"6,3,10,9,1,7,8,11,4,12,15,14,13,2,5"
15139,commdev-image-keyboard-response,482,1152538,learnblock2,503,img/planet10_right.png,10,Community 1,NA,TRUE,j,j,NA,NA,NA,1,6,"6,3,10,9,1,7,8,11,4,12,15,14,13,2,5"
15139,commdev-image-keyboard-response,483,1153801,learnblock2,571,img/planet1_right.png,1,Community 1,NA,TRUE,j,j,NA,NA,NA,1,6,"6,3,10,9,1,7,8,11,4,12,15,14,13,2,5"
15139,commdev-image-keyboard-response,484,1155124,learnblock2,438,img/planet6_left.png,6,Community 1,NA,TRUE,f,f,NA,NA,NA,1,6,"6,3,10,9,1,7,8,11,4,12,15,14,13,2,5"
15139,commdev-image-keyboard-response,485,1156387,learnblock2,577,img/planet1_left.png,1,Community 1,NA,TRUE,f,f,NA,NA,NA,1,6,"6,3,10,9,1,7,8,11,4,12,15,14,13,2,5"
15139,commdev-image-keyboard-response,486,1157647,learnblock2,611,img/planet6_left.png,6,Community 1,NA,TRUE,f,f,NA,NA,NA,1,6,"6,3,10,9,1,7,8,11,4,12,15,14,13,2,5"
15139,commdev-image-keyboard-response,487,1158909,learnblock2,558,img/planet9_right.png,9,Community 1,NA,TRUE,j,j,NA,NA,NA,1,6,"6,3,10,9,1,7,8,11,4,12,15,14,13,2,5"
15139,commdev-image-keyboard-response,488,1160173,learnblock2,520,img/planet6_left.png,6,Community 1,NA,TRUE,f,f,NA,NA,NA,1,6,"6,3,10,9,1,7,8,11,4,12,15,14,13,2,5"
15139,commdev-image-keyboard-response,489,1161437,learnblock2,530,img/planet9_right.png,9,Community 1,NA,TRUE,j,j,NA,NA,NA,1,6,"6,3,10,9,1,7,8,11,4,12,15,14,13,2,5"
15139,commdev-image-keyboard-response,490,1162700,learnblock2,481,img/planet6_left.png,6,Community 1,NA,TRUE,f,f,NA,NA,NA,1,6,"6,3,10,9,1,7,8,11,4,12,15,14,13,2,5"
15139,commdev-image-keyboard-response,491,1163960,learnblock2,736,img/planet9_right.png,9,Community 1,NA,TRUE,j,j,NA,NA,NA,1,6,"6,3,10,9,1,7,8,11,4,12,15,14,13,2,5"
15139,commdev-image-keyboard-response,492,1165226,learnblock2,517,img/planet6_right.png,6,Community 1,NA,TRUE,j,j,NA,NA,NA,1,6,"6,3,10,9,1,7,8,11,4,12,15,14,13,2,5"
15139,commdev-image-keyboard-response,493,1166486,learnblock2,611,img/planet3_right.png,3,Community 1,NA,TRUE,j,j,NA,NA,NA,1,6,"6,3,10,9,1,7,8,11,4,12,15,14,13,2,5"
15139,commdev-image-keyboard-response,494,1167741,learnblock2,601,img/planet10_left.png,10,Community 1,NA,TRUE,f,f,NA,NA,NA,1,6,"6,3,10,9,1,7,8,11,4,12,15,14,13,2,5"
15139,commdev-image-keyboard-response,495,1169003,learnblock2,544,img/planet3_right.png,3,Community 1,NA,TRUE,j,j,NA,NA,NA,1,6,"6,3,10,9,1,7,8,11,4,12,15,14,13,2,5"
15139,commdev-image-keyboard-response,496,1170270,learnblock2,498,img/planet9_left.png,9,Community 1,NA,TRUE,f,f,NA,NA,NA,1,6,"6,3,10,9,1,7,8,11,4,12,15,14,13,2,5"
15139,commdev-image-keyboard-response,497,1171534,learnblock2,576,img/planet7_left.png,7,Community 2,NA,TRUE,f,f,NA,NA,NA,1,6,"6,3,10,9,1,7,8,11,4,12,15,14,13,2,5"
15139,commdev-image-keyboard-response,498,1172797,learnblock2,496,img/planet9_right.png,9,Community 1,NA,TRUE,j,j,NA,NA,NA,1,6,"6,3,10,9,1,7,8,11,4,12,15,14,13,2,5"
15139,commdev-image-keyboard-response,499,1174063,learnblock2,520,img/planet3_left.png,3,Community 1,NA,TRUE,f,f,NA,NA,NA,1,6,"6,3,10,9,1,7,8,11,4,12,15,14,13,2,5"
15139,commdev-image-keyboard-response,500,1175329,learnblock2,647,img/planet9_right.png,9,Community 1,NA,TRUE,j,j,NA,NA,NA,1,6,"6,3,10,9,1,7,8,11,4,12,15,14,13,2,5"
15139,commdev-image-keyboard-response,501,1176594,learnblock2,607,img/planet10_right.png,10,Community 1,NA,TRUE,j,j,NA,NA,NA,1,6,"6,3,10,9,1,7,8,11,4,12,15,14,13,2,5"
15139,commdev-image-keyboard-response,502,1177858,learnblock2,602,img/planet9_right.png,9,Community 1,NA,TRUE,j,j,NA,NA,NA,1,6,"6,3,10,9,1,7,8,11,4,12,15,14,13,2,5"
15139,commdev-image-keyboard-response,503,1179201,learnblock2,643,img/planet6_right.png,6,Community 1,NA,TRUE,j,j,NA,NA,NA,1,6,"6,3,10,9,1,7,8,11,4,12,15,14,13,2,5"
15139,commdev-image-keyboard-response,504,1180465,learnblock2,700,img/planet1_right.png,1,Community 1,NA,TRUE,j,j,NA,NA,NA,1,6,"6,3,10,9,1,7,8,11,4,12,15,14,13,2,5"
15139,commdev-image-keyboard-response,505,1181725,learnblock2,653,img/planet10_left.png,10,Community 1,NA,TRUE,f,f,NA,NA,NA,1,6,"6,3,10,9,1,7,8,11,4,12,15,14,13,2,5"
15139,commdev-image-keyboard-response,506,1182988,learnblock2,680,img/planet6_left.png,6,Community 1,NA,TRUE,f,f,NA,NA,NA,1,6,"6,3,10,9,1,7,8,11,4,12,15,14,13,2,5"
15139,commdev-image-keyboard-response,507,1184249,learnblock2,624,img/planet3_left.png,3,Community 1,NA,TRUE,f,f,NA,NA,NA,1,6,"6,3,10,9,1,7,8,11,4,12,15,14,13,2,5"
15139,commdev-image-keyboard-response,508,1185514,learnblock2,598,img/planet10_right.png,10,Community 1,NA,TRUE,j,j,NA,NA,NA,1,6,"6,3,10,9,1,7,8,11,4,12,15,14,13,2,5"
15139,commdev-image-keyboard-response,509,1186852,learnblock2,716,img/planet3_right.png,3,Community 1,NA,TRUE,j,j,NA,NA,NA,1,6,"6,3,10,9,1,7,8,11,4,12,15,14,13,2,5"
15139,commdev-image-keyboard-response,510,1188115,learnblock2,538,img/planet10_left.png,10,Community 1,NA,TRUE,f,f,NA,NA,NA,1,6,"6,3,10,9,1,7,8,11,4,12,15,14,13,2,5"
15139,commdev-image-keyboard-response,511,1189395,learnblock2,538,img/planet9_right.png,9,Community 1,NA,TRUE,j,j,NA,NA,NA,1,6,"6,3,10,9,1,7,8,11,4,12,15,14,13,2,5"
15139,commdev-image-keyboard-response,512,1190646,learnblock2,540,img/planet6_right.png,6,Community 1,NA,TRUE,j,j,NA,NA,NA,1,6,"6,3,10,9,1,7,8,11,4,12,15,14,13,2,5"
15139,commdev-image-keyboard-response,513,1191942,learnblock2,618,img/planet1_right.png,1,Community 1,NA,TRUE,j,j,NA,NA,NA,1,6,"6,3,10,9,1,7,8,11,4,12,15,14,13,2,5"
15139,commdev-image-keyboard-response,514,1193206,learnblock2,511,img/planet10_left.png,10,Community 1,NA,TRUE,f,f,NA,NA,NA,1,6,"6,3,10,9,1,7,8,11,4,12,15,14,13,2,5"
15139,commdev-image-keyboard-response,515,1194469,learnblock2,559,img/planet3_right.png,3,Community 1,NA,TRUE,j,j,NA,NA,NA,1,6,"6,3,10,9,1,7,8,11,4,12,15,14,13,2,5"
15139,commdev-image-keyboard-response,516,1195732,learnblock2,535,img/planet1_left.png,1,Community 1,NA,TRUE,f,f,NA,NA,NA,1,6,"6,3,10,9,1,7,8,11,4,12,15,14,13,2,5"
15139,commdev-image-keyboard-response,517,1196994,learnblock2,699,img/planet15_left.png,15,Community 3,NA,TRUE,f,f,NA,NA,NA,1,6,"6,3,10,9,1,7,8,11,4,12,15,14,13,2,5"
15139,commdev-image-keyboard-response,518,1198246,learnblock2,562,img/planet2_right.png,2,Community 3,NA,TRUE,j,j,NA,NA,NA,1,6,"6,3,10,9,1,7,8,11,4,12,15,14,13,2,5"
15139,commdev-image-keyboard-response,519,1199507,learnblock2,598,img/planet15_left.png,15,Community 3,NA,TRUE,f,f,NA,NA,NA,1,6,"6,3,10,9,1,7,8,11,4,12,15,14,13,2,5"
15139,commdev-image-keyboard-response,520,1200849,learnblock2,586,img/planet1_left.png,1,Community 1,NA,TRUE,f,f,NA,NA,NA,1,6,"6,3,10,9,1,7,8,11,4,12,15,14,13,2,5"
15139,commdev-image-keyboard-response,521,1202107,learnblock2,518,img/planet10_left.png,10,Community 1,NA,TRUE,f,f,NA,NA,NA,1,6,"6,3,10,9,1,7,8,11,4,12,15,14,13,2,5"
15139,commdev-image-keyboard-response,522,1203382,learnblock2,491,img/planet3_right.png,3,Community 1,NA,TRUE,j,j,NA,NA,NA,1,6,"6,3,10,9,1,7,8,11,4,12,15,14,13,2,5"
15139,commdev-image-keyboard-response,523,1204633,learnblock2,554,img/planet6_right.png,6,Community 1,NA,TRUE,j,j,NA,NA,NA,1,6,"6,3,10,9,1,7,8,11,4,12,15,14,13,2,5"
15139,commdev-image-keyboard-response,524,1205943,learnblock2,548,img/planet9_left.png,9,Community 1,NA,TRUE,f,f,NA,NA,NA,1,6,"6,3,10,9,1,7,8,11,4,12,15,14,13,2,5"
15139,commdev-image-keyboard-response,525,1207208,learnblock2,549,img/planet6_left.png,6,Community 1,NA,TRUE,f,f,NA,NA,NA,1,6,"6,3,10,9,1,7,8,11,4,12,15,14,13,2,5"
15139,commdev-image-keyboard-response,526,1208493,learnblock2,551,img/planet1_left.png,1,Community 1,NA,TRUE,f,f,NA,NA,NA,1,6,"6,3,10,9,1,7,8,11,4,12,15,14,13,2,5"
15139,commdev-image-keyboard-response,527,1209746,learnblock2,527,img/planet6_right.png,6,Community 1,NA,TRUE,j,j,NA,NA,NA,1,6,"6,3,10,9,1,7,8,11,4,12,15,14,13,2,5"
15139,commdev-image-keyboard-response,528,1211024,learnblock2,636,img/planet3_right.png,3,Community 1,NA,TRUE,j,j,NA,NA,NA,1,6,"6,3,10,9,1,7,8,11,4,12,15,14,13,2,5"
15139,commdev-image-keyboard-response,529,1212288,learnblock2,614,img/planet6_left.png,6,Community 1,NA,TRUE,f,f,NA,NA,NA,1,6,"6,3,10,9,1,7,8,11,4,12,15,14,13,2,5"
15139,commdev-image-keyboard-response,530,1213552,learnblock2,615,img/planet3_left.png,3,Community 1,NA,FALSE,j,f,NA,NA,NA,1,6,"6,3,10,9,1,7,8,11,4,12,15,14,13,2,5"
15139,commdev-image-keyboard-response,531,1214817,learnblock2,534,img/planet10_right.png,10,Community 1,NA,TRUE,j,j,NA,NA,NA,1,6,"6,3,10,9,1,7,8,11,4,12,15,14,13,2,5"
15139,commdev-image-keyboard-response,532,1216070,learnblock2,523,img/planet9_right.png,9,Community 1,NA,TRUE,j,j,NA,NA,NA,1,6,"6,3,10,9,1,7,8,11,4,12,15,14,13,2,5"
15139,commdev-image-keyboard-response,533,1217331,learnblock2,551,img/planet6_left.png,6,Community 1,NA,TRUE,f,f,NA,NA,NA,1,6,"6,3,10,9,1,7,8,11,4,12,15,14,13,2,5"
15139,commdev-image-keyboard-response,534,1218591,learnblock2,539,img/planet3_right.png,3,Community 1,NA,TRUE,j,j,NA,NA,NA,1,6,"6,3,10,9,1,7,8,11,4,12,15,14,13,2,5"
15139,commdev-image-keyboard-response,535,1219843,learnblock2,607,img/planet1_right.png,1,Community 1,NA,TRUE,j,j,NA,NA,NA,1,6,"6,3,10,9,1,7,8,11,4,12,15,14,13,2,5"
15139,commdev-image-keyboard-response,536,1221102,learnblock2,604,img/planet15_left.png,15,Community 3,NA,TRUE,f,f,NA,NA,NA,1,6,"6,3,10,9,1,7,8,11,4,12,15,14,13,2,5"
15139,commdev-image-keyboard-response,537,1222366,learnblock2,674,img/planet2_right.png,2,Community 3,NA,TRUE,j,j,NA,NA,NA,1,6,"6,3,10,9,1,7,8,11,4,12,15,14,13,2,5"
15139,commdev-image-keyboard-response,538,1223629,learnblock2,671,img/planet14_left.png,14,Community 3,NA,TRUE,f,f,NA,NA,NA,1,6,"6,3,10,9,1,7,8,11,4,12,15,14,13,2,5"
15139,commdev-image-keyboard-response,539,1224881,learnblock2,625,img/planet11_right.png,11,Community 2,NA,TRUE,j,j,NA,NA,NA,1,6,"6,3,10,9,1,7,8,11,4,12,15,14,13,2,5"
15139,commdev-image-keyboard-response,540,1226139,learnblock2,701,img/planet8_right.png,8,Community 2,NA,TRUE,j,j,NA,NA,NA,1,6,"6,3,10,9,1,7,8,11,4,12,15,14,13,2,5"
15139,commdev-image-keyboard-response,541,1227390,learnblock2,747,img/planet11_right.png,11,Community 2,NA,TRUE,j,j,NA,NA,NA,1,6,"6,3,10,9,1,7,8,11,4,12,15,14,13,2,5"
15139,commdev-image-keyboard-response,542,1228645,learnblock2,679,img/planet12_left.png,12,Community 2,NA,TRUE,f,f,NA,NA,NA,1,6,"6,3,10,9,1,7,8,11,4,12,15,14,13,2,5"
15139,commdev-image-keyboard-response,543,1229908,learnblock2,754,img/planet8_left.png,8,Community 2,NA,TRUE,f,f,NA,NA,NA,1,6,"6,3,10,9,1,7,8,11,4,12,15,14,13,2,5"
15139,commdev-image-keyboard-response,544,1231161,learnblock2,713,img/planet12_left.png,12,Community 2,NA,TRUE,f,f,NA,NA,NA,1,6,"6,3,10,9,1,7,8,11,4,12,15,14,13,2,5"
15139,commdev-image-keyboard-response,545,1232412,learnblock2,756,img/planet7_right.png,7,Community 2,NA,TRUE,j,j,NA,NA,NA,1,6,"6,3,10,9,1,7,8,11,4,12,15,14,13,2,5"
15139,commdev-image-keyboard-response,546,1233676,learnblock2,674,img/planet9_left.png,9,Community 1,NA,TRUE,f,f,NA,NA,NA,1,6,"6,3,10,9,1,7,8,11,4,12,15,14,13,2,5"
15139,commdev-image-keyboard-response,547,1234942,learnblock2,562,img/planet3_right.png,3,Community 1,NA,TRUE,j,j,NA,NA,NA,1,6,"6,3,10,9,1,7,8,11,4,12,15,14,13,2,5"
15139,commdev-image-keyboard-response,548,1236193,learnblock2,599,img/planet10_right.png,10,Community 1,NA,TRUE,j,j,NA,NA,NA,1,6,"6,3,10,9,1,7,8,11,4,12,15,14,13,2,5"
15139,commdev-image-keyboard-response,549,1237455,learnblock2,669,img/planet9_right.png,9,Community 1,NA,TRUE,j,j,NA,NA,NA,1,6,"6,3,10,9,1,7,8,11,4,12,15,14,13,2,5"
15139,commdev-image-keyboard-response,550,1238718,learnblock2,597,img/planet6_left.png,6,Community 1,NA,TRUE,f,f,NA,NA,NA,1,6,"6,3,10,9,1,7,8,11,4,12,15,14,13,2,5"
15139,commdev-image-keyboard-response,551,1239979,learnblock2,591,img/planet9_left.png,9,Community 1,NA,TRUE,f,f,NA,NA,NA,1,6,"6,3,10,9,1,7,8,11,4,12,15,14,13,2,5"
15139,commdev-image-keyboard-response,552,1241241,learnblock2,644,img/planet3_left.png,3,Community 1,NA,TRUE,f,f,NA,NA,NA,1,6,"6,3,10,9,1,7,8,11,4,12,15,14,13,2,5"
15139,commdev-image-keyboard-response,553,1242504,learnblock2,580,img/planet10_left.png,10,Community 1,NA,TRUE,f,f,NA,NA,NA,1,6,"6,3,10,9,1,7,8,11,4,12,15,14,13,2,5"
15139,commdev-image-keyboard-response,554,1243832,learnblock2,565,img/planet9_right.png,9,Community 1,NA,TRUE,j,j,NA,NA,NA,1,6,"6,3,10,9,1,7,8,11,4,12,15,14,13,2,5"
15139,commdev-image-keyboard-response,555,1245093,learnblock2,679,img/planet6_right.png,6,Community 1,NA,TRUE,j,j,NA,NA,NA,1,6,"6,3,10,9,1,7,8,11,4,12,15,14,13,2,5"
15139,commdev-image-keyboard-response,556,1246356,learnblock2,609,img/planet1_left.png,1,Community 1,NA,TRUE,f,f,NA,NA,NA,1,6,"6,3,10,9,1,7,8,11,4,12,15,14,13,2,5"
15139,commdev-image-keyboard-response,557,1247607,learnblock2,520,img/planet10_right.png,10,Community 1,NA,TRUE,j,j,NA,NA,NA,1,6,"6,3,10,9,1,7,8,11,4,12,15,14,13,2,5"
15139,commdev-image-keyboard-response,558,1248886,learnblock2,646,img/planet6_left.png,6,Community 1,NA,TRUE,f,f,NA,NA,NA,1,6,"6,3,10,9,1,7,8,11,4,12,15,14,13,2,5"
15139,commdev-image-keyboard-response,559,1250150,learnblock2,726,img/planet3_left.png,3,Community 1,NA,TRUE,f,f,NA,NA,NA,1,6,"6,3,10,9,1,7,8,11,4,12,15,14,13,2,5"
15139,commdev-image-keyboard-response,560,1251409,learnblock2,698,img/planet1_left.png,1,Community 1,NA,TRUE,f,f,NA,NA,NA,1,6,"6,3,10,9,1,7,8,11,4,12,15,14,13,2,5"
15139,commdev-image-keyboard-response,561,1252667,learnblock2,667,img/planet3_right.png,3,Community 1,NA,TRUE,j,j,NA,NA,NA,1,6,"6,3,10,9,1,7,8,11,4,12,15,14,13,2,5"
15139,commdev-image-keyboard-response,562,1253928,learnblock2,677,img/planet1_right.png,1,Community 1,NA,TRUE,j,j,NA,NA,NA,1,6,"6,3,10,9,1,7,8,11,4,12,15,14,13,2,5"
15139,commdev-image-keyboard-response,563,1255192,learnblock2,678,img/planet6_right.png,6,Community 1,NA,TRUE,j,j,NA,NA,NA,1,6,"6,3,10,9,1,7,8,11,4,12,15,14,13,2,5"
15139,commdev-image-keyboard-response,564,1256455,learnblock2,718,img/planet3_right.png,3,Community 1,NA,TRUE,j,j,NA,NA,NA,1,6,"6,3,10,9,1,7,8,11,4,12,15,14,13,2,5"
15139,commdev-image-keyboard-response,565,1257716,learnblock2,727,img/planet10_left.png,10,Community 1,NA,TRUE,f,f,NA,NA,NA,1,6,"6,3,10,9,1,7,8,11,4,12,15,14,13,2,5"
15139,commdev-image-keyboard-response,566,1258970,learnblock2,640,img/planet6_right.png,6,Community 1,NA,TRUE,j,j,NA,NA,NA,1,6,"6,3,10,9,1,7,8,11,4,12,15,14,13,2,5"
15139,commdev-image-keyboard-response,567,1260361,learnblock2,619,img/planet10_left.png,10,Community 1,NA,TRUE,f,f,NA,NA,NA,1,6,"6,3,10,9,1,7,8,11,4,12,15,14,13,2,5"
15139,commdev-image-keyboard-response,568,1261622,learnblock2,599,img/planet1_left.png,1,Community 1,NA,TRUE,f,f,NA,NA,NA,1,6,"6,3,10,9,1,7,8,11,4,12,15,14,13,2,5"
15139,commdev-image-keyboard-response,569,1262961,learnblock2,527,img/planet6_right.png,6,Community 1,NA,TRUE,j,j,NA,NA,NA,1,6,"6,3,10,9,1,7,8,11,4,12,15,14,13,2,5"
15139,commdev-image-keyboard-response,570,1264223,learnblock2,711,img/planet1_left.png,1,Community 1,NA,TRUE,f,f,NA,NA,NA,1,6,"6,3,10,9,1,7,8,11,4,12,15,14,13,2,5"
15139,commdev-image-keyboard-response,571,1265488,learnblock2,696,img/planet15_right.png,15,Community 3,NA,TRUE,j,j,NA,NA,NA,1,6,"6,3,10,9,1,7,8,11,4,12,15,14,13,2,5"
15139,commdev-image-keyboard-response,572,1266752,learnblock2,600,img/planet1_right.png,1,Community 1,NA,TRUE,j,j,NA,NA,NA,1,6,"6,3,10,9,1,7,8,11,4,12,15,14,13,2,5"
15139,commdev-image-keyboard-response,573,1268093,learnblock2,710,img/planet6_right.png,6,Community 1,NA,TRUE,j,j,NA,NA,NA,1,6,"6,3,10,9,1,7,8,11,4,12,15,14,13,2,5"
15139,commdev-image-keyboard-response,574,1269349,learnblock2,664,img/planet9_right.png,9,Community 1,NA,TRUE,j,j,NA,NA,NA,1,6,"6,3,10,9,1,7,8,11,4,12,15,14,13,2,5"
15139,commdev-image-keyboard-response,575,1270601,learnblock2,584,img/planet6_left.png,6,Community 1,NA,TRUE,f,f,NA,NA,NA,1,6,"6,3,10,9,1,7,8,11,4,12,15,14,13,2,5"
15139,commdev-image-keyboard-response,576,1271864,learnblock2,523,img/planet1_left.png,1,Community 1,NA,TRUE,f,f,NA,NA,NA,1,6,"6,3,10,9,1,7,8,11,4,12,15,14,13,2,5"
15139,commdev-image-keyboard-response,577,1273118,learnblock2,648,img/planet15_left.png,15,Community 3,NA,TRUE,f,f,NA,NA,NA,1,6,"6,3,10,9,1,7,8,11,4,12,15,14,13,2,5"
15139,commdev-image-keyboard-response,578,1274371,learnblock2,663,img/planet1_right.png,1,Community 1,NA,TRUE,j,j,NA,NA,NA,1,6,"6,3,10,9,1,7,8,11,4,12,15,14,13,2,5"
15139,commdev-image-keyboard-response,579,1275635,learnblock2,699,img/planet10_right.png,10,Community 1,NA,TRUE,j,j,NA,NA,NA,1,6,"6,3,10,9,1,7,8,11,4,12,15,14,13,2,5"
15139,commdev-image-keyboard-response,580,1276893,learnblock2,604,img/planet1_left.png,1,Community 1,NA,TRUE,f,f,NA,NA,NA,1,6,"6,3,10,9,1,7,8,11,4,12,15,14,13,2,5"
15139,commdev-image-keyboard-response,581,1278150,learnblock2,587,img/planet6_right.png,6,Community 1,NA,TRUE,j,j,NA,NA,NA,1,6,"6,3,10,9,1,7,8,11,4,12,15,14,13,2,5"
15139,commdev-image-keyboard-response,582,1279491,learnblock2,649,img/planet10_right.png,10,Community 1,NA,TRUE,j,j,NA,NA,NA,1,6,"6,3,10,9,1,7,8,11,4,12,15,14,13,2,5"
15139,commdev-image-keyboard-response,583,1280747,learnblock2,642,img/planet1_left.png,1,Community 1,NA,TRUE,f,f,NA,NA,NA,1,6,"6,3,10,9,1,7,8,11,4,12,15,14,13,2,5"
15139,commdev-image-keyboard-response,584,1282147,learnblock2,693,img/planet15_left.png,15,Community 3,NA,TRUE,f,f,NA,NA,NA,1,6,"6,3,10,9,1,7,8,11,4,12,15,14,13,2,5"
15139,commdev-image-keyboard-response,585,1283410,learnblock2,563,img/planet5_right.png,5,Community 3,NA,TRUE,j,j,NA,NA,NA,1,6,"6,3,10,9,1,7,8,11,4,12,15,14,13,2,5"
15139,commdev-image-keyboard-response,586,1284673,learnblock2,741,img/planet14_right.png,14,Community 3,NA,TRUE,j,j,NA,NA,NA,1,6,"6,3,10,9,1,7,8,11,4,12,15,14,13,2,5"
15139,commdev-image-keyboard-response,587,1285936,learnblock2,692,img/planet13_left.png,13,Community 3,NA,TRUE,f,f,NA,NA,NA,1,6,"6,3,10,9,1,7,8,11,4,12,15,14,13,2,5"
15139,commdev-image-keyboard-response,588,1287193,learnblock2,621,img/planet15_right.png,15,Community 3,NA,TRUE,j,j,NA,NA,NA,1,6,"6,3,10,9,1,7,8,11,4,12,15,14,13,2,5"
15139,commdev-image-keyboard-response,589,1288567,learnblock2,589,img/planet2_left.png,2,Community 3,NA,TRUE,f,f,NA,NA,NA,1,6,"6,3,10,9,1,7,8,11,4,12,15,14,13,2,5"
15139,commdev-image-keyboard-response,590,1289832,learnblock2,551,img/planet13_right.png,13,Community 3,NA,TRUE,j,j,NA,NA,NA,1,6,"6,3,10,9,1,7,8,11,4,12,15,14,13,2,5"
15139,commdev-image-keyboard-response,591,1291083,learnblock2,548,img/planet14_left.png,14,Community 3,NA,TRUE,f,f,NA,NA,NA,1,6,"6,3,10,9,1,7,8,11,4,12,15,14,13,2,5"
15139,commdev-image-keyboard-response,592,1292336,learnblock2,537,img/planet13_right.png,13,Community 3,NA,TRUE,j,j,NA,NA,NA,1,6,"6,3,10,9,1,7,8,11,4,12,15,14,13,2,5"
15139,commdev-image-keyboard-response,593,1293599,learnblock2,692,img/planet2_left.png,2,Community 3,NA,TRUE,f,f,NA,NA,NA,1,6,"6,3,10,9,1,7,8,11,4,12,15,14,13,2,5"
15139,commdev-image-keyboard-response,594,1294856,learnblock2,503,img/planet14_right.png,14,Community 3,NA,TRUE,j,j,NA,NA,NA,1,6,"6,3,10,9,1,7,8,11,4,12,15,14,13,2,5"
15139,commdev-image-keyboard-response,595,1296118,learnblock2,669,img/planet13_left.png,13,Community 3,NA,TRUE,f,f,NA,NA,NA,1,6,"6,3,10,9,1,7,8,11,4,12,15,14,13,2,5"
15139,commdev-image-keyboard-response,596,1297381,learnblock2,575,img/planet5_right.png,5,Community 3,NA,TRUE,j,j,NA,NA,NA,1,6,"6,3,10,9,1,7,8,11,4,12,15,14,13,2,5"
15139,commdev-image-keyboard-response,597,1298646,learnblock2,624,img/planet2_left.png,2,Community 3,NA,TRUE,f,f,NA,NA,NA,1,6,"6,3,10,9,1,7,8,11,4,12,15,14,13,2,5"
15139,commdev-image-keyboard-response,598,1300015,learnblock2,599,img/planet5_left.png,5,Community 3,NA,TRUE,f,f,NA,NA,NA,1,6,"6,3,10,9,1,7,8,11,4,12,15,14,13,2,5"
15139,commdev-image-keyboard-response,599,1301268,learnblock2,568,img/planet15_left.png,15,Community 3,NA,TRUE,f,f,NA,NA,NA,1,6,"6,3,10,9,1,7,8,11,4,12,15,14,13,2,5"
15139,commdev-image-keyboard-response,600,1302520,learnblock2,668,img/planet2_left.png,2,Community 3,NA,TRUE,f,f,NA,NA,NA,1,6,"6,3,10,9,1,7,8,11,4,12,15,14,13,2,5"
15139,commdev-image-keyboard-response,601,1303784,learnblock2,686,img/planet13_left.png,13,Community 3,NA,TRUE,f,f,NA,NA,NA,1,6,"6,3,10,9,1,7,8,11,4,12,15,14,13,2,5"
15139,commdev-image-keyboard-response,602,1305047,learnblock2,725,img/planet2_right.png,2,Community 3,NA,TRUE,j,j,NA,NA,NA,1,6,"6,3,10,9,1,7,8,11,4,12,15,14,13,2,5"
15139,commdev-image-keyboard-response,603,1306309,learnblock2,726,img/planet14_right.png,14,Community 3,NA,TRUE,j,j,NA,NA,NA,1,6,"6,3,10,9,1,7,8,11,4,12,15,14,13,2,5"
15139,commdev-image-keyboard-response,604,1307572,learnblock2,658,img/planet5_right.png,5,Community 3,NA,TRUE,j,j,NA,NA,NA,1,6,"6,3,10,9,1,7,8,11,4,12,15,14,13,2,5"
15139,commdev-image-keyboard-response,605,1308978,learnblock2,882,img/planet15_right.png,15,Community 3,NA,TRUE,j,j,NA,NA,NA,1,6,"6,3,10,9,1,7,8,11,4,12,15,14,13,2,5"
15139,commdev-image-keyboard-response,606,1310244,learnblock2,723,img/planet5_left.png,5,Community 3,NA,TRUE,f,f,NA,NA,NA,1,6,"6,3,10,9,1,7,8,11,4,12,15,14,13,2,5"
15139,commdev-image-keyboard-response,607,1311505,learnblock2,580,img/planet15_right.png,15,Community 3,NA,TRUE,j,j,NA,NA,NA,1,6,"6,3,10,9,1,7,8,11,4,12,15,14,13,2,5"
15139,commdev-image-keyboard-response,608,1312769,learnblock2,599,img/planet2_left.png,2,Community 3,NA,TRUE,f,f,NA,NA,NA,1,6,"6,3,10,9,1,7,8,11,4,12,15,14,13,2,5"
15139,commdev-image-keyboard-response,609,1314031,learnblock2,654,img/planet5_right.png,5,Community 3,NA,TRUE,j,j,NA,NA,NA,1,6,"6,3,10,9,1,7,8,11,4,12,15,14,13,2,5"
15139,commdev-image-keyboard-response,610,1315297,learnblock2,894,img/planet14_right.png,14,Community 3,NA,TRUE,j,j,NA,NA,NA,1,6,"6,3,10,9,1,7,8,11,4,12,15,14,13,2,5"
15139,commdev-image-keyboard-response,611,1316558,learnblock2,1099,img/planet11_right.png,11,Community 2,NA,TRUE,j,j,NA,NA,NA,1,6,"6,3,10,9,1,7,8,11,4,12,15,14,13,2,5"
15139,commdev-image-keyboard-response,612,1317819,learnblock2,622,img/planet12_left.png,12,Community 2,NA,TRUE,f,f,NA,NA,NA,1,6,"6,3,10,9,1,7,8,11,4,12,15,14,13,2,5"
15139,commdev-image-keyboard-response,613,1319072,learnblock2,802,img/planet7_left.png,7,Community 2,NA,TRUE,f,f,NA,NA,NA,1,6,"6,3,10,9,1,7,8,11,4,12,15,14,13,2,5"
15139,commdev-image-keyboard-response,614,1320332,learnblock2,846,img/planet4_left.png,4,Community 2,NA,TRUE,f,f,NA,NA,NA,1,6,"6,3,10,9,1,7,8,11,4,12,15,14,13,2,5"
15139,commdev-image-keyboard-response,615,1321598,learnblock2,898,img/planet7_left.png,7,Community 2,NA,TRUE,f,f,NA,NA,NA,1,6,"6,3,10,9,1,7,8,11,4,12,15,14,13,2,5"
15139,commdev-image-keyboard-response,616,1322861,learnblock2,1031,img/planet8_left.png,8,Community 2,NA,TRUE,f,f,NA,NA,NA,1,6,"6,3,10,9,1,7,8,11,4,12,15,14,13,2,5"
15139,commdev-image-keyboard-response,617,1324125,learnblock2,924,img/planet4_left.png,4,Community 2,NA,TRUE,f,f,NA,NA,NA,1,6,"6,3,10,9,1,7,8,11,4,12,15,14,13,2,5"
15139,commdev-image-keyboard-response,618,1325391,learnblock2,799,img/planet11_left.png,11,Community 2,NA,TRUE,f,f,NA,NA,NA,1,6,"6,3,10,9,1,7,8,11,4,12,15,14,13,2,5"
15139,commdev-image-keyboard-response,619,1326645,learnblock2,704,img/planet12_right.png,12,Community 2,NA,TRUE,j,j,NA,NA,NA,1,6,"6,3,10,9,1,7,8,11,4,12,15,14,13,2,5"
15139,commdev-image-keyboard-response,620,1327905,learnblock2,617,img/planet7_left.png,7,Community 2,NA,TRUE,f,f,NA,NA,NA,1,6,"6,3,10,9,1,7,8,11,4,12,15,14,13,2,5"
15139,commdev-image-keyboard-response,621,1329168,learnblock2,654,img/planet12_left.png,12,Community 2,NA,TRUE,f,f,NA,NA,NA,1,6,"6,3,10,9,1,7,8,11,4,12,15,14,13,2,5"
15139,commdev-image-keyboard-response,622,1330565,learnblock2,614,img/planet8_right.png,8,Community 2,NA,TRUE,j,j,NA,NA,NA,1,6,"6,3,10,9,1,7,8,11,4,12,15,14,13,2,5"
15139,commdev-image-keyboard-response,623,1331822,learnblock2,576,img/planet11_left.png,11,Community 2,NA,TRUE,f,f,NA,NA,NA,1,6,"6,3,10,9,1,7,8,11,4,12,15,14,13,2,5"
15139,commdev-image-keyboard-response,624,1333084,learnblock2,513,img/planet12_right.png,12,Community 2,NA,TRUE,j,j,NA,NA,NA,1,6,"6,3,10,9,1,7,8,11,4,12,15,14,13,2,5"
