subject_id,trial_type,trial_index,time_elapsed,block,rt,stimulus,planet,community,response,correct,key_press,learning_correct_response,parse,init_locations,final_locations,browser_interactions,num_comp,planet_map
14152,commdev-instructions,7,40573,NA,2779.0149999782443,"<p>In this game, you will be shown a 3x3 grid of patterns.</p> <p>The last one in the bottom right-hand corner, <strong>will be missing:</strong></p> <div style='width: 700px;'><div style='float: top;'><img style='width: 200px;' src='practice/p1_M1.png'></img><p class='small'>You need to select<strong> which of the four possible patterns </strong>along the bottom<strong> fits into the gap:</strong></p></div><div style='float: top;'><img style='width: 300px;' src='practice/p1_T1.png'></img></div><br>",NA,NA,NA,NA,NA,NA,NA,NA,NA,34,7,"2,11,9,6,15,12,5,8,4,10,13,1,14,7,3"
14152,commdev-instructions,8,60380,NA,1567.1700001694262,"<p>Try to be as fast and as accurate as you can be.</p> <p>If you cannot solve the puzzle then you should guess - you will not be penalised for an incorrect answer.</p> <p>The task contains a shuffled mix of easy, medium and hard puzzles.</p> <p>You will have <strong>30 seconds</strong> to complete each puzzle.</p><br>",NA,NA,NA,NA,NA,NA,NA,NA,NA,34,7,"2,11,9,6,15,12,5,8,4,10,13,1,14,7,3"
14152,commdev-instructions,17,95907,NA,1139.035000000149,<p><strong>Success!</strong></p> <p>You seem to be getting the hang of this...</p> <p>Let's move on to the real trials.</p><br>,NA,NA,NA,NA,NA,NA,NA,NA,NA,34,7,"2,11,9,6,15,12,5,8,4,10,13,1,14,7,3"
14152,commdev-instructions,109,588986,NA,1144.8500000406057,"<p>In this game, you are a scientist on board a space shuttle. </p><p> On each mission, you will visit planets all across the universe.</p><img src=""img/controlroom.jpg"" width=300vw>",NA,NA,NA,NA,NA,NA,NA,NA,NA,34,7,"2,11,9,6,15,12,5,8,4,10,13,1,14,7,3"
14152,commdev-instructions,110,593554,NA,2491.274999920279,"<p>Here are a few planets you might see:</p><img src=""img/practice1.png"" width=200vw><img src=""img/practice2.png"" width=200vw><img src=""img/practice3.png"" width=200vw>",NA,NA,NA,NA,NA,NA,NA,NA,NA,34,7,"2,11,9,6,15,12,5,8,4,10,13,1,14,7,3"
14152,commdev-instructions,111,602505,NA,1551.0350000113249,"<p>Your job as a scientist is to record which direction the winds are moving on each planet.</p><p>There are two types of wind directions:</p><img src=""img/practice1_left.png"" width=200vw><img src=""img/practice1_right.png"" width=200vw>",NA,NA,NA,NA,NA,NA,NA,NA,NA,34,7,"2,11,9,6,15,12,5,8,4,10,13,1,14,7,3"
14152,commdev-instructions,112,608322,NA,936.1449999269098,"<p>If the winds are moving this way, press the letter <strong>F</strong> on the keyboard as fast as you can.</p><img src=""img/leftwind.png"" width=250vw>",NA,NA,NA,NA,NA,NA,NA,NA,NA,34,7,"2,11,9,6,15,12,5,8,4,10,13,1,14,7,3"
14152,commdev-instructions,113,614632,NA,1813.6999998241663,"<p>If the winds are moving this way, press the letter <strong>J</strong> on the keyboard as fast as you can.</p><img src=""img/rightwind.png"" width=350vw>",NA,NA,NA,NA,NA,NA,NA,NA,NA,34,7,"2,11,9,6,15,12,5,8,4,10,13,1,14,7,3"
14152,commdev-instructions,114,631224,NA,12165.264999959618,<p>You will have 1 second to respond. Try to respond before the time runs out!,NA,NA,NA,NA,NA,NA,NA,NA,NA,34,7,"2,11,9,6,15,12,5,8,4,10,13,1,14,7,3"
14152,commdev-instructions,115,638864,NA,2210.6149999890476,<p>The planets you will visit will look different from each other.</p><p>You should respond <strong>only</strong> based on wind direction.,NA,NA,NA,NA,NA,NA,NA,NA,NA,34,7,"2,11,9,6,15,12,5,8,4,10,13,1,14,7,3"
14152,commdev-instructions,116,646232,NA,2200.3099999856204,"<p> Ready to start the practice round? </p><p> Remember, press <strong>F</strong> or <strong>J</strong> depending on the wind direction.<br><img src=""img/categorize_planet_example.png""",NA,NA,NA,NA,NA,NA,NA,NA,NA,34,7,"2,11,9,6,15,12,5,8,4,10,13,1,14,7,3"
14152,commdev-instructions,128,696374,NA,946.6250000987202,"<p>Great, now try a short practice mission. </p><p> This time, you will have 1 second to respond and you won't know whether you pressed the right or wrong key for each planet.</p>",NA,NA,NA,NA,NA,NA,NA,NA,NA,34,7,"2,11,9,6,15,12,5,8,4,10,13,1,14,7,3"
14152,commdev-image-keyboard-response,129,697727,practice,822.165000019595,img/practice4_left.png,NA,Number not found in mappings,NA,TRUE,f,f,NA,NA,NA,34,7,"2,11,9,6,15,12,5,8,4,10,13,1,14,7,3"
14152,commdev-image-keyboard-response,130,698983,practice,858.974999981001,img/practice2_right.png,NA,Number not found in mappings,NA,TRUE,j,j,NA,NA,NA,34,7,"2,11,9,6,15,12,5,8,4,10,13,1,14,7,3"
14152,commdev-image-keyboard-response,131,700237,practice,593.5100000351667,img/practice4_left.png,NA,Number not found in mappings,NA,TRUE,f,f,NA,NA,NA,34,7,"2,11,9,6,15,12,5,8,4,10,13,1,14,7,3"
14152,commdev-image-keyboard-response,132,701492,practice,329.39499989151955,img/practice1_left.png,NA,Number not found in mappings,NA,FALSE,j,f,NA,NA,NA,34,7,"2,11,9,6,15,12,5,8,4,10,13,1,14,7,3"
14152,commdev-image-keyboard-response,133,702743,practice,1024.1350000724196,img/practice2_right.png,NA,Number not found in mappings,NA,TRUE,j,j,NA,NA,NA,34,7,"2,11,9,6,15,12,5,8,4,10,13,1,14,7,3"
14152,commdev-image-keyboard-response,134,703994,practice,642.5949998665601,img/practice1_left.png,NA,Number not found in mappings,NA,TRUE,f,f,NA,NA,NA,34,7,"2,11,9,6,15,12,5,8,4,10,13,1,14,7,3"
14152,commdev-image-keyboard-response,135,705248,practice,606.3699999358505,img/practice2_left.png,NA,Number not found in mappings,NA,TRUE,f,f,NA,NA,NA,34,7,"2,11,9,6,15,12,5,8,4,10,13,1,14,7,3"
14152,commdev-image-keyboard-response,136,706499,practice,538.0400000140071,img/practice4_left.png,NA,Number not found in mappings,NA,TRUE,f,f,NA,NA,NA,34,7,"2,11,9,6,15,12,5,8,4,10,13,1,14,7,3"
14152,commdev-instructions,137,717550,NA,1498.145000077784,"<p>Great job with the practice round.</p><p>During real missions, you won't know whether you pressed the right or wrong key for each planet.</p><p>But between missions, we will tell you how you did overall.</p>",NA,NA,NA,NA,NA,NA,NA,NA,NA,34,7,"2,11,9,6,15,12,5,8,4,10,13,1,14,7,3"
14152,commdev-instructions,138,726685,NA,898.4999998938292,<p>Try your best! You will be paid a bonus based on how many correct responses you make!</p><p>Responses that are too slow will not count toward your bonus.</p>,NA,NA,NA,NA,NA,NA,NA,NA,NA,34,7,"2,11,9,6,15,12,5,8,4,10,13,1,14,7,3"
14152,commdev-instructions,139,733836,NA,950.999999884516,"<p>You are almost ready to start the real game.</p><p> First, we are going to ask you some questions about how the game works.</p>",NA,NA,NA,NA,NA,NA,NA,NA,NA,34,7,"2,11,9,6,15,12,5,8,4,10,13,1,14,7,3"
14152,commdev-instructions,148,812681,NA,3091.095000039786,"<p> Nice work! It is now time to start the real game.<p></p>You will go on two missions to record wind directions of different planets.<p></p>Each one will take about 5 minutes. You will get to take a break between missions.<p><p> Remember, press <strong>F</strong> or <strong>J</strong> depending on the wind direction. Good luck!<br><img src=""img/categorize_planet_example.png""",NA,NA,NA,NA,NA,NA,NA,NA,NA,34,7,"2,11,9,6,15,12,5,8,4,10,13,1,14,7,3"
14152,commdev-image-keyboard-response,150,816778,learnblock1,58.77500004135072,img/planet2_left.png,2,Community 1,NA,TRUE,f,f,NA,NA,NA,34,7,"2,11,9,6,15,12,5,8,4,10,13,1,14,7,3"
14152,commdev-image-keyboard-response,151,818033,learnblock1,1026.6849999316037,img/planet11_left.png,11,Community 1,NA,TRUE,f,f,NA,NA,NA,34,7,"2,11,9,6,15,12,5,8,4,10,13,1,14,7,3"
14152,commdev-image-keyboard-response,152,819284,learnblock1,746.4550000149757,img/planet2_right.png,2,Community 1,NA,TRUE,j,j,NA,NA,NA,34,7,"2,11,9,6,15,12,5,8,4,10,13,1,14,7,3"
14152,commdev-image-keyboard-response,153,820535,learnblock1,815.1800001505762,img/planet11_right.png,11,Community 1,NA,TRUE,j,j,NA,NA,NA,34,7,"2,11,9,6,15,12,5,8,4,10,13,1,14,7,3"
14152,commdev-image-keyboard-response,154,821788,learnblock1,929.194999858737,img/planet6_right.png,6,Community 1,NA,TRUE,j,j,NA,NA,NA,34,7,"2,11,9,6,15,12,5,8,4,10,13,1,14,7,3"
14152,commdev-image-keyboard-response,155,823039,learnblock1,680.0049999728799,img/planet12_left.png,12,Community 2,NA,TRUE,f,f,NA,NA,NA,34,7,"2,11,9,6,15,12,5,8,4,10,13,1,14,7,3"
14152,commdev-image-keyboard-response,156,824292,learnblock1,629.7999999951571,img/planet5_left.png,5,Community 2,NA,FALSE,j,f,NA,NA,NA,34,7,"2,11,9,6,15,12,5,8,4,10,13,1,14,7,3"
14152,commdev-image-keyboard-response,157,825544,learnblock1,1146.7699999921024,img/planet12_right.png,12,Community 2,NA,TRUE,j,j,NA,NA,NA,34,7,"2,11,9,6,15,12,5,8,4,10,13,1,14,7,3"
14152,commdev-image-keyboard-response,158,826796,learnblock1,750.0249999575317,img/planet5_right.png,5,Community 2,NA,TRUE,j,j,NA,NA,NA,34,7,"2,11,9,6,15,12,5,8,4,10,13,1,14,7,3"
14152,commdev-image-keyboard-response,159,828048,learnblock1,1132.5250000227243,img/planet10_right.png,10,Community 2,NA,TRUE,j,j,NA,NA,NA,34,7,"2,11,9,6,15,12,5,8,4,10,13,1,14,7,3"
14152,commdev-image-keyboard-response,160,829301,learnblock1,855.6150000076741,img/planet4_left.png,4,Community 2,NA,TRUE,f,f,NA,NA,NA,34,7,"2,11,9,6,15,12,5,8,4,10,13,1,14,7,3"
14152,commdev-image-keyboard-response,161,830553,learnblock1,892.5650001037866,img/planet12_right.png,12,Community 2,NA,TRUE,j,j,NA,NA,NA,34,7,"2,11,9,6,15,12,5,8,4,10,13,1,14,7,3"
14152,commdev-image-keyboard-response,162,831805,learnblock1,585.4499998968095,img/planet5_left.png,5,Community 2,NA,TRUE,f,f,NA,NA,NA,34,7,"2,11,9,6,15,12,5,8,4,10,13,1,14,7,3"
14152,commdev-image-keyboard-response,163,833059,learnblock1,458.0500000156462,img/planet10_right.png,10,Community 2,NA,TRUE,j,j,NA,NA,NA,34,7,"2,11,9,6,15,12,5,8,4,10,13,1,14,7,3"
14152,commdev-image-keyboard-response,164,834311,learnblock1,974.8800001107156,img/planet12_right.png,12,Community 2,NA,TRUE,j,j,NA,NA,NA,34,7,"2,11,9,6,15,12,5,8,4,10,13,1,14,7,3"
14152,commdev-image-keyboard-response,165,835565,learnblock1,637.4200000427663,img/planet6_left.png,6,Community 1,NA,TRUE,f,f,NA,NA,NA,34,7,"2,11,9,6,15,12,5,8,4,10,13,1,14,7,3"
14152,commdev-image-keyboard-response,166,836818,learnblock1,584.3299999833107,img/planet12_left.png,12,Community 2,NA,FALSE,j,f,NA,NA,NA,34,7,"2,11,9,6,15,12,5,8,4,10,13,1,14,7,3"
14152,commdev-image-keyboard-response,167,838069,learnblock1,799.8599999118596,img/planet6_left.png,6,Community 1,NA,TRUE,f,f,NA,NA,NA,34,7,"2,11,9,6,15,12,5,8,4,10,13,1,14,7,3"
14152,commdev-image-keyboard-response,168,839320,learnblock1,734.3849998433143,img/planet9_left.png,9,Community 1,NA,TRUE,f,f,NA,NA,NA,34,7,"2,11,9,6,15,12,5,8,4,10,13,1,14,7,3"
14152,commdev-image-keyboard-response,169,840576,learnblock1,607.700000051409,img/planet2_left.png,2,Community 1,NA,TRUE,f,f,NA,NA,NA,34,7,"2,11,9,6,15,12,5,8,4,10,13,1,14,7,3"
14152,commdev-image-keyboard-response,170,841830,learnblock1,702.1500000264496,img/planet11_right.png,11,Community 1,NA,FALSE,f,j,NA,NA,NA,34,7,"2,11,9,6,15,12,5,8,4,10,13,1,14,7,3"
14152,commdev-image-keyboard-response,171,843084,learnblock1,753.095000050962,img/planet2_left.png,2,Community 1,NA,TRUE,f,f,NA,NA,NA,34,7,"2,11,9,6,15,12,5,8,4,10,13,1,14,7,3"
14152,commdev-image-keyboard-response,172,844335,learnblock1,744.6950001176447,img/planet9_right.png,9,Community 1,NA,TRUE,j,j,NA,NA,NA,34,7,"2,11,9,6,15,12,5,8,4,10,13,1,14,7,3"
14152,commdev-image-keyboard-response,173,845588,learnblock1,708.1849998794496,img/planet15_right.png,15,Community 1,NA,FALSE,f,j,NA,NA,NA,34,7,"2,11,9,6,15,12,5,8,4,10,13,1,14,7,3"
14152,commdev-image-keyboard-response,174,846839,learnblock1,1195.6849999260157,img/planet2_right.png,2,Community 1,NA,TRUE,j,j,NA,NA,NA,34,7,"2,11,9,6,15,12,5,8,4,10,13,1,14,7,3"
14152,commdev-image-keyboard-response,175,848092,learnblock1,1144.920000107959,img/planet11_right.png,11,Community 1,NA,TRUE,j,j,NA,NA,NA,34,7,"2,11,9,6,15,12,5,8,4,10,13,1,14,7,3"
14152,commdev-image-keyboard-response,176,849344,learnblock1,null,img/planet2_right.png,2,Community 1,NA,FALSE,null,j,NA,NA,NA,34,7,"2,11,9,6,15,12,5,8,4,10,13,1,14,7,3"
14152,commdev-image-keyboard-response,177,850597,learnblock1,18.400000175461173,img/planet15_left.png,15,Community 1,NA,FALSE,j,f,NA,NA,NA,34,7,"2,11,9,6,15,12,5,8,4,10,13,1,14,7,3"
14152,commdev-image-keyboard-response,178,851847,learnblock1,671.5500000864267,img/planet9_right.png,9,Community 1,NA,TRUE,j,j,NA,NA,NA,34,7,"2,11,9,6,15,12,5,8,4,10,13,1,14,7,3"
14152,commdev-image-keyboard-response,179,853099,learnblock1,755.6050000712276,img/planet6_right.png,6,Community 1,NA,TRUE,j,j,NA,NA,NA,34,7,"2,11,9,6,15,12,5,8,4,10,13,1,14,7,3"
14152,commdev-image-keyboard-response,180,854353,learnblock1,793.7749999109656,img/planet2_right.png,2,Community 1,NA,TRUE,j,j,NA,NA,NA,34,7,"2,11,9,6,15,12,5,8,4,10,13,1,14,7,3"
14152,commdev-image-keyboard-response,181,855606,learnblock1,800.2649999689311,img/planet6_left.png,6,Community 1,NA,FALSE,j,f,NA,NA,NA,34,7,"2,11,9,6,15,12,5,8,4,10,13,1,14,7,3"
14152,commdev-image-keyboard-response,182,856861,learnblock1,897.724999813363,img/planet2_left.png,2,Community 1,NA,TRUE,f,f,NA,NA,NA,34,7,"2,11,9,6,15,12,5,8,4,10,13,1,14,7,3"
14152,commdev-image-keyboard-response,183,858112,learnblock1,691.8000001460314,img/planet6_right.png,6,Community 1,NA,TRUE,j,j,NA,NA,NA,34,7,"2,11,9,6,15,12,5,8,4,10,13,1,14,7,3"
14152,commdev-image-keyboard-response,184,859366,learnblock1,775.4299999214709,img/planet2_left.png,2,Community 1,NA,TRUE,f,f,NA,NA,NA,34,7,"2,11,9,6,15,12,5,8,4,10,13,1,14,7,3"
14152,commdev-image-keyboard-response,185,860617,learnblock1,797.0650000497699,img/planet9_left.png,9,Community 1,NA,TRUE,f,f,NA,NA,NA,34,7,"2,11,9,6,15,12,5,8,4,10,13,1,14,7,3"
14152,commdev-image-keyboard-response,186,861869,learnblock1,790.0999998673797,img/planet11_right.png,11,Community 1,NA,TRUE,j,j,NA,NA,NA,34,7,"2,11,9,6,15,12,5,8,4,10,13,1,14,7,3"
14152,commdev-image-keyboard-response,187,863123,learnblock1,544.0750000998378,img/planet15_right.png,15,Community 1,NA,FALSE,f,j,NA,NA,NA,34,7,"2,11,9,6,15,12,5,8,4,10,13,1,14,7,3"
14152,commdev-image-keyboard-response,188,864376,learnblock1,1075.3499998245388,img/planet9_right.png,9,Community 1,NA,TRUE,j,j,NA,NA,NA,34,7,"2,11,9,6,15,12,5,8,4,10,13,1,14,7,3"
14152,commdev-image-keyboard-response,189,865631,learnblock1,null,img/planet11_right.png,11,Community 1,NA,FALSE,null,j,NA,NA,NA,34,7,"2,11,9,6,15,12,5,8,4,10,13,1,14,7,3"
14152,commdev-image-keyboard-response,190,866884,learnblock1,21.42999996431172,img/planet6_right.png,6,Community 1,NA,TRUE,j,j,NA,NA,NA,34,7,"2,11,9,6,15,12,5,8,4,10,13,1,14,7,3"
14152,commdev-image-keyboard-response,191,868138,learnblock1,823.4250000678003,img/planet11_left.png,11,Community 1,NA,TRUE,f,f,NA,NA,NA,34,7,"2,11,9,6,15,12,5,8,4,10,13,1,14,7,3"
14152,commdev-image-keyboard-response,192,869393,learnblock1,919.6849998552352,img/planet9_left.png,9,Community 1,NA,TRUE,f,f,NA,NA,NA,34,7,"2,11,9,6,15,12,5,8,4,10,13,1,14,7,3"
14152,commdev-image-keyboard-response,193,870644,learnblock1,699.8650000896305,img/planet6_left.png,6,Community 1,NA,TRUE,f,f,NA,NA,NA,34,7,"2,11,9,6,15,12,5,8,4,10,13,1,14,7,3"
14152,commdev-image-keyboard-response,194,871895,learnblock1,858.2099999766797,img/planet9_left.png,9,Community 1,NA,TRUE,f,f,NA,NA,NA,34,7,"2,11,9,6,15,12,5,8,4,10,13,1,14,7,3"
14152,commdev-image-keyboard-response,195,873148,learnblock1,656.7949999589473,img/planet2_right.png,2,Community 1,NA,TRUE,j,j,NA,NA,NA,34,7,"2,11,9,6,15,12,5,8,4,10,13,1,14,7,3"
14152,commdev-image-keyboard-response,196,874401,learnblock1,679.9999999348074,img/planet9_right.png,9,Community 1,NA,TRUE,j,j,NA,NA,NA,34,7,"2,11,9,6,15,12,5,8,4,10,13,1,14,7,3"
14152,commdev-image-keyboard-response,197,875657,learnblock1,686.6200000513345,img/planet2_left.png,2,Community 1,NA,FALSE,j,f,NA,NA,NA,34,7,"2,11,9,6,15,12,5,8,4,10,13,1,14,7,3"
14152,commdev-image-keyboard-response,198,876912,learnblock1,810.4300000704825,img/planet11_right.png,11,Community 1,NA,TRUE,j,j,NA,NA,NA,34,7,"2,11,9,6,15,12,5,8,4,10,13,1,14,7,3"
14152,commdev-image-keyboard-response,199,878163,learnblock1,980.6950001511723,img/planet15_right.png,15,Community 1,NA,TRUE,j,j,NA,NA,NA,34,7,"2,11,9,6,15,12,5,8,4,10,13,1,14,7,3"
14152,commdev-image-keyboard-response,200,879417,learnblock1,793.830000096932,img/planet9_right.png,9,Community 1,NA,TRUE,j,j,NA,NA,NA,34,7,"2,11,9,6,15,12,5,8,4,10,13,1,14,7,3"
14152,commdev-image-keyboard-response,201,880669,learnblock1,875.3100000321865,img/planet6_left.png,6,Community 1,NA,TRUE,f,f,NA,NA,NA,34,7,"2,11,9,6,15,12,5,8,4,10,13,1,14,7,3"
14152,commdev-image-keyboard-response,202,881920,learnblock1,673.8249999471009,img/planet12_left.png,12,Community 2,NA,TRUE,f,f,NA,NA,NA,34,7,"2,11,9,6,15,12,5,8,4,10,13,1,14,7,3"
14152,commdev-image-keyboard-response,203,883171,learnblock1,742.4449999816716,img/planet10_left.png,10,Community 2,NA,TRUE,f,f,NA,NA,NA,34,7,"2,11,9,6,15,12,5,8,4,10,13,1,14,7,3"
14152,commdev-image-keyboard-response,204,884423,learnblock1,736.9300001300871,img/planet8_left.png,8,Community 2,NA,TRUE,f,f,NA,NA,NA,34,7,"2,11,9,6,15,12,5,8,4,10,13,1,14,7,3"
14152,commdev-image-keyboard-response,205,885674,learnblock1,834.0799999423325,img/planet4_left.png,4,Community 2,NA,TRUE,f,f,NA,NA,NA,34,7,"2,11,9,6,15,12,5,8,4,10,13,1,14,7,3"
14152,commdev-image-keyboard-response,206,886928,learnblock1,812.9399998579174,img/planet8_right.png,8,Community 2,NA,TRUE,j,j,NA,NA,NA,34,7,"2,11,9,6,15,12,5,8,4,10,13,1,14,7,3"
14152,commdev-image-keyboard-response,207,888178,learnblock1,804.1850000154227,img/planet5_left.png,5,Community 2,NA,TRUE,f,f,NA,NA,NA,34,7,"2,11,9,6,15,12,5,8,4,10,13,1,14,7,3"
14152,commdev-image-keyboard-response,208,889432,learnblock1,814.0600000042468,img/planet4_left.png,4,Community 2,NA,FALSE,j,f,NA,NA,NA,34,7,"2,11,9,6,15,12,5,8,4,10,13,1,14,7,3"
14152,commdev-image-keyboard-response,209,890686,learnblock1,805.1149998791516,img/planet5_left.png,5,Community 2,NA,TRUE,f,f,NA,NA,NA,34,7,"2,11,9,6,15,12,5,8,4,10,13,1,14,7,3"
14152,commdev-image-keyboard-response,210,891938,learnblock1,736.3350000232458,img/planet8_left.png,8,Community 2,NA,TRUE,f,f,NA,NA,NA,34,7,"2,11,9,6,15,12,5,8,4,10,13,1,14,7,3"
14152,commdev-image-keyboard-response,211,893188,learnblock1,729.774999897927,img/planet5_right.png,5,Community 2,NA,TRUE,j,j,NA,NA,NA,34,7,"2,11,9,6,15,12,5,8,4,10,13,1,14,7,3"
14152,commdev-image-keyboard-response,212,894442,learnblock1,738.1450000684708,img/planet12_right.png,12,Community 2,NA,TRUE,j,j,NA,NA,NA,34,7,"2,11,9,6,15,12,5,8,4,10,13,1,14,7,3"
14152,commdev-image-keyboard-response,213,895693,learnblock1,835.0899999495596,img/planet10_right.png,10,Community 2,NA,TRUE,j,j,NA,NA,NA,34,7,"2,11,9,6,15,12,5,8,4,10,13,1,14,7,3"
14152,commdev-image-keyboard-response,214,896944,learnblock1,1084.2349999584258,img/planet4_right.png,4,Community 2,NA,TRUE,j,j,NA,NA,NA,34,7,"2,11,9,6,15,12,5,8,4,10,13,1,14,7,3"
14152,commdev-image-keyboard-response,215,898197,learnblock1,1182.960000121966,img/planet12_right.png,12,Community 2,NA,TRUE,j,j,NA,NA,NA,34,7,"2,11,9,6,15,12,5,8,4,10,13,1,14,7,3"
14152,commdev-image-keyboard-response,216,899453,learnblock1,965.1599999051541,img/planet10_right.png,10,Community 2,NA,TRUE,j,j,NA,NA,NA,34,7,"2,11,9,6,15,12,5,8,4,10,13,1,14,7,3"
14152,commdev-image-keyboard-response,217,900704,learnblock1,1149.144999915734,img/planet4_left.png,4,Community 2,NA,TRUE,f,f,NA,NA,NA,34,7,"2,11,9,6,15,12,5,8,4,10,13,1,14,7,3"
14152,commdev-image-keyboard-response,218,901957,learnblock1,888.2650001905859,img/planet12_left.png,12,Community 2,NA,TRUE,f,f,NA,NA,NA,34,7,"2,11,9,6,15,12,5,8,4,10,13,1,14,7,3"
14152,commdev-image-keyboard-response,219,903211,learnblock1,850.2100000623614,img/planet4_right.png,4,Community 2,NA,TRUE,j,j,NA,NA,NA,34,7,"2,11,9,6,15,12,5,8,4,10,13,1,14,7,3"
14152,commdev-image-keyboard-response,220,904463,learnblock1,601.0249999817461,img/planet10_left.png,10,Community 2,NA,TRUE,f,f,NA,NA,NA,34,7,"2,11,9,6,15,12,5,8,4,10,13,1,14,7,3"
14152,commdev-image-keyboard-response,221,905717,learnblock1,564.1900000628084,img/planet12_right.png,12,Community 2,NA,TRUE,j,j,NA,NA,NA,34,7,"2,11,9,6,15,12,5,8,4,10,13,1,14,7,3"
14152,commdev-image-keyboard-response,222,906972,learnblock1,524.9049998819828,img/planet5_left.png,5,Community 2,NA,TRUE,f,f,NA,NA,NA,34,7,"2,11,9,6,15,12,5,8,4,10,13,1,14,7,3"
14152,commdev-image-keyboard-response,223,908225,learnblock1,544.0749998670071,img/planet10_right.png,10,Community 2,NA,TRUE,j,j,NA,NA,NA,34,7,"2,11,9,6,15,12,5,8,4,10,13,1,14,7,3"
14152,commdev-image-keyboard-response,224,909476,learnblock1,311.25500006601214,img/planet4_right.png,4,Community 2,NA,FALSE,f,j,NA,NA,NA,34,7,"2,11,9,6,15,12,5,8,4,10,13,1,14,7,3"
14152,commdev-image-keyboard-response,225,910727,learnblock1,965.1899999007583,img/planet12_right.png,12,Community 2,NA,TRUE,j,j,NA,NA,NA,34,7,"2,11,9,6,15,12,5,8,4,10,13,1,14,7,3"
14152,commdev-image-keyboard-response,226,911982,learnblock1,974.1100000683218,img/planet4_right.png,4,Community 2,NA,TRUE,j,j,NA,NA,NA,34,7,"2,11,9,6,15,12,5,8,4,10,13,1,14,7,3"
14152,commdev-image-keyboard-response,227,913235,learnblock1,679.6099999919534,img/planet10_left.png,10,Community 2,NA,FALSE,j,f,NA,NA,NA,34,7,"2,11,9,6,15,12,5,8,4,10,13,1,14,7,3"
14152,commdev-image-keyboard-response,228,914488,learnblock1,986.2349999602884,img/planet5_right.png,5,Community 2,NA,TRUE,j,j,NA,NA,NA,34,7,"2,11,9,6,15,12,5,8,4,10,13,1,14,7,3"
14152,commdev-image-keyboard-response,229,915741,learnblock1,753.6400000099093,img/planet12_left.png,12,Community 2,NA,TRUE,f,f,NA,NA,NA,34,7,"2,11,9,6,15,12,5,8,4,10,13,1,14,7,3"
14152,commdev-image-keyboard-response,230,916992,learnblock1,641.0300000570714,img/planet10_left.png,10,Community 2,NA,FALSE,j,f,NA,NA,NA,34,7,"2,11,9,6,15,12,5,8,4,10,13,1,14,7,3"
14152,commdev-image-keyboard-response,231,918245,learnblock1,null,img/planet4_left.png,4,Community 2,NA,FALSE,null,f,NA,NA,NA,34,7,"2,11,9,6,15,12,5,8,4,10,13,1,14,7,3"
14152,commdev-image-keyboard-response,232,919500,learnblock1,1046.3350000791252,img/planet5_right.png,5,Community 2,NA,FALSE,f,j,NA,NA,NA,34,7,"2,11,9,6,15,12,5,8,4,10,13,1,14,7,3"
14152,commdev-image-keyboard-response,233,920751,learnblock1,781.6600000951439,img/planet12_right.png,12,Community 2,NA,TRUE,j,j,NA,NA,NA,34,7,"2,11,9,6,15,12,5,8,4,10,13,1,14,7,3"
14152,commdev-image-keyboard-response,234,922004,learnblock1,760.2800000458956,img/planet5_left.png,5,Community 2,NA,TRUE,f,f,NA,NA,NA,34,7,"2,11,9,6,15,12,5,8,4,10,13,1,14,7,3"
14152,commdev-image-keyboard-response,235,923260,learnblock1,616.9300000183284,img/planet4_right.png,4,Community 2,NA,TRUE,j,j,NA,NA,NA,34,7,"2,11,9,6,15,12,5,8,4,10,13,1,14,7,3"
14152,commdev-image-keyboard-response,236,924512,learnblock1,336.4249998703599,img/planet10_left.png,10,Community 2,NA,TRUE,f,f,NA,NA,NA,34,7,"2,11,9,6,15,12,5,8,4,10,13,1,14,7,3"
14152,commdev-image-keyboard-response,237,925765,learnblock1,509.044999955222,img/planet12_left.png,12,Community 2,NA,FALSE,j,f,NA,NA,NA,34,7,"2,11,9,6,15,12,5,8,4,10,13,1,14,7,3"
14152,commdev-image-keyboard-response,238,927016,learnblock1,740.3500000946224,img/planet6_left.png,6,Community 1,NA,TRUE,f,f,NA,NA,NA,34,7,"2,11,9,6,15,12,5,8,4,10,13,1,14,7,3"
14152,commdev-image-keyboard-response,239,928271,learnblock1,1065.279999980703,img/planet9_right.png,9,Community 1,NA,TRUE,j,j,NA,NA,NA,34,7,"2,11,9,6,15,12,5,8,4,10,13,1,14,7,3"
14152,commdev-image-keyboard-response,240,929526,learnblock1,785.2499999571592,img/planet2_left.png,2,Community 1,NA,TRUE,f,f,NA,NA,NA,34,7,"2,11,9,6,15,12,5,8,4,10,13,1,14,7,3"
14152,commdev-image-keyboard-response,241,930782,learnblock1,654.8599998932332,img/planet6_left.png,6,Community 1,NA,FALSE,j,f,NA,NA,NA,34,7,"2,11,9,6,15,12,5,8,4,10,13,1,14,7,3"
14152,commdev-image-keyboard-response,242,932037,learnblock1,1064.3799998797476,img/planet9_left.png,9,Community 1,NA,TRUE,f,f,NA,NA,NA,34,7,"2,11,9,6,15,12,5,8,4,10,13,1,14,7,3"
14152,commdev-image-keyboard-response,243,933291,learnblock1,784.4150001183152,img/planet2_right.png,2,Community 1,NA,TRUE,j,j,NA,NA,NA,34,7,"2,11,9,6,15,12,5,8,4,10,13,1,14,7,3"
14152,commdev-image-keyboard-response,244,934545,learnblock1,700.0899999402463,img/planet9_left.png,9,Community 1,NA,TRUE,f,f,NA,NA,NA,34,7,"2,11,9,6,15,12,5,8,4,10,13,1,14,7,3"
14152,commdev-image-keyboard-response,245,935800,learnblock1,900.8249999023974,img/planet11_left.png,11,Community 1,NA,TRUE,f,f,NA,NA,NA,34,7,"2,11,9,6,15,12,5,8,4,10,13,1,14,7,3"
14152,commdev-image-keyboard-response,246,937052,learnblock1,711.4750000182539,img/planet6_right.png,6,Community 1,NA,TRUE,j,j,NA,NA,NA,34,7,"2,11,9,6,15,12,5,8,4,10,13,1,14,7,3"
14152,commdev-image-keyboard-response,247,938305,learnblock1,673.5350000672042,img/planet9_left.png,9,Community 1,NA,TRUE,f,f,NA,NA,NA,34,7,"2,11,9,6,15,12,5,8,4,10,13,1,14,7,3"
14152,commdev-image-keyboard-response,248,939556,learnblock1,891.0550000146031,img/planet2_left.png,2,Community 1,NA,TRUE,f,f,NA,NA,NA,34,7,"2,11,9,6,15,12,5,8,4,10,13,1,14,7,3"
14152,commdev-image-keyboard-response,249,940810,learnblock1,690.4299999587238,img/planet6_right.png,6,Community 1,NA,TRUE,j,j,NA,NA,NA,34,7,"2,11,9,6,15,12,5,8,4,10,13,1,14,7,3"
14152,commdev-image-keyboard-response,250,942061,learnblock1,590.4299998655915,img/planet2_left.png,2,Community 1,NA,TRUE,f,f,NA,NA,NA,34,7,"2,11,9,6,15,12,5,8,4,10,13,1,14,7,3"
14152,commdev-image-keyboard-response,251,943316,learnblock1,810.4949998669326,img/planet15_right.png,15,Community 1,NA,FALSE,f,j,NA,NA,NA,34,7,"2,11,9,6,15,12,5,8,4,10,13,1,14,7,3"
14152,commdev-image-keyboard-response,252,944569,learnblock1,859.825000166893,img/planet11_right.png,11,Community 1,NA,FALSE,f,j,NA,NA,NA,34,7,"2,11,9,6,15,12,5,8,4,10,13,1,14,7,3"
14152,commdev-image-keyboard-response,253,945820,learnblock1,null,img/planet15_right.png,15,Community 1,NA,FALSE,null,j,NA,NA,NA,34,7,"2,11,9,6,15,12,5,8,4,10,13,1,14,7,3"
14152,commdev-image-keyboard-response,254,947071,learnblock1,79.33499990031123,img/planet11_right.png,11,Community 1,NA,TRUE,j,j,NA,NA,NA,34,7,"2,11,9,6,15,12,5,8,4,10,13,1,14,7,3"
14152,commdev-image-keyboard-response,255,948324,learnblock1,null,img/planet15_left.png,15,Community 1,NA,FALSE,null,f,NA,NA,NA,34,7,"2,11,9,6,15,12,5,8,4,10,13,1,14,7,3"
14152,commdev-image-keyboard-response,256,949579,learnblock1,null,img/planet11_left.png,11,Community 1,NA,FALSE,null,f,NA,NA,NA,34,7,"2,11,9,6,15,12,5,8,4,10,13,1,14,7,3"
14152,commdev-image-keyboard-response,257,950834,learnblock1,86.1049999948591,img/planet6_right.png,6,Community 1,NA,FALSE,f,j,NA,NA,NA,34,7,"2,11,9,6,15,12,5,8,4,10,13,1,14,7,3"
14152,commdev-image-keyboard-response,258,952087,learnblock1,856.059999903664,img/planet12_right.png,12,Community 2,NA,TRUE,j,j,NA,NA,NA,34,7,"2,11,9,6,15,12,5,8,4,10,13,1,14,7,3"
14152,commdev-image-keyboard-response,259,953340,learnblock1,578.6499998066574,img/planet4_left.png,4,Community 2,NA,TRUE,f,f,NA,NA,NA,34,7,"2,11,9,6,15,12,5,8,4,10,13,1,14,7,3"
14152,commdev-image-keyboard-response,260,954594,learnblock1,585.1650000549853,img/planet5_left.png,5,Community 2,NA,FALSE,j,f,NA,NA,NA,34,7,"2,11,9,6,15,12,5,8,4,10,13,1,14,7,3"
14152,commdev-image-keyboard-response,261,955847,learnblock1,696.025000186637,img/planet4_left.png,4,Community 2,NA,TRUE,f,f,NA,NA,NA,34,7,"2,11,9,6,15,12,5,8,4,10,13,1,14,7,3"
14152,commdev-image-keyboard-response,262,957101,learnblock1,823.219999903813,img/planet5_left.png,5,Community 2,NA,TRUE,f,f,NA,NA,NA,34,7,"2,11,9,6,15,12,5,8,4,10,13,1,14,7,3"
14152,commdev-image-keyboard-response,263,958354,learnblock1,829.2600000277162,img/planet4_left.png,4,Community 2,NA,TRUE,f,f,NA,NA,NA,34,7,"2,11,9,6,15,12,5,8,4,10,13,1,14,7,3"
14152,commdev-image-keyboard-response,264,959609,learnblock1,805.9849999845028,img/planet12_left.png,12,Community 2,NA,TRUE,f,f,NA,NA,NA,34,7,"2,11,9,6,15,12,5,8,4,10,13,1,14,7,3"
14152,commdev-image-keyboard-response,265,960864,learnblock1,646.1650000419468,img/planet10_left.png,10,Community 2,NA,TRUE,f,f,NA,NA,NA,34,7,"2,11,9,6,15,12,5,8,4,10,13,1,14,7,3"
14152,commdev-image-keyboard-response,266,962115,learnblock1,696.8750001396984,img/planet8_right.png,8,Community 2,NA,FALSE,f,j,NA,NA,NA,34,7,"2,11,9,6,15,12,5,8,4,10,13,1,14,7,3"
14152,commdev-image-keyboard-response,267,963365,learnblock1,1020.9849998354912,img/planet4_left.png,4,Community 2,NA,TRUE,f,f,NA,NA,NA,34,7,"2,11,9,6,15,12,5,8,4,10,13,1,14,7,3"
14152,commdev-image-keyboard-response,268,964619,learnblock1,655.1550000440329,img/planet12_right.png,12,Community 2,NA,TRUE,j,j,NA,NA,NA,34,7,"2,11,9,6,15,12,5,8,4,10,13,1,14,7,3"
14152,commdev-image-keyboard-response,269,965870,learnblock1,630.6850002147257,img/planet6_right.png,6,Community 1,NA,FALSE,f,j,NA,NA,NA,34,7,"2,11,9,6,15,12,5,8,4,10,13,1,14,7,3"
14152,commdev-image-keyboard-response,270,967126,learnblock1,760.0350000429899,img/planet11_left.png,11,Community 1,NA,TRUE,f,f,NA,NA,NA,34,7,"2,11,9,6,15,12,5,8,4,10,13,1,14,7,3"
14152,commdev-image-keyboard-response,271,968377,learnblock1,688.9300001785159,img/planet6_left.png,6,Community 1,NA,TRUE,f,f,NA,NA,NA,34,7,"2,11,9,6,15,12,5,8,4,10,13,1,14,7,3"
14152,commdev-image-keyboard-response,272,969631,learnblock1,877.5750000495464,img/planet11_right.png,11,Community 1,NA,TRUE,j,j,NA,NA,NA,34,7,"2,11,9,6,15,12,5,8,4,10,13,1,14,7,3"
14152,commdev-image-keyboard-response,273,970883,learnblock1,584.4950000755489,img/planet6_left.png,6,Community 1,NA,TRUE,f,f,NA,NA,NA,34,7,"2,11,9,6,15,12,5,8,4,10,13,1,14,7,3"
14152,commdev-image-keyboard-response,274,972135,learnblock1,892.5699999090284,img/planet11_left.png,11,Community 1,NA,TRUE,f,f,NA,NA,NA,34,7,"2,11,9,6,15,12,5,8,4,10,13,1,14,7,3"
14152,commdev-image-keyboard-response,275,973391,learnblock1,794.6099999826401,img/planet2_left.png,2,Community 1,NA,TRUE,f,f,NA,NA,NA,34,7,"2,11,9,6,15,12,5,8,4,10,13,1,14,7,3"
14152,commdev-image-keyboard-response,276,974642,learnblock1,754.8849999438971,img/planet9_right.png,9,Community 1,NA,TRUE,j,j,NA,NA,NA,34,7,"2,11,9,6,15,12,5,8,4,10,13,1,14,7,3"
14152,commdev-image-keyboard-response,277,975897,learnblock1,478.2549999654293,img/planet6_right.png,6,Community 1,NA,FALSE,f,j,NA,NA,NA,34,7,"2,11,9,6,15,12,5,8,4,10,13,1,14,7,3"
14152,commdev-image-keyboard-response,278,977151,learnblock1,1008.4199998527765,img/planet9_right.png,9,Community 1,NA,TRUE,j,j,NA,NA,NA,34,7,"2,11,9,6,15,12,5,8,4,10,13,1,14,7,3"
14152,commdev-image-keyboard-response,279,978404,learnblock1,834.2800000682473,img/planet11_left.png,11,Community 1,NA,TRUE,f,f,NA,NA,NA,34,7,"2,11,9,6,15,12,5,8,4,10,13,1,14,7,3"
14152,commdev-image-keyboard-response,280,979659,learnblock1,826.230000006035,img/planet15_right.png,15,Community 1,NA,TRUE,j,j,NA,NA,NA,34,7,"2,11,9,6,15,12,5,8,4,10,13,1,14,7,3"
14152,commdev-image-keyboard-response,281,980914,learnblock1,485.5200001038611,img/planet9_left.png,9,Community 1,NA,TRUE,f,f,NA,NA,NA,34,7,"2,11,9,6,15,12,5,8,4,10,13,1,14,7,3"
14152,commdev-image-keyboard-response,282,982168,learnblock1,1045.9549999795854,img/planet2_left.png,2,Community 1,NA,FALSE,j,f,NA,NA,NA,34,7,"2,11,9,6,15,12,5,8,4,10,13,1,14,7,3"
14152,commdev-image-keyboard-response,283,983420,learnblock1,1187.0900001376867,img/planet11_left.png,11,Community 1,NA,TRUE,f,f,NA,NA,NA,34,7,"2,11,9,6,15,12,5,8,4,10,13,1,14,7,3"
14152,commdev-image-keyboard-response,284,984672,learnblock1,864.8800000082701,img/planet6_left.png,6,Community 1,NA,TRUE,f,f,NA,NA,NA,34,7,"2,11,9,6,15,12,5,8,4,10,13,1,14,7,3"
14152,commdev-image-keyboard-response,285,985926,learnblock1,887.5349999871105,img/planet9_left.png,9,Community 1,NA,TRUE,f,f,NA,NA,NA,34,7,"2,11,9,6,15,12,5,8,4,10,13,1,14,7,3"
14152,commdev-image-keyboard-response,286,987178,learnblock1,788.3699999656528,img/planet15_right.png,15,Community 1,NA,TRUE,j,j,NA,NA,NA,34,7,"2,11,9,6,15,12,5,8,4,10,13,1,14,7,3"
14152,commdev-image-keyboard-response,287,988429,learnblock1,811.699999962002,img/planet11_right.png,11,Community 1,NA,TRUE,j,j,NA,NA,NA,34,7,"2,11,9,6,15,12,5,8,4,10,13,1,14,7,3"
14152,commdev-image-keyboard-response,288,989684,learnblock1,850.5299999378622,img/planet15_right.png,15,Community 1,NA,TRUE,j,j,NA,NA,NA,34,7,"2,11,9,6,15,12,5,8,4,10,13,1,14,7,3"
14152,commdev-image-keyboard-response,289,990936,learnblock1,1110.7199999969453,img/planet9_left.png,9,Community 1,NA,TRUE,f,f,NA,NA,NA,34,7,"2,11,9,6,15,12,5,8,4,10,13,1,14,7,3"
14152,commdev-image-keyboard-response,290,992189,learnblock1,1133.885000133887,img/planet11_left.png,11,Community 1,NA,TRUE,f,f,NA,NA,NA,34,7,"2,11,9,6,15,12,5,8,4,10,13,1,14,7,3"
14152,commdev-image-keyboard-response,291,993442,learnblock1,1005.475000012666,img/planet6_right.png,6,Community 1,NA,TRUE,j,j,NA,NA,NA,34,7,"2,11,9,6,15,12,5,8,4,10,13,1,14,7,3"
14152,commdev-image-keyboard-response,292,994693,learnblock1,817.7049998193979,img/planet2_right.png,2,Community 1,NA,TRUE,j,j,NA,NA,NA,34,7,"2,11,9,6,15,12,5,8,4,10,13,1,14,7,3"
14152,commdev-image-keyboard-response,293,995945,learnblock1,406.5099998842925,img/planet9_left.png,9,Community 1,NA,TRUE,f,f,NA,NA,NA,34,7,"2,11,9,6,15,12,5,8,4,10,13,1,14,7,3"
14152,commdev-image-keyboard-response,294,997199,learnblock1,759.5450000371784,img/planet2_right.png,2,Community 1,NA,TRUE,j,j,NA,NA,NA,34,7,"2,11,9,6,15,12,5,8,4,10,13,1,14,7,3"
14152,commdev-image-keyboard-response,295,998453,learnblock1,675.1800000201911,img/planet11_right.png,11,Community 1,NA,TRUE,j,j,NA,NA,NA,34,7,"2,11,9,6,15,12,5,8,4,10,13,1,14,7,3"
14152,commdev-image-keyboard-response,296,999707,learnblock1,861.2050001975149,img/planet9_right.png,9,Community 1,NA,TRUE,j,j,NA,NA,NA,34,7,"2,11,9,6,15,12,5,8,4,10,13,1,14,7,3"
14152,commdev-image-keyboard-response,297,1000960,learnblock1,1092.4050000030547,img/planet2_right.png,2,Community 1,NA,TRUE,j,j,NA,NA,NA,34,7,"2,11,9,6,15,12,5,8,4,10,13,1,14,7,3"
14152,commdev-image-keyboard-response,298,1002213,learnblock1,694.2799999378622,img/planet9_right.png,9,Community 1,NA,TRUE,j,j,NA,NA,NA,34,7,"2,11,9,6,15,12,5,8,4,10,13,1,14,7,3"
14152,commdev-image-keyboard-response,299,1003464,learnblock1,641.2549999076873,img/planet15_right.png,15,Community 1,NA,TRUE,j,j,NA,NA,NA,34,7,"2,11,9,6,15,12,5,8,4,10,13,1,14,7,3"
14152,commdev-image-keyboard-response,300,1004719,learnblock1,724.8100000433624,img/planet11_left.png,11,Community 1,NA,FALSE,j,f,NA,NA,NA,34,7,"2,11,9,6,15,12,5,8,4,10,13,1,14,7,3"
14152,commdev-image-keyboard-response,301,1005971,learnblock1,null,img/planet9_left.png,9,Community 1,NA,FALSE,null,f,NA,NA,NA,34,7,"2,11,9,6,15,12,5,8,4,10,13,1,14,7,3"
14152,commdev-image-keyboard-response,302,1007225,learnblock1,93.56000018306077,img/planet2_left.png,2,Community 1,NA,TRUE,f,f,NA,NA,NA,34,7,"2,11,9,6,15,12,5,8,4,10,13,1,14,7,3"
14152,commdev-image-keyboard-response,303,1008480,learnblock1,699.1200000047684,img/planet6_right.png,6,Community 1,NA,FALSE,f,j,NA,NA,NA,34,7,"2,11,9,6,15,12,5,8,4,10,13,1,14,7,3"
14152,commdev-image-keyboard-response,304,1009731,learnblock1,973.920000018552,img/planet11_left.png,11,Community 1,NA,TRUE,f,f,NA,NA,NA,34,7,"2,11,9,6,15,12,5,8,4,10,13,1,14,7,3"
14152,commdev-image-keyboard-response,305,1010987,learnblock1,667.9199999198318,img/planet2_right.png,2,Community 1,NA,FALSE,f,j,NA,NA,NA,34,7,"2,11,9,6,15,12,5,8,4,10,13,1,14,7,3"
14152,commdev-image-keyboard-response,306,1012237,learnblock1,1167.7049999125302,img/planet9_right.png,9,Community 1,NA,TRUE,j,j,NA,NA,NA,34,7,"2,11,9,6,15,12,5,8,4,10,13,1,14,7,3"
14152,commdev-image-keyboard-response,307,1013488,learnblock1,null,img/planet11_right.png,11,Community 1,NA,FALSE,null,j,NA,NA,NA,34,7,"2,11,9,6,15,12,5,8,4,10,13,1,14,7,3"
14152,commdev-image-keyboard-response,308,1014741,learnblock1,705.9249999001622,img/planet6_left.png,6,Community 1,NA,TRUE,f,f,NA,NA,NA,34,7,"2,11,9,6,15,12,5,8,4,10,13,1,14,7,3"
14152,commdev-image-keyboard-response,309,1015994,learnblock1,772.7699999231845,img/planet2_left.png,2,Community 1,NA,TRUE,f,f,NA,NA,NA,34,7,"2,11,9,6,15,12,5,8,4,10,13,1,14,7,3"
14152,commdev-image-keyboard-response,310,1017250,learnblock1,809.4649999402463,img/planet11_right.png,11,Community 1,NA,FALSE,f,j,NA,NA,NA,34,7,"2,11,9,6,15,12,5,8,4,10,13,1,14,7,3"
14152,commdev-image-keyboard-response,311,1018505,learnblock1,813.9400000218302,img/planet15_left.png,15,Community 1,NA,TRUE,f,f,NA,NA,NA,34,7,"2,11,9,6,15,12,5,8,4,10,13,1,14,7,3"
14152,commdev-image-keyboard-response,312,1019759,learnblock1,714.0250001102686,img/planet13_right.png,13,Community 3,NA,TRUE,j,j,NA,NA,NA,34,7,"2,11,9,6,15,12,5,8,4,10,13,1,14,7,3"
14152,commdev-image-keyboard-response,313,1021011,learnblock1,869.4800001103431,img/planet3_right.png,3,Community 3,NA,TRUE,j,j,NA,NA,NA,34,7,"2,11,9,6,15,12,5,8,4,10,13,1,14,7,3"
14152,commdev-image-keyboard-response,314,1022262,learnblock1,1193.100000033155,img/planet14_left.png,14,Community 3,NA,TRUE,f,f,NA,NA,NA,34,7,"2,11,9,6,15,12,5,8,4,10,13,1,14,7,3"
14152,commdev-image-keyboard-response,315,1023513,learnblock1,647.0399999525398,img/planet13_left.png,13,Community 3,NA,FALSE,j,f,NA,NA,NA,34,7,"2,11,9,6,15,12,5,8,4,10,13,1,14,7,3"
14152,commdev-image-keyboard-response,316,1024765,learnblock1,1135.6150000356138,img/planet3_left.png,3,Community 3,NA,TRUE,f,f,NA,NA,NA,34,7,"2,11,9,6,15,12,5,8,4,10,13,1,14,7,3"
14152,commdev-image-keyboard-response,317,1026018,learnblock1,null,img/planet14_right.png,14,Community 3,NA,FALSE,null,j,NA,NA,NA,34,7,"2,11,9,6,15,12,5,8,4,10,13,1,14,7,3"
14152,commdev-image-keyboard-response,318,1027273,learnblock1,580.2050000056624,img/planet3_left.png,3,Community 3,NA,FALSE,j,f,NA,NA,NA,34,7,"2,11,9,6,15,12,5,8,4,10,13,1,14,7,3"
14152,commdev-image-keyboard-response,319,1028527,learnblock1,1186.2550000660121,img/planet7_left.png,7,Community 3,NA,TRUE,f,f,NA,NA,NA,34,7,"2,11,9,6,15,12,5,8,4,10,13,1,14,7,3"
14152,commdev-image-keyboard-response,320,1029779,learnblock1,922.2200000658631,img/planet13_left.png,13,Community 3,NA,TRUE,f,f,NA,NA,NA,34,7,"2,11,9,6,15,12,5,8,4,10,13,1,14,7,3"
14152,commdev-image-keyboard-response,321,1031033,learnblock1,1199.4300000369549,img/planet15_right.png,15,Community 1,NA,TRUE,j,j,NA,NA,NA,34,7,"2,11,9,6,15,12,5,8,4,10,13,1,14,7,3"
14152,commdev-image-keyboard-response,322,1032285,learnblock1,1055.530000012368,img/planet11_right.png,11,Community 1,NA,TRUE,j,j,NA,NA,NA,34,7,"2,11,9,6,15,12,5,8,4,10,13,1,14,7,3"
14152,commdev-image-keyboard-response,323,1033537,learnblock1,779.2449998669326,img/planet2_left.png,2,Community 1,NA,TRUE,f,f,NA,NA,NA,34,7,"2,11,9,6,15,12,5,8,4,10,13,1,14,7,3"
14152,commdev-image-keyboard-response,324,1034790,learnblock1,981.5550001803786,img/planet15_left.png,15,Community 1,NA,TRUE,f,f,NA,NA,NA,34,7,"2,11,9,6,15,12,5,8,4,10,13,1,14,7,3"
14152,commdev-image-keyboard-response,325,1036042,learnblock1,1047.8900000452995,img/planet13_left.png,13,Community 3,NA,TRUE,f,f,NA,NA,NA,34,7,"2,11,9,6,15,12,5,8,4,10,13,1,14,7,3"
14152,commdev-image-keyboard-response,326,1037294,learnblock1,817.1349999029189,img/planet14_left.png,14,Community 3,NA,TRUE,f,f,NA,NA,NA,34,7,"2,11,9,6,15,12,5,8,4,10,13,1,14,7,3"
14152,commdev-image-keyboard-response,327,1038549,learnblock1,944.6300000417978,img/planet13_left.png,13,Community 3,NA,TRUE,f,f,NA,NA,NA,34,7,"2,11,9,6,15,12,5,8,4,10,13,1,14,7,3"
14152,commdev-image-keyboard-response,328,1039802,learnblock1,754.8150001093745,img/planet3_right.png,3,Community 3,NA,TRUE,j,j,NA,NA,NA,34,7,"2,11,9,6,15,12,5,8,4,10,13,1,14,7,3"
14152,commdev-image-keyboard-response,329,1041054,learnblock1,776.6149998642504,img/planet7_right.png,7,Community 3,NA,FALSE,f,j,NA,NA,NA,34,7,"2,11,9,6,15,12,5,8,4,10,13,1,14,7,3"
14152,commdev-image-keyboard-response,330,1042306,learnblock1,null,img/planet14_right.png,14,Community 3,NA,FALSE,null,j,NA,NA,NA,34,7,"2,11,9,6,15,12,5,8,4,10,13,1,14,7,3"
14152,commdev-image-keyboard-response,331,1043557,learnblock1,1047.190000070259,img/planet1_left.png,1,Community 3,NA,FALSE,j,f,NA,NA,NA,34,7,"2,11,9,6,15,12,5,8,4,10,13,1,14,7,3"
14152,commdev-image-keyboard-response,332,1044810,learnblock1,1086.8900001514703,img/planet3_right.png,3,Community 3,NA,TRUE,j,j,NA,NA,NA,34,7,"2,11,9,6,15,12,5,8,4,10,13,1,14,7,3"
14152,commdev-image-keyboard-response,333,1046063,learnblock1,912.9449999891222,img/planet13_right.png,13,Community 3,NA,TRUE,j,j,NA,NA,NA,34,7,"2,11,9,6,15,12,5,8,4,10,13,1,14,7,3"
14152,commdev-image-keyboard-response,334,1047314,learnblock1,650.6950000766665,img/planet3_right.png,3,Community 3,NA,TRUE,j,j,NA,NA,NA,34,7,"2,11,9,6,15,12,5,8,4,10,13,1,14,7,3"
14152,commdev-image-keyboard-response,335,1048568,learnblock1,524.1350000724196,img/planet1_right.png,1,Community 3,NA,TRUE,j,j,NA,NA,NA,34,7,"2,11,9,6,15,12,5,8,4,10,13,1,14,7,3"
14152,commdev-image-keyboard-response,336,1049822,learnblock1,635.3450000751764,img/planet3_right.png,3,Community 3,NA,TRUE,j,j,NA,NA,NA,34,7,"2,11,9,6,15,12,5,8,4,10,13,1,14,7,3"
14152,commdev-image-keyboard-response,337,1051075,learnblock1,865.7050000037998,img/planet14_right.png,14,Community 3,NA,TRUE,j,j,NA,NA,NA,34,7,"2,11,9,6,15,12,5,8,4,10,13,1,14,7,3"
14152,commdev-image-keyboard-response,338,1052328,learnblock1,632.9950001090765,img/planet13_right.png,13,Community 3,NA,TRUE,j,j,NA,NA,NA,34,7,"2,11,9,6,15,12,5,8,4,10,13,1,14,7,3"
14152,commdev-image-keyboard-response,339,1053581,learnblock1,699.4549999944866,img/planet14_right.png,14,Community 3,NA,TRUE,j,j,NA,NA,NA,34,7,"2,11,9,6,15,12,5,8,4,10,13,1,14,7,3"
14152,commdev-image-keyboard-response,340,1054831,learnblock1,662.5649998895824,img/planet3_left.png,3,Community 3,NA,FALSE,j,f,NA,NA,NA,34,7,"2,11,9,6,15,12,5,8,4,10,13,1,14,7,3"
14152,commdev-image-keyboard-response,341,1056086,learnblock1,null,img/planet7_right.png,7,Community 3,NA,FALSE,null,j,NA,NA,NA,34,7,"2,11,9,6,15,12,5,8,4,10,13,1,14,7,3"
14152,commdev-image-keyboard-response,342,1057337,learnblock1,872.4149998743087,img/planet13_right.png,13,Community 3,NA,TRUE,j,j,NA,NA,NA,34,7,"2,11,9,6,15,12,5,8,4,10,13,1,14,7,3"
14152,commdev-image-keyboard-response,343,1058591,learnblock1,1196.4049998205155,img/planet15_right.png,15,Community 1,NA,TRUE,j,j,NA,NA,NA,34,7,"2,11,9,6,15,12,5,8,4,10,13,1,14,7,3"
14152,commdev-image-keyboard-response,344,1059841,learnblock1,1006.7549999803305,img/planet11_right.png,11,Community 1,NA,TRUE,j,j,NA,NA,NA,34,7,"2,11,9,6,15,12,5,8,4,10,13,1,14,7,3"
14152,commdev-image-keyboard-response,345,1061094,learnblock1,746.7549999710172,img/planet2_right.png,2,Community 1,NA,TRUE,j,j,NA,NA,NA,34,7,"2,11,9,6,15,12,5,8,4,10,13,1,14,7,3"
14152,commdev-image-keyboard-response,346,1062349,learnblock1,574.4350000750273,img/planet15_left.png,15,Community 1,NA,FALSE,j,f,NA,NA,NA,34,7,"2,11,9,6,15,12,5,8,4,10,13,1,14,7,3"
14152,commdev-image-keyboard-response,347,1063601,learnblock1,669.0050000324845,img/planet9_left.png,9,Community 1,NA,TRUE,f,f,NA,NA,NA,34,7,"2,11,9,6,15,12,5,8,4,10,13,1,14,7,3"
14152,commdev-image-keyboard-response,348,1064854,learnblock1,751.5649998094887,img/planet11_right.png,11,Community 1,NA,TRUE,j,j,NA,NA,NA,34,7,"2,11,9,6,15,12,5,8,4,10,13,1,14,7,3"
14152,commdev-image-keyboard-response,349,1066107,learnblock1,864.0300000552088,img/planet15_right.png,15,Community 1,NA,TRUE,j,j,NA,NA,NA,34,7,"2,11,9,6,15,12,5,8,4,10,13,1,14,7,3"
14152,commdev-image-keyboard-response,350,1067361,learnblock1,1065.984999993816,img/planet13_right.png,13,Community 3,NA,TRUE,j,j,NA,NA,NA,34,7,"2,11,9,6,15,12,5,8,4,10,13,1,14,7,3"
14152,commdev-image-keyboard-response,351,1068613,learnblock1,921.9800001010299,img/planet15_left.png,15,Community 1,NA,TRUE,f,f,NA,NA,NA,34,7,"2,11,9,6,15,12,5,8,4,10,13,1,14,7,3"
14152,commdev-image-keyboard-response,352,1069867,learnblock1,704.9799999222159,img/planet2_left.png,2,Community 1,NA,TRUE,f,f,NA,NA,NA,34,7,"2,11,9,6,15,12,5,8,4,10,13,1,14,7,3"
14152,commdev-image-keyboard-response,353,1071120,learnblock1,350.00999993644655,img/planet15_right.png,15,Community 1,NA,FALSE,f,j,NA,NA,NA,34,7,"2,11,9,6,15,12,5,8,4,10,13,1,14,7,3"
14152,commdev-image-keyboard-response,354,1072375,learnblock1,581.9450002163649,img/planet2_right.png,2,Community 1,NA,TRUE,j,j,NA,NA,NA,34,7,"2,11,9,6,15,12,5,8,4,10,13,1,14,7,3"
14152,commdev-image-keyboard-response,355,1073628,learnblock1,902.765000006184,img/planet11_left.png,11,Community 1,NA,TRUE,f,f,NA,NA,NA,34,7,"2,11,9,6,15,12,5,8,4,10,13,1,14,7,3"
14152,commdev-image-keyboard-response,356,1074881,learnblock1,1028.859999962151,img/planet6_left.png,6,Community 1,NA,TRUE,f,f,NA,NA,NA,34,7,"2,11,9,6,15,12,5,8,4,10,13,1,14,7,3"
14152,commdev-image-keyboard-response,357,1076135,learnblock1,856.6050000954419,img/planet9_right.png,9,Community 1,NA,TRUE,j,j,NA,NA,NA,34,7,"2,11,9,6,15,12,5,8,4,10,13,1,14,7,3"
14152,commdev-image-keyboard-response,358,1077390,learnblock1,862.3299999162555,img/planet2_left.png,2,Community 1,NA,TRUE,f,f,NA,NA,NA,34,7,"2,11,9,6,15,12,5,8,4,10,13,1,14,7,3"
14152,commdev-image-keyboard-response,359,1078643,learnblock1,807.9799998085946,img/planet6_left.png,6,Community 1,NA,TRUE,f,f,NA,NA,NA,34,7,"2,11,9,6,15,12,5,8,4,10,13,1,14,7,3"
14152,commdev-image-keyboard-response,360,1079896,learnblock1,604.0599998086691,img/planet12_left.png,12,Community 2,NA,TRUE,f,f,NA,NA,NA,34,7,"2,11,9,6,15,12,5,8,4,10,13,1,14,7,3"
14152,commdev-image-keyboard-response,361,1081151,learnblock1,716.3150000851601,img/planet6_left.png,6,Community 1,NA,TRUE,f,f,NA,NA,NA,34,7,"2,11,9,6,15,12,5,8,4,10,13,1,14,7,3"
14152,commdev-image-keyboard-response,362,1082405,learnblock1,825.819999910891,img/planet12_left.png,12,Community 2,NA,TRUE,f,f,NA,NA,NA,34,7,"2,11,9,6,15,12,5,8,4,10,13,1,14,7,3"
14152,commdev-image-keyboard-response,363,1083656,learnblock1,816.5750000625849,img/planet4_right.png,4,Community 2,NA,TRUE,j,j,NA,NA,NA,34,7,"2,11,9,6,15,12,5,8,4,10,13,1,14,7,3"
14152,commdev-image-keyboard-response,364,1084911,learnblock1,360.8900001272559,img/planet10_right.png,10,Community 2,NA,FALSE,f,j,NA,NA,NA,34,7,"2,11,9,6,15,12,5,8,4,10,13,1,14,7,3"
14152,commdev-image-keyboard-response,365,1086166,learnblock1,null,img/planet5_left.png,5,Community 2,NA,FALSE,null,f,NA,NA,NA,34,7,"2,11,9,6,15,12,5,8,4,10,13,1,14,7,3"
14152,commdev-image-keyboard-response,366,1087419,learnblock1,956.4300000201911,img/planet8_right.png,8,Community 2,NA,TRUE,j,j,NA,NA,NA,34,7,"2,11,9,6,15,12,5,8,4,10,13,1,14,7,3"
14152,commdev-image-keyboard-response,367,1088670,learnblock1,783.6499998811632,img/planet5_right.png,5,Community 2,NA,TRUE,j,j,NA,NA,NA,34,7,"2,11,9,6,15,12,5,8,4,10,13,1,14,7,3"
14152,commdev-image-keyboard-response,368,1089921,learnblock1,896.7950001824647,img/planet10_right.png,10,Community 2,NA,TRUE,j,j,NA,NA,NA,34,7,"2,11,9,6,15,12,5,8,4,10,13,1,14,7,3"
14152,commdev-image-keyboard-response,369,1091174,learnblock1,800.6549999117851,img/planet5_right.png,5,Community 2,NA,TRUE,j,j,NA,NA,NA,34,7,"2,11,9,6,15,12,5,8,4,10,13,1,14,7,3"
14152,commdev-image-keyboard-response,370,1092428,learnblock1,957.5249999761581,img/planet10_left.png,10,Community 2,NA,TRUE,f,f,NA,NA,NA,34,7,"2,11,9,6,15,12,5,8,4,10,13,1,14,7,3"
14152,commdev-image-keyboard-response,371,1093679,learnblock1,768.4450000524521,img/planet12_left.png,12,Community 2,NA,FALSE,j,f,NA,NA,NA,34,7,"2,11,9,6,15,12,5,8,4,10,13,1,14,7,3"
14152,commdev-image-keyboard-response,372,1094931,learnblock1,1122.7299999445677,img/planet5_left.png,5,Community 2,NA,TRUE,f,f,NA,NA,NA,34,7,"2,11,9,6,15,12,5,8,4,10,13,1,14,7,3"
14152,commdev-image-keyboard-response,373,1096185,learnblock1,860.6650000438094,img/planet8_left.png,8,Community 2,NA,TRUE,f,f,NA,NA,NA,34,7,"2,11,9,6,15,12,5,8,4,10,13,1,14,7,3"
14152,commdev-image-keyboard-response,374,1097436,learnblock1,null,img/planet4_left.png,4,Community 2,NA,FALSE,null,f,NA,NA,NA,34,7,"2,11,9,6,15,12,5,8,4,10,13,1,14,7,3"
14152,commdev-image-keyboard-response,375,1098690,learnblock1,245.99500000476837,img/planet5_left.png,5,Community 2,NA,TRUE,f,f,NA,NA,NA,34,7,"2,11,9,6,15,12,5,8,4,10,13,1,14,7,3"
14152,commdev-image-keyboard-response,376,1099941,learnblock1,11.805000016465783,img/planet4_left.png,4,Community 2,NA,TRUE,f,f,NA,NA,NA,34,7,"2,11,9,6,15,12,5,8,4,10,13,1,14,7,3"
14152,commdev-image-keyboard-response,377,1101193,learnblock1,291.20999993756413,img/planet5_right.png,5,Community 2,NA,FALSE,f,j,NA,NA,NA,34,7,"2,11,9,6,15,12,5,8,4,10,13,1,14,7,3"
14152,commdev-image-keyboard-response,378,1102444,learnblock1,853.8599999155849,img/planet4_left.png,4,Community 2,NA,TRUE,f,f,NA,NA,NA,34,7,"2,11,9,6,15,12,5,8,4,10,13,1,14,7,3"
14152,commdev-image-keyboard-response,379,1103696,learnblock1,741.7500000447035,img/planet12_left.png,12,Community 2,NA,TRUE,f,f,NA,NA,NA,34,7,"2,11,9,6,15,12,5,8,4,10,13,1,14,7,3"
14152,commdev-image-keyboard-response,380,1104950,learnblock1,555.4500001017004,img/planet5_left.png,5,Community 2,NA,TRUE,f,f,NA,NA,NA,34,7,"2,11,9,6,15,12,5,8,4,10,13,1,14,7,3"
14152,commdev-image-keyboard-response,381,1106201,learnblock1,441.65500020608306,img/planet12_right.png,12,Community 2,NA,FALSE,f,j,NA,NA,NA,34,7,"2,11,9,6,15,12,5,8,4,10,13,1,14,7,3"
14152,commdev-image-keyboard-response,382,1107456,learnblock1,434.87500003539026,img/planet5_right.png,5,Community 2,NA,TRUE,j,j,NA,NA,NA,34,7,"2,11,9,6,15,12,5,8,4,10,13,1,14,7,3"
14152,commdev-image-keyboard-response,383,1108711,learnblock1,335.8700000680983,img/planet10_right.png,10,Community 2,NA,FALSE,f,j,NA,NA,NA,34,7,"2,11,9,6,15,12,5,8,4,10,13,1,14,7,3"
14152,commdev-image-keyboard-response,384,1109965,learnblock1,430.2300000563264,img/planet8_right.png,8,Community 2,NA,FALSE,f,j,NA,NA,NA,34,7,"2,11,9,6,15,12,5,8,4,10,13,1,14,7,3"
14152,commdev-image-keyboard-response,385,1111216,learnblock1,null,img/planet10_right.png,10,Community 2,NA,FALSE,null,j,NA,NA,NA,34,7,"2,11,9,6,15,12,5,8,4,10,13,1,14,7,3"
14152,commdev-image-keyboard-response,386,1112467,learnblock1,610.5849999003112,img/planet4_left.png,4,Community 2,NA,FALSE,j,f,NA,NA,NA,34,7,"2,11,9,6,15,12,5,8,4,10,13,1,14,7,3"
14152,commdev-image-keyboard-response,387,1113719,learnblock1,379.4299999717623,img/planet10_right.png,10,Community 2,NA,TRUE,j,j,NA,NA,NA,34,7,"2,11,9,6,15,12,5,8,4,10,13,1,14,7,3"
14152,commdev-image-keyboard-response,388,1114974,learnblock1,612.2200000099838,img/planet4_left.png,4,Community 2,NA,TRUE,f,f,NA,NA,NA,34,7,"2,11,9,6,15,12,5,8,4,10,13,1,14,7,3"
14152,commdev-image-keyboard-response,389,1116225,learnblock1,842.5950000528246,img/planet10_left.png,10,Community 2,NA,TRUE,f,f,NA,NA,NA,34,7,"2,11,9,6,15,12,5,8,4,10,13,1,14,7,3"
14152,commdev-image-keyboard-response,390,1117479,learnblock1,700.6300000939518,img/planet5_left.png,5,Community 2,NA,TRUE,f,f,NA,NA,NA,34,7,"2,11,9,6,15,12,5,8,4,10,13,1,14,7,3"
14152,commdev-image-keyboard-response,391,1118735,learnblock1,677.6300000492483,img/planet8_right.png,8,Community 2,NA,FALSE,f,j,NA,NA,NA,34,7,"2,11,9,6,15,12,5,8,4,10,13,1,14,7,3"
14152,commdev-image-keyboard-response,392,1119988,learnblock1,546.8300001230091,img/planet5_left.png,5,Community 2,NA,TRUE,f,f,NA,NA,NA,34,7,"2,11,9,6,15,12,5,8,4,10,13,1,14,7,3"
14152,commdev-image-keyboard-response,393,1121241,learnblock1,478.43499993905425,img/planet12_right.png,12,Community 2,NA,FALSE,f,j,NA,NA,NA,34,7,"2,11,9,6,15,12,5,8,4,10,13,1,14,7,3"
14152,commdev-image-keyboard-response,394,1122492,learnblock1,620.6350000575185,img/planet5_left.png,5,Community 2,NA,TRUE,f,f,NA,NA,NA,34,7,"2,11,9,6,15,12,5,8,4,10,13,1,14,7,3"
14152,commdev-image-keyboard-response,395,1123748,learnblock1,329.2100001126528,img/planet8_right.png,8,Community 2,NA,TRUE,j,j,NA,NA,NA,34,7,"2,11,9,6,15,12,5,8,4,10,13,1,14,7,3"
14152,commdev-image-keyboard-response,396,1125001,learnblock1,483.5699999239296,img/planet4_right.png,4,Community 2,NA,FALSE,f,j,NA,NA,NA,34,7,"2,11,9,6,15,12,5,8,4,10,13,1,14,7,3"
14152,commdev-image-keyboard-response,397,1126253,learnblock1,70.0500002130866,img/planet10_left.png,10,Community 2,NA,TRUE,f,f,NA,NA,NA,34,7,"2,11,9,6,15,12,5,8,4,10,13,1,14,7,3"
14152,commdev-image-keyboard-response,398,1127506,learnblock1,152.74500008672476,img/planet4_right.png,4,Community 2,NA,FALSE,f,j,NA,NA,NA,34,7,"2,11,9,6,15,12,5,8,4,10,13,1,14,7,3"
14152,commdev-image-keyboard-response,399,1128758,learnblock1,84.46499984711409,img/planet10_left.png,10,Community 2,NA,TRUE,f,f,NA,NA,NA,34,7,"2,11,9,6,15,12,5,8,4,10,13,1,14,7,3"
14152,commdev-image-keyboard-response,400,1130010,learnblock1,332.62500003911555,img/planet8_left.png,8,Community 2,NA,FALSE,j,f,NA,NA,NA,34,7,"2,11,9,6,15,12,5,8,4,10,13,1,14,7,3"
14152,commdev-image-keyboard-response,401,1131264,learnblock1,895.6799998413771,img/planet4_right.png,4,Community 2,NA,TRUE,j,j,NA,NA,NA,34,7,"2,11,9,6,15,12,5,8,4,10,13,1,14,7,3"
14152,commdev-image-keyboard-response,402,1132517,learnblock1,736.9800000451505,img/planet8_left.png,8,Community 2,NA,TRUE,f,f,NA,NA,NA,34,7,"2,11,9,6,15,12,5,8,4,10,13,1,14,7,3"
14152,commdev-image-keyboard-response,403,1133773,learnblock1,639.0800001099706,img/planet5_right.png,5,Community 2,NA,TRUE,j,j,NA,NA,NA,34,7,"2,11,9,6,15,12,5,8,4,10,13,1,14,7,3"
14152,commdev-image-keyboard-response,404,1135025,learnblock1,358.8749999180436,img/planet12_left.png,12,Community 2,NA,TRUE,f,f,NA,NA,NA,34,7,"2,11,9,6,15,12,5,8,4,10,13,1,14,7,3"
14152,commdev-image-keyboard-response,405,1136276,learnblock1,275.91000008396804,img/planet6_right.png,6,Community 1,NA,TRUE,j,j,NA,NA,NA,34,7,"2,11,9,6,15,12,5,8,4,10,13,1,14,7,3"
14152,commdev-image-keyboard-response,406,1137529,learnblock1,179.51499996706843,img/planet9_left.png,9,Community 1,NA,TRUE,f,f,NA,NA,NA,34,7,"2,11,9,6,15,12,5,8,4,10,13,1,14,7,3"
14152,commdev-image-keyboard-response,407,1138784,learnblock1,142.03500002622604,img/planet2_left.png,2,Community 1,NA,FALSE,j,f,NA,NA,NA,34,7,"2,11,9,6,15,12,5,8,4,10,13,1,14,7,3"
14152,commdev-image-keyboard-response,408,1140039,learnblock1,566.7449999600649,img/planet9_left.png,9,Community 1,NA,TRUE,f,f,NA,NA,NA,34,7,"2,11,9,6,15,12,5,8,4,10,13,1,14,7,3"
14152,commdev-image-keyboard-response,409,1141293,learnblock1,346.5450000949204,img/planet6_right.png,6,Community 1,NA,FALSE,f,j,NA,NA,NA,34,7,"2,11,9,6,15,12,5,8,4,10,13,1,14,7,3"
14152,commdev-image-keyboard-response,410,1142548,learnblock1,772.8949999436736,img/planet12_left.png,12,Community 2,NA,TRUE,f,f,NA,NA,NA,34,7,"2,11,9,6,15,12,5,8,4,10,13,1,14,7,3"
14152,commdev-image-keyboard-response,411,1143800,learnblock1,507.4350000359118,img/planet6_right.png,6,Community 1,NA,FALSE,f,j,NA,NA,NA,34,7,"2,11,9,6,15,12,5,8,4,10,13,1,14,7,3"
14152,commdev-image-keyboard-response,412,1145052,learnblock1,799.6050000656396,img/planet11_left.png,11,Community 1,NA,TRUE,f,f,NA,NA,NA,34,7,"2,11,9,6,15,12,5,8,4,10,13,1,14,7,3"
14152,commdev-image-keyboard-response,413,1146303,learnblock1,434.4299999065697,img/planet6_left.png,6,Community 1,NA,FALSE,j,f,NA,NA,NA,34,7,"2,11,9,6,15,12,5,8,4,10,13,1,14,7,3"
14152,commdev-image-keyboard-response,414,1147557,learnblock1,546.9049999956042,img/planet11_right.png,11,Community 1,NA,FALSE,f,j,NA,NA,NA,34,7,"2,11,9,6,15,12,5,8,4,10,13,1,14,7,3"
14152,commdev-image-keyboard-response,415,1148810,learnblock1,868.4100001119077,img/planet15_right.png,15,Community 1,NA,TRUE,j,j,NA,NA,NA,34,7,"2,11,9,6,15,12,5,8,4,10,13,1,14,7,3"
14152,commdev-image-keyboard-response,416,1150063,learnblock1,965.2850001584738,img/planet9_left.png,9,Community 1,NA,FALSE,j,f,NA,NA,NA,34,7,"2,11,9,6,15,12,5,8,4,10,13,1,14,7,3"
14152,commdev-image-keyboard-response,417,1151315,learnblock1,627.2599999792874,img/planet2_left.png,2,Community 1,NA,TRUE,f,f,NA,NA,NA,34,7,"2,11,9,6,15,12,5,8,4,10,13,1,14,7,3"
14152,commdev-image-keyboard-response,418,1152567,learnblock1,935.5649999342859,img/planet9_left.png,9,Community 1,NA,TRUE,f,f,NA,NA,NA,34,7,"2,11,9,6,15,12,5,8,4,10,13,1,14,7,3"
14152,commdev-image-keyboard-response,419,1153818,learnblock1,808.8849999476224,img/planet2_right.png,2,Community 1,NA,FALSE,f,j,NA,NA,NA,34,7,"2,11,9,6,15,12,5,8,4,10,13,1,14,7,3"
14152,commdev-image-keyboard-response,420,1155071,learnblock1,1253.0249999836087,img/planet15_right.png,15,Community 1,NA,TRUE,j,j,NA,NA,NA,34,7,"2,11,9,6,15,12,5,8,4,10,13,1,14,7,3"
14152,commdev-image-keyboard-response,421,1156323,learnblock1,1079.2900000233203,img/planet2_right.png,2,Community 1,NA,TRUE,j,j,NA,NA,NA,34,7,"2,11,9,6,15,12,5,8,4,10,13,1,14,7,3"
14152,commdev-image-keyboard-response,422,1157577,learnblock1,861.9200000539422,img/planet15_right.png,15,Community 1,NA,TRUE,j,j,NA,NA,NA,34,7,"2,11,9,6,15,12,5,8,4,10,13,1,14,7,3"
14152,commdev-image-keyboard-response,423,1158830,learnblock1,792.5149998627603,img/planet9_left.png,9,Community 1,NA,TRUE,f,f,NA,NA,NA,34,7,"2,11,9,6,15,12,5,8,4,10,13,1,14,7,3"
14152,commdev-image-keyboard-response,424,1160083,learnblock1,995.3399999067187,img/planet6_left.png,6,Community 1,NA,TRUE,f,f,NA,NA,NA,34,7,"2,11,9,6,15,12,5,8,4,10,13,1,14,7,3"
14152,commdev-image-keyboard-response,425,1161338,learnblock1,762.580000096932,img/planet9_left.png,9,Community 1,NA,TRUE,f,f,NA,NA,NA,34,7,"2,11,9,6,15,12,5,8,4,10,13,1,14,7,3"
14152,commdev-image-keyboard-response,426,1162591,learnblock1,887.2050000354648,img/planet15_left.png,15,Community 1,NA,TRUE,f,f,NA,NA,NA,34,7,"2,11,9,6,15,12,5,8,4,10,13,1,14,7,3"
14152,commdev-image-keyboard-response,427,1163844,learnblock1,639.5900000352412,img/planet2_right.png,2,Community 1,NA,FALSE,f,j,NA,NA,NA,34,7,"2,11,9,6,15,12,5,8,4,10,13,1,14,7,3"
14152,commdev-image-keyboard-response,428,1165100,learnblock1,450.345000019297,img/planet9_left.png,9,Community 1,NA,TRUE,f,f,NA,NA,NA,34,7,"2,11,9,6,15,12,5,8,4,10,13,1,14,7,3"
14152,commdev-image-keyboard-response,429,1166353,learnblock1,425.62499991618097,img/planet15_left.png,15,Community 1,NA,TRUE,f,f,NA,NA,NA,34,7,"2,11,9,6,15,12,5,8,4,10,13,1,14,7,3"
14152,commdev-image-keyboard-response,430,1167608,learnblock1,402.4249999783933,img/planet11_right.png,11,Community 1,NA,FALSE,f,j,NA,NA,NA,34,7,"2,11,9,6,15,12,5,8,4,10,13,1,14,7,3"
14152,commdev-image-keyboard-response,431,1168860,learnblock1,331.31499984301627,img/planet6_right.png,6,Community 1,NA,FALSE,f,j,NA,NA,NA,34,7,"2,11,9,6,15,12,5,8,4,10,13,1,14,7,3"
14152,commdev-image-keyboard-response,432,1170115,learnblock1,340.46499989926815,img/planet9_right.png,9,Community 1,NA,FALSE,f,j,NA,NA,NA,34,7,"2,11,9,6,15,12,5,8,4,10,13,1,14,7,3"
14152,commdev-image-keyboard-response,433,1171368,learnblock1,900.3050001338124,img/planet15_left.png,15,Community 1,NA,TRUE,f,f,NA,NA,NA,34,7,"2,11,9,6,15,12,5,8,4,10,13,1,14,7,3"
14152,commdev-image-keyboard-response,434,1172619,learnblock1,906.5100001171231,img/planet13_left.png,13,Community 3,NA,TRUE,f,f,NA,NA,NA,34,7,"2,11,9,6,15,12,5,8,4,10,13,1,14,7,3"
14152,commdev-image-keyboard-response,435,1173871,learnblock1,735.3450001683086,img/planet15_right.png,15,Community 1,NA,TRUE,j,j,NA,NA,NA,34,7,"2,11,9,6,15,12,5,8,4,10,13,1,14,7,3"
14152,commdev-image-keyboard-response,436,1175125,learnblock1,923.8100000657141,img/planet13_left.png,13,Community 3,NA,TRUE,f,f,NA,NA,NA,34,7,"2,11,9,6,15,12,5,8,4,10,13,1,14,7,3"
14152,commdev-image-keyboard-response,437,1176376,learnblock1,1049.7949998825788,img/planet14_left.png,14,Community 3,NA,TRUE,f,f,NA,NA,NA,34,7,"2,11,9,6,15,12,5,8,4,10,13,1,14,7,3"
14152,commdev-image-keyboard-response,438,1177629,learnblock1,864.2549999058247,img/planet1_left.png,1,Community 3,NA,TRUE,f,f,NA,NA,NA,34,7,"2,11,9,6,15,12,5,8,4,10,13,1,14,7,3"
14152,commdev-image-keyboard-response,439,1178881,learnblock1,1020.5500000156462,img/planet7_left.png,7,Community 3,NA,TRUE,f,f,NA,NA,NA,34,7,"2,11,9,6,15,12,5,8,4,10,13,1,14,7,3"
14152,commdev-image-keyboard-response,440,1180133,learnblock1,984.0949999634176,img/planet1_right.png,1,Community 3,NA,FALSE,f,j,NA,NA,NA,34,7,"2,11,9,6,15,12,5,8,4,10,13,1,14,7,3"
14152,commdev-image-keyboard-response,441,1181384,learnblock1,136.90000004135072,img/planet14_left.png,14,Community 3,NA,FALSE,j,f,NA,NA,NA,34,7,"2,11,9,6,15,12,5,8,4,10,13,1,14,7,3"
14152,commdev-image-keyboard-response,442,1182635,learnblock1,1075.2850000280887,img/planet3_left.png,3,Community 3,NA,TRUE,f,f,NA,NA,NA,34,7,"2,11,9,6,15,12,5,8,4,10,13,1,14,7,3"
14152,commdev-image-keyboard-response,443,1183889,learnblock1,859.3049999326468,img/planet1_right.png,1,Community 3,NA,TRUE,j,j,NA,NA,NA,34,7,"2,11,9,6,15,12,5,8,4,10,13,1,14,7,3"
14152,commdev-image-keyboard-response,444,1185144,learnblock1,656.2799999956042,img/planet3_left.png,3,Community 3,NA,TRUE,f,f,NA,NA,NA,34,7,"2,11,9,6,15,12,5,8,4,10,13,1,14,7,3"
14152,commdev-image-keyboard-response,445,1186397,learnblock1,1109.9649998359382,img/planet14_right.png,14,Community 3,NA,TRUE,j,j,NA,NA,NA,34,7,"2,11,9,6,15,12,5,8,4,10,13,1,14,7,3"
14152,commdev-image-keyboard-response,446,1187651,learnblock1,848.1250000186265,img/planet3_left.png,3,Community 3,NA,TRUE,f,f,NA,NA,NA,34,7,"2,11,9,6,15,12,5,8,4,10,13,1,14,7,3"
14152,commdev-image-keyboard-response,447,1188906,learnblock1,763.8000000733882,img/planet14_right.png,14,Community 3,NA,TRUE,j,j,NA,NA,NA,34,7,"2,11,9,6,15,12,5,8,4,10,13,1,14,7,3"
14152,commdev-image-keyboard-response,448,1190156,learnblock1,858.8999998755753,img/planet7_right.png,7,Community 3,NA,TRUE,j,j,NA,NA,NA,34,7,"2,11,9,6,15,12,5,8,4,10,13,1,14,7,3"
14152,commdev-image-keyboard-response,449,1191411,learnblock1,732.8650001436472,img/planet14_right.png,14,Community 3,NA,FALSE,f,j,NA,NA,NA,34,7,"2,11,9,6,15,12,5,8,4,10,13,1,14,7,3"
14152,commdev-image-keyboard-response,453,1204486,learnblock2,null,img/planet5_left.png,5,Community 2,NA,FALSE,null,f,NA,NA,NA,34,7,"2,11,9,6,15,12,5,8,4,10,13,1,14,7,3"
14152,commdev-image-keyboard-response,454,1205742,learnblock2,832.7950001694262,img/planet8_left.png,8,Community 2,NA,TRUE,f,f,NA,NA,NA,34,7,"2,11,9,6,15,12,5,8,4,10,13,1,14,7,3"
14152,commdev-image-keyboard-response,455,1206998,learnblock2,252.83499993383884,img/planet1_right.png,1,Community 3,NA,FALSE,f,j,NA,NA,NA,34,7,"2,11,9,6,15,12,5,8,4,10,13,1,14,7,3"
14152,commdev-image-keyboard-response,456,1208251,learnblock2,660.2849999908358,img/planet8_right.png,8,Community 2,NA,TRUE,j,j,NA,NA,NA,34,7,"2,11,9,6,15,12,5,8,4,10,13,1,14,7,3"
14152,commdev-image-keyboard-response,457,1209503,learnblock2,67.96999997459352,img/planet10_left.png,10,Community 2,NA,FALSE,j,f,NA,NA,NA,34,7,"2,11,9,6,15,12,5,8,4,10,13,1,14,7,3"
14152,commdev-image-keyboard-response,458,1210755,learnblock2,540.915000019595,img/planet8_right.png,8,Community 2,NA,TRUE,j,j,NA,NA,NA,34,7,"2,11,9,6,15,12,5,8,4,10,13,1,14,7,3"
14152,commdev-image-keyboard-response,459,1212007,learnblock2,429.7450000885874,img/planet10_right.png,10,Community 2,NA,FALSE,f,j,NA,NA,NA,34,7,"2,11,9,6,15,12,5,8,4,10,13,1,14,7,3"
14152,commdev-image-keyboard-response,460,1213261,learnblock2,887.1049999725074,img/planet8_left.png,8,Community 2,NA,TRUE,f,f,NA,NA,NA,34,7,"2,11,9,6,15,12,5,8,4,10,13,1,14,7,3"
14152,commdev-image-keyboard-response,461,1214515,learnblock2,592.1650000382215,img/planet4_right.png,4,Community 2,NA,TRUE,j,j,NA,NA,NA,34,7,"2,11,9,6,15,12,5,8,4,10,13,1,14,7,3"
14152,commdev-image-keyboard-response,462,1215771,learnblock2,328.6350001581013,img/planet5_right.png,5,Community 2,NA,FALSE,f,j,NA,NA,NA,34,7,"2,11,9,6,15,12,5,8,4,10,13,1,14,7,3"
14152,commdev-image-keyboard-response,463,1217022,learnblock2,null,img/planet8_right.png,8,Community 2,NA,FALSE,null,j,NA,NA,NA,34,7,"2,11,9,6,15,12,5,8,4,10,13,1,14,7,3"
14152,commdev-image-keyboard-response,464,1218276,learnblock2,175.7049998268485,img/planet10_left.png,10,Community 2,NA,FALSE,j,f,NA,NA,NA,34,7,"2,11,9,6,15,12,5,8,4,10,13,1,14,7,3"
14152,commdev-image-keyboard-response,465,1219529,learnblock2,288.12500019557774,img/planet4_left.png,4,Community 2,NA,FALSE,j,f,NA,NA,NA,34,7,"2,11,9,6,15,12,5,8,4,10,13,1,14,7,3"
14152,commdev-image-keyboard-response,466,1220781,learnblock2,503.87499993667006,img/planet10_right.png,10,Community 2,NA,TRUE,j,j,NA,NA,NA,34,7,"2,11,9,6,15,12,5,8,4,10,13,1,14,7,3"
14152,commdev-image-keyboard-response,467,1222032,learnblock2,751.5750001184642,img/planet5_right.png,5,Community 2,NA,TRUE,j,j,NA,NA,NA,34,7,"2,11,9,6,15,12,5,8,4,10,13,1,14,7,3"
14152,commdev-image-keyboard-response,468,1223286,learnblock2,685.2199998684227,img/planet10_right.png,10,Community 2,NA,TRUE,j,j,NA,NA,NA,34,7,"2,11,9,6,15,12,5,8,4,10,13,1,14,7,3"
14152,commdev-image-keyboard-response,469,1224537,learnblock2,737.0599999558181,img/planet12_left.png,12,Community 2,NA,TRUE,f,f,NA,NA,NA,34,7,"2,11,9,6,15,12,5,8,4,10,13,1,14,7,3"
14152,commdev-image-keyboard-response,470,1225789,learnblock2,804.8600000329316,img/planet5_left.png,5,Community 2,NA,TRUE,f,f,NA,NA,NA,34,7,"2,11,9,6,15,12,5,8,4,10,13,1,14,7,3"
14152,commdev-image-keyboard-response,471,1227043,learnblock2,812.5699998345226,img/planet10_right.png,10,Community 2,NA,TRUE,j,j,NA,NA,NA,34,7,"2,11,9,6,15,12,5,8,4,10,13,1,14,7,3"
14152,commdev-image-keyboard-response,472,1228299,learnblock2,533.7799999397248,img/planet4_left.png,4,Community 2,NA,TRUE,f,f,NA,NA,NA,34,7,"2,11,9,6,15,12,5,8,4,10,13,1,14,7,3"
14152,commdev-image-keyboard-response,473,1229550,learnblock2,390.0200000498444,img/planet12_right.png,12,Community 2,NA,TRUE,j,j,NA,NA,NA,34,7,"2,11,9,6,15,12,5,8,4,10,13,1,14,7,3"
14152,commdev-image-keyboard-response,474,1230803,learnblock2,233.8549999985844,img/planet10_right.png,10,Community 2,NA,FALSE,f,j,NA,NA,NA,34,7,"2,11,9,6,15,12,5,8,4,10,13,1,14,7,3"
14152,commdev-image-keyboard-response,475,1232055,learnblock2,840.4549998231232,img/planet8_left.png,8,Community 2,NA,TRUE,f,f,NA,NA,NA,34,7,"2,11,9,6,15,12,5,8,4,10,13,1,14,7,3"
14152,commdev-image-keyboard-response,476,1233306,learnblock2,982.964999973774,img/planet4_right.png,4,Community 2,NA,TRUE,j,j,NA,NA,NA,34,7,"2,11,9,6,15,12,5,8,4,10,13,1,14,7,3"
14152,commdev-image-keyboard-response,477,1234557,learnblock2,1037.2199998237193,img/planet8_right.png,8,Community 2,NA,TRUE,j,j,NA,NA,NA,34,7,"2,11,9,6,15,12,5,8,4,10,13,1,14,7,3"
14152,commdev-image-keyboard-response,478,1235813,learnblock2,835.9700001310557,img/planet1_left.png,1,Community 3,NA,TRUE,f,f,NA,NA,NA,34,7,"2,11,9,6,15,12,5,8,4,10,13,1,14,7,3"
14152,commdev-image-keyboard-response,479,1237067,learnblock2,854.7600000165403,img/planet8_left.png,8,Community 2,NA,TRUE,f,f,NA,NA,NA,34,7,"2,11,9,6,15,12,5,8,4,10,13,1,14,7,3"
14152,commdev-image-keyboard-response,480,1238321,learnblock2,621.504999930039,img/planet5_right.png,5,Community 2,NA,FALSE,f,j,NA,NA,NA,34,7,"2,11,9,6,15,12,5,8,4,10,13,1,14,7,3"
14152,commdev-image-keyboard-response,481,1239571,learnblock2,701.7699999269098,img/planet8_right.png,8,Community 2,NA,FALSE,f,j,NA,NA,NA,34,7,"2,11,9,6,15,12,5,8,4,10,13,1,14,7,3"
14152,commdev-image-keyboard-response,482,1240826,learnblock2,1041.7800000868738,img/planet5_left.png,5,Community 2,NA,TRUE,f,f,NA,NA,NA,34,7,"2,11,9,6,15,12,5,8,4,10,13,1,14,7,3"
14152,commdev-image-keyboard-response,483,1242080,learnblock2,611.6499998606741,img/planet4_right.png,4,Community 2,NA,TRUE,j,j,NA,NA,NA,34,7,"2,11,9,6,15,12,5,8,4,10,13,1,14,7,3"
14152,commdev-image-keyboard-response,484,1243332,learnblock2,288.620000006631,img/planet12_right.png,12,Community 2,NA,FALSE,f,j,NA,NA,NA,34,7,"2,11,9,6,15,12,5,8,4,10,13,1,14,7,3"
14152,commdev-image-keyboard-response,485,1244583,learnblock2,986.4149999339134,img/planet4_right.png,4,Community 2,NA,TRUE,j,j,NA,NA,NA,34,7,"2,11,9,6,15,12,5,8,4,10,13,1,14,7,3"
14152,commdev-image-keyboard-response,486,1245838,learnblock2,845.000000204891,img/planet12_left.png,12,Community 2,NA,TRUE,f,f,NA,NA,NA,34,7,"2,11,9,6,15,12,5,8,4,10,13,1,14,7,3"
14152,commdev-image-keyboard-response,487,1247092,learnblock2,580.1399999763817,img/planet10_right.png,10,Community 2,NA,TRUE,j,j,NA,NA,NA,34,7,"2,11,9,6,15,12,5,8,4,10,13,1,14,7,3"
14152,commdev-image-keyboard-response,488,1248344,learnblock2,661.2250001635402,img/planet5_right.png,5,Community 2,NA,TRUE,j,j,NA,NA,NA,34,7,"2,11,9,6,15,12,5,8,4,10,13,1,14,7,3"
14152,commdev-image-keyboard-response,489,1249596,learnblock2,714.2999998759478,img/planet12_left.png,12,Community 2,NA,TRUE,f,f,NA,NA,NA,34,7,"2,11,9,6,15,12,5,8,4,10,13,1,14,7,3"
14152,commdev-image-keyboard-response,490,1250849,learnblock2,542.4600001424551,img/planet10_right.png,10,Community 2,NA,TRUE,j,j,NA,NA,NA,34,7,"2,11,9,6,15,12,5,8,4,10,13,1,14,7,3"
14152,commdev-image-keyboard-response,491,1252101,learnblock2,563.7149999383837,img/planet12_left.png,12,Community 2,NA,TRUE,f,f,NA,NA,NA,34,7,"2,11,9,6,15,12,5,8,4,10,13,1,14,7,3"
14152,commdev-image-keyboard-response,492,1253353,learnblock2,902.534999884665,img/planet4_left.png,4,Community 2,NA,TRUE,f,f,NA,NA,NA,34,7,"2,11,9,6,15,12,5,8,4,10,13,1,14,7,3"
14152,commdev-image-keyboard-response,493,1254605,learnblock2,804.7150000929832,img/planet8_left.png,8,Community 2,NA,TRUE,f,f,NA,NA,NA,34,7,"2,11,9,6,15,12,5,8,4,10,13,1,14,7,3"
14152,commdev-image-keyboard-response,494,1255855,learnblock2,798.3550000935793,img/planet10_left.png,10,Community 2,NA,TRUE,f,f,NA,NA,NA,34,7,"2,11,9,6,15,12,5,8,4,10,13,1,14,7,3"
14152,commdev-image-keyboard-response,495,1257108,learnblock2,642.9299998562783,img/planet12_left.png,12,Community 2,NA,TRUE,f,f,NA,NA,NA,34,7,"2,11,9,6,15,12,5,8,4,10,13,1,14,7,3"
14152,commdev-image-keyboard-response,496,1258363,learnblock2,649.7100000269711,img/planet4_right.png,4,Community 2,NA,FALSE,f,j,NA,NA,NA,34,7,"2,11,9,6,15,12,5,8,4,10,13,1,14,7,3"
14152,commdev-image-keyboard-response,497,1259618,learnblock2,759.5549998804927,img/planet10_left.png,10,Community 2,NA,TRUE,f,f,NA,NA,NA,34,7,"2,11,9,6,15,12,5,8,4,10,13,1,14,7,3"
14152,commdev-image-keyboard-response,498,1260870,learnblock2,718.6549999751151,img/planet5_left.png,5,Community 2,NA,TRUE,f,f,NA,NA,NA,34,7,"2,11,9,6,15,12,5,8,4,10,13,1,14,7,3"
14152,commdev-image-keyboard-response,499,1262123,learnblock2,847.7149999234825,img/planet8_right.png,8,Community 2,NA,TRUE,j,j,NA,NA,NA,34,7,"2,11,9,6,15,12,5,8,4,10,13,1,14,7,3"
14152,commdev-image-keyboard-response,500,1263377,learnblock2,643.8100000377744,img/planet5_right.png,5,Community 2,NA,FALSE,f,j,NA,NA,NA,34,7,"2,11,9,6,15,12,5,8,4,10,13,1,14,7,3"
14152,commdev-image-keyboard-response,501,1264630,learnblock2,936.2449999898672,img/planet4_right.png,4,Community 2,NA,TRUE,j,j,NA,NA,NA,34,7,"2,11,9,6,15,12,5,8,4,10,13,1,14,7,3"
14152,commdev-image-keyboard-response,502,1265881,learnblock2,747.4100000690669,img/planet12_right.png,12,Community 2,NA,FALSE,f,j,NA,NA,NA,34,7,"2,11,9,6,15,12,5,8,4,10,13,1,14,7,3"
14152,commdev-image-keyboard-response,503,1267135,learnblock2,711.8600001558661,img/planet5_right.png,5,Community 2,NA,TRUE,j,j,NA,NA,NA,34,7,"2,11,9,6,15,12,5,8,4,10,13,1,14,7,3"
14152,commdev-image-keyboard-response,504,1268389,learnblock2,582.5199999380857,img/planet10_right.png,10,Community 2,NA,TRUE,j,j,NA,NA,NA,34,7,"2,11,9,6,15,12,5,8,4,10,13,1,14,7,3"
14152,commdev-image-keyboard-response,505,1269642,learnblock2,1098.4100000932813,img/planet8_right.png,8,Community 2,NA,TRUE,j,j,NA,NA,NA,34,7,"2,11,9,6,15,12,5,8,4,10,13,1,14,7,3"
14152,commdev-image-keyboard-response,506,1270897,learnblock2,880.3449999541044,img/planet4_left.png,4,Community 2,NA,TRUE,f,f,NA,NA,NA,34,7,"2,11,9,6,15,12,5,8,4,10,13,1,14,7,3"
14152,commdev-image-keyboard-response,507,1272153,learnblock2,629.8699998296797,img/planet8_right.png,8,Community 2,NA,TRUE,j,j,NA,NA,NA,34,7,"2,11,9,6,15,12,5,8,4,10,13,1,14,7,3"
14152,commdev-image-keyboard-response,508,1273409,learnblock2,604.0250000078231,img/planet1_right.png,1,Community 3,NA,FALSE,f,j,NA,NA,NA,34,7,"2,11,9,6,15,12,5,8,4,10,13,1,14,7,3"
14152,commdev-image-keyboard-response,509,1274662,learnblock2,null,img/planet3_right.png,3,Community 3,NA,FALSE,null,j,NA,NA,NA,34,7,"2,11,9,6,15,12,5,8,4,10,13,1,14,7,3"
14152,commdev-image-keyboard-response,510,1275914,learnblock2,45.4500000923872,img/planet1_left.png,1,Community 3,NA,TRUE,f,f,NA,NA,NA,34,7,"2,11,9,6,15,12,5,8,4,10,13,1,14,7,3"
14152,commdev-image-keyboard-response,511,1277166,learnblock2,263.8749999459833,img/planet3_right.png,3,Community 3,NA,FALSE,f,j,NA,NA,NA,34,7,"2,11,9,6,15,12,5,8,4,10,13,1,14,7,3"
14152,commdev-image-keyboard-response,512,1278418,learnblock2,405.6049999780953,img/planet1_right.png,1,Community 3,NA,FALSE,f,j,NA,NA,NA,34,7,"2,11,9,6,15,12,5,8,4,10,13,1,14,7,3"
14152,commdev-image-keyboard-response,513,1279673,learnblock2,354.7350000590086,img/planet7_left.png,7,Community 3,NA,TRUE,f,f,NA,NA,NA,34,7,"2,11,9,6,15,12,5,8,4,10,13,1,14,7,3"
14152,commdev-image-keyboard-response,514,1280924,learnblock2,148.97999982349575,img/planet3_right.png,3,Community 3,NA,FALSE,f,j,NA,NA,NA,34,7,"2,11,9,6,15,12,5,8,4,10,13,1,14,7,3"
14152,commdev-image-keyboard-response,515,1282179,learnblock2,787.9050001502037,img/planet14_left.png,14,Community 3,NA,TRUE,f,f,NA,NA,NA,34,7,"2,11,9,6,15,12,5,8,4,10,13,1,14,7,3"
14152,commdev-image-keyboard-response,516,1283434,learnblock2,672.3450000863522,img/planet1_right.png,1,Community 3,NA,FALSE,f,j,NA,NA,NA,34,7,"2,11,9,6,15,12,5,8,4,10,13,1,14,7,3"
14152,commdev-image-keyboard-response,517,1284689,learnblock2,843.614999903366,img/planet8_right.png,8,Community 2,NA,FALSE,f,j,NA,NA,NA,34,7,"2,11,9,6,15,12,5,8,4,10,13,1,14,7,3"
14152,commdev-image-keyboard-response,518,1285940,learnblock2,743.284999858588,img/planet1_right.png,1,Community 3,NA,TRUE,j,j,NA,NA,NA,34,7,"2,11,9,6,15,12,5,8,4,10,13,1,14,7,3"
14152,commdev-image-keyboard-response,519,1287191,learnblock2,1171.7550000175834,img/planet14_left.png,14,Community 3,NA,FALSE,j,f,NA,NA,NA,34,7,"2,11,9,6,15,12,5,8,4,10,13,1,14,7,3"
14152,commdev-image-keyboard-response,520,1288442,learnblock2,971.1599999573082,img/planet3_right.png,3,Community 3,NA,FALSE,f,j,NA,NA,NA,34,7,"2,11,9,6,15,12,5,8,4,10,13,1,14,7,3"
14152,commdev-image-keyboard-response,521,1289696,learnblock2,754.4400000479072,img/planet1_left.png,1,Community 3,NA,TRUE,f,f,NA,NA,NA,34,7,"2,11,9,6,15,12,5,8,4,10,13,1,14,7,3"
14152,commdev-image-keyboard-response,522,1290947,learnblock2,715.3249999973923,img/planet8_left.png,8,Community 2,NA,TRUE,f,f,NA,NA,NA,34,7,"2,11,9,6,15,12,5,8,4,10,13,1,14,7,3"
14152,commdev-image-keyboard-response,523,1292200,learnblock2,515.1100000366569,img/planet10_right.png,10,Community 2,NA,FALSE,f,j,NA,NA,NA,34,7,"2,11,9,6,15,12,5,8,4,10,13,1,14,7,3"
14152,commdev-image-keyboard-response,524,1293452,learnblock2,null,img/planet12_left.png,12,Community 2,NA,FALSE,null,f,NA,NA,NA,34,7,"2,11,9,6,15,12,5,8,4,10,13,1,14,7,3"
14152,commdev-image-keyboard-response,525,1294703,learnblock2,875.2150000073016,img/planet5_right.png,5,Community 2,NA,TRUE,j,j,NA,NA,NA,34,7,"2,11,9,6,15,12,5,8,4,10,13,1,14,7,3"
14152,commdev-image-keyboard-response,526,1295956,learnblock2,null,img/planet12_left.png,12,Community 2,NA,FALSE,null,f,NA,NA,NA,34,7,"2,11,9,6,15,12,5,8,4,10,13,1,14,7,3"
14152,commdev-image-keyboard-response,527,1297207,learnblock2,365.92999985441566,img/planet5_right.png,5,Community 2,NA,FALSE,f,j,NA,NA,NA,34,7,"2,11,9,6,15,12,5,8,4,10,13,1,14,7,3"
14152,commdev-image-keyboard-response,528,1298458,learnblock2,854.6500001102686,img/planet10_right.png,10,Community 2,NA,TRUE,j,j,NA,NA,NA,34,7,"2,11,9,6,15,12,5,8,4,10,13,1,14,7,3"
14152,commdev-image-keyboard-response,529,1299714,learnblock2,562.9600000102073,img/planet12_right.png,12,Community 2,NA,TRUE,j,j,NA,NA,NA,34,7,"2,11,9,6,15,12,5,8,4,10,13,1,14,7,3"
14152,commdev-image-keyboard-response,530,1300966,learnblock2,492.49499989673495,img/planet10_right.png,10,Community 2,NA,TRUE,j,j,NA,NA,NA,34,7,"2,11,9,6,15,12,5,8,4,10,13,1,14,7,3"
14152,commdev-image-keyboard-response,531,1302220,learnblock2,426.04000004939735,img/planet8_right.png,8,Community 2,NA,TRUE,j,j,NA,NA,NA,34,7,"2,11,9,6,15,12,5,8,4,10,13,1,14,7,3"
14152,commdev-image-keyboard-response,532,1303474,learnblock2,431.7799999844283,img/planet4_left.png,4,Community 2,NA,FALSE,j,f,NA,NA,NA,34,7,"2,11,9,6,15,12,5,8,4,10,13,1,14,7,3"
14152,commdev-image-keyboard-response,533,1304727,learnblock2,693.2449999731034,img/planet12_left.png,12,Community 2,NA,TRUE,f,f,NA,NA,NA,34,7,"2,11,9,6,15,12,5,8,4,10,13,1,14,7,3"
14152,commdev-image-keyboard-response,534,1305978,learnblock2,789.9499998893589,img/planet4_right.png,4,Community 2,NA,TRUE,j,j,NA,NA,NA,34,7,"2,11,9,6,15,12,5,8,4,10,13,1,14,7,3"
14152,commdev-image-keyboard-response,535,1307229,learnblock2,513.5699999518692,img/planet5_left.png,5,Community 2,NA,TRUE,f,f,NA,NA,NA,34,7,"2,11,9,6,15,12,5,8,4,10,13,1,14,7,3"
14152,commdev-image-keyboard-response,536,1308483,learnblock2,462.40999992005527,img/planet4_right.png,4,Community 2,NA,TRUE,j,j,NA,NA,NA,34,7,"2,11,9,6,15,12,5,8,4,10,13,1,14,7,3"
14152,commdev-image-keyboard-response,537,1309737,learnblock2,333.4150000009686,img/planet8_right.png,8,Community 2,NA,FALSE,f,j,NA,NA,NA,34,7,"2,11,9,6,15,12,5,8,4,10,13,1,14,7,3"
14152,commdev-image-keyboard-response,538,1310990,learnblock2,759.479999775067,img/planet4_left.png,4,Community 2,NA,TRUE,f,f,NA,NA,NA,34,7,"2,11,9,6,15,12,5,8,4,10,13,1,14,7,3"
14152,commdev-image-keyboard-response,539,1312244,learnblock2,571.2699999567121,img/planet10_left.png,10,Community 2,NA,FALSE,j,f,NA,NA,NA,34,7,"2,11,9,6,15,12,5,8,4,10,13,1,14,7,3"
14152,commdev-image-keyboard-response,540,1313496,learnblock2,891.3600000087172,img/planet5_left.png,5,Community 2,NA,TRUE,f,f,NA,NA,NA,34,7,"2,11,9,6,15,12,5,8,4,10,13,1,14,7,3"
14152,commdev-image-keyboard-response,541,1314747,learnblock2,705.8349999133497,img/planet8_right.png,8,Community 2,NA,TRUE,j,j,NA,NA,NA,34,7,"2,11,9,6,15,12,5,8,4,10,13,1,14,7,3"
14152,commdev-image-keyboard-response,542,1316003,learnblock2,908.9500000700355,img/planet5_left.png,5,Community 2,NA,TRUE,f,f,NA,NA,NA,34,7,"2,11,9,6,15,12,5,8,4,10,13,1,14,7,3"
14152,commdev-image-keyboard-response,543,1317254,learnblock2,688.7000000569969,img/planet8_left.png,8,Community 2,NA,FALSE,j,f,NA,NA,NA,34,7,"2,11,9,6,15,12,5,8,4,10,13,1,14,7,3"
14152,commdev-image-keyboard-response,544,1318508,learnblock2,1146.7150000389665,img/planet4_left.png,4,Community 2,NA,TRUE,f,f,NA,NA,NA,34,7,"2,11,9,6,15,12,5,8,4,10,13,1,14,7,3"
14152,commdev-image-keyboard-response,545,1319761,learnblock2,808.4249999374151,img/planet8_right.png,8,Community 2,NA,TRUE,j,j,NA,NA,NA,34,7,"2,11,9,6,15,12,5,8,4,10,13,1,14,7,3"
14152,commdev-image-keyboard-response,546,1321012,learnblock2,741.0699999891222,img/planet10_right.png,10,Community 2,NA,TRUE,j,j,NA,NA,NA,34,7,"2,11,9,6,15,12,5,8,4,10,13,1,14,7,3"
14152,commdev-image-keyboard-response,547,1322265,learnblock2,869.3249998614192,img/planet5_left.png,5,Community 2,NA,TRUE,f,f,NA,NA,NA,34,7,"2,11,9,6,15,12,5,8,4,10,13,1,14,7,3"
14152,commdev-image-keyboard-response,548,1323520,learnblock2,1025.4850001074374,img/planet10_right.png,10,Community 2,NA,TRUE,j,j,NA,NA,NA,34,7,"2,11,9,6,15,12,5,8,4,10,13,1,14,7,3"
14152,commdev-image-keyboard-response,549,1324773,learnblock2,925.9649999439716,img/planet5_right.png,5,Community 2,NA,TRUE,j,j,NA,NA,NA,34,7,"2,11,9,6,15,12,5,8,4,10,13,1,14,7,3"
14152,commdev-image-keyboard-response,550,1326027,learnblock2,857.7800001949072,img/planet8_left.png,8,Community 2,NA,TRUE,f,f,NA,NA,NA,34,7,"2,11,9,6,15,12,5,8,4,10,13,1,14,7,3"
14152,commdev-image-keyboard-response,551,1327279,learnblock2,729.5450000092387,img/planet1_left.png,1,Community 3,NA,TRUE,f,f,NA,NA,NA,34,7,"2,11,9,6,15,12,5,8,4,10,13,1,14,7,3"
14152,commdev-image-keyboard-response,552,1328533,learnblock2,918.5099999886006,img/planet7_right.png,7,Community 3,NA,TRUE,j,j,NA,NA,NA,34,7,"2,11,9,6,15,12,5,8,4,10,13,1,14,7,3"
14152,commdev-image-keyboard-response,553,1329784,learnblock2,908.40999991633,img/planet3_right.png,3,Community 3,NA,TRUE,j,j,NA,NA,NA,34,7,"2,11,9,6,15,12,5,8,4,10,13,1,14,7,3"
14152,commdev-image-keyboard-response,554,1331038,learnblock2,797.1600000746548,img/planet13_left.png,13,Community 3,NA,TRUE,f,f,NA,NA,NA,34,7,"2,11,9,6,15,12,5,8,4,10,13,1,14,7,3"
14152,commdev-image-keyboard-response,555,1332291,learnblock2,728.4099999815226,img/planet14_right.png,14,Community 3,NA,FALSE,f,j,NA,NA,NA,34,7,"2,11,9,6,15,12,5,8,4,10,13,1,14,7,3"
14152,commdev-image-keyboard-response,556,1333545,learnblock2,929.47500012815,img/planet7_left.png,7,Community 3,NA,TRUE,f,f,NA,NA,NA,34,7,"2,11,9,6,15,12,5,8,4,10,13,1,14,7,3"
14152,commdev-image-keyboard-response,557,1334796,learnblock2,695.4799999948591,img/planet3_left.png,3,Community 3,NA,TRUE,f,f,NA,NA,NA,34,7,"2,11,9,6,15,12,5,8,4,10,13,1,14,7,3"
14152,commdev-image-keyboard-response,558,1336047,learnblock2,914.7699999157339,img/planet13_right.png,13,Community 3,NA,TRUE,j,j,NA,NA,NA,34,7,"2,11,9,6,15,12,5,8,4,10,13,1,14,7,3"
14152,commdev-image-keyboard-response,559,1337302,learnblock2,1103.7049998994917,img/planet3_left.png,3,Community 3,NA,TRUE,f,f,NA,NA,NA,34,7,"2,11,9,6,15,12,5,8,4,10,13,1,14,7,3"
14152,commdev-image-keyboard-response,560,1338553,learnblock2,883.620000211522,img/planet1_left.png,1,Community 3,NA,TRUE,f,f,NA,NA,NA,34,7,"2,11,9,6,15,12,5,8,4,10,13,1,14,7,3"
14152,commdev-image-keyboard-response,561,1339809,learnblock2,712.4050001148134,img/planet7_right.png,7,Community 3,NA,TRUE,j,j,NA,NA,NA,34,7,"2,11,9,6,15,12,5,8,4,10,13,1,14,7,3"
14152,commdev-image-keyboard-response,562,1341060,learnblock2,687.0149997994304,img/planet14_right.png,14,Community 3,NA,FALSE,f,j,NA,NA,NA,34,7,"2,11,9,6,15,12,5,8,4,10,13,1,14,7,3"
14152,commdev-image-keyboard-response,563,1342315,learnblock2,966.9349999167025,img/planet7_left.png,7,Community 3,NA,TRUE,f,f,NA,NA,NA,34,7,"2,11,9,6,15,12,5,8,4,10,13,1,14,7,3"
14152,commdev-image-keyboard-response,564,1343567,learnblock2,625.6649999413639,img/planet1_left.png,1,Community 3,NA,TRUE,f,f,NA,NA,NA,34,7,"2,11,9,6,15,12,5,8,4,10,13,1,14,7,3"
14152,commdev-image-keyboard-response,565,1344821,learnblock2,557.960000121966,img/planet3_left.png,3,Community 3,NA,TRUE,f,f,NA,NA,NA,34,7,"2,11,9,6,15,12,5,8,4,10,13,1,14,7,3"
14152,commdev-image-keyboard-response,566,1346075,learnblock2,624.3199999444187,img/planet13_left.png,13,Community 3,NA,TRUE,f,f,NA,NA,NA,34,7,"2,11,9,6,15,12,5,8,4,10,13,1,14,7,3"
14152,commdev-image-keyboard-response,567,1347327,learnblock2,750.3050002269447,img/planet15_right.png,15,Community 1,NA,TRUE,j,j,NA,NA,NA,34,7,"2,11,9,6,15,12,5,8,4,10,13,1,14,7,3"
14152,commdev-image-keyboard-response,568,1348583,learnblock2,758.4900001529604,img/planet11_right.png,11,Community 1,NA,TRUE,j,j,NA,NA,NA,34,7,"2,11,9,6,15,12,5,8,4,10,13,1,14,7,3"
14152,commdev-image-keyboard-response,569,1349836,learnblock2,552.6649998500943,img/planet15_right.png,15,Community 1,NA,TRUE,j,j,NA,NA,NA,34,7,"2,11,9,6,15,12,5,8,4,10,13,1,14,7,3"
14152,commdev-image-keyboard-response,570,1351088,learnblock2,783.9149998035282,img/planet9_left.png,9,Community 1,NA,TRUE,f,f,NA,NA,NA,34,7,"2,11,9,6,15,12,5,8,4,10,13,1,14,7,3"
14152,commdev-image-keyboard-response,571,1352338,learnblock2,718.0200000293553,img/planet6_right.png,6,Community 1,NA,TRUE,j,j,NA,NA,NA,34,7,"2,11,9,6,15,12,5,8,4,10,13,1,14,7,3"
14152,commdev-image-keyboard-response,572,1353592,learnblock2,696.9500000122935,img/planet9_left.png,9,Community 1,NA,FALSE,j,f,NA,NA,NA,34,7,"2,11,9,6,15,12,5,8,4,10,13,1,14,7,3"
14152,commdev-image-keyboard-response,573,1354844,learnblock2,673.8150001037866,img/planet11_right.png,11,Community 1,NA,FALSE,f,j,NA,NA,NA,34,7,"2,11,9,6,15,12,5,8,4,10,13,1,14,7,3"
14152,commdev-image-keyboard-response,574,1356096,learnblock2,831.4049998298287,img/planet15_left.png,15,Community 1,NA,TRUE,f,f,NA,NA,NA,34,7,"2,11,9,6,15,12,5,8,4,10,13,1,14,7,3"
14152,commdev-image-keyboard-response,575,1357350,learnblock2,629.3250001035631,img/planet11_left.png,11,Community 1,NA,TRUE,f,f,NA,NA,NA,34,7,"2,11,9,6,15,12,5,8,4,10,13,1,14,7,3"
14152,commdev-image-keyboard-response,576,1358601,learnblock2,861.1999999266118,img/planet6_left.png,6,Community 1,NA,TRUE,f,f,NA,NA,NA,34,7,"2,11,9,6,15,12,5,8,4,10,13,1,14,7,3"
14152,commdev-image-keyboard-response,577,1359854,learnblock2,659.419999923557,img/planet11_left.png,11,Community 1,NA,TRUE,f,f,NA,NA,NA,34,7,"2,11,9,6,15,12,5,8,4,10,13,1,14,7,3"
14152,commdev-image-keyboard-response,578,1361107,learnblock2,770.8399998955429,img/planet15_right.png,15,Community 1,NA,TRUE,j,j,NA,NA,NA,34,7,"2,11,9,6,15,12,5,8,4,10,13,1,14,7,3"
14152,commdev-image-keyboard-response,579,1362358,learnblock2,702.9999999795109,img/planet2_right.png,2,Community 1,NA,TRUE,j,j,NA,NA,NA,34,7,"2,11,9,6,15,12,5,8,4,10,13,1,14,7,3"
14152,commdev-image-keyboard-response,580,1363611,learnblock2,846.1599999573082,img/planet9_right.png,9,Community 1,NA,TRUE,j,j,NA,NA,NA,34,7,"2,11,9,6,15,12,5,8,4,10,13,1,14,7,3"
14152,commdev-image-keyboard-response,581,1364867,learnblock2,839.3550000619143,img/planet6_left.png,6,Community 1,NA,TRUE,f,f,NA,NA,NA,34,7,"2,11,9,6,15,12,5,8,4,10,13,1,14,7,3"
14152,commdev-image-keyboard-response,582,1366121,learnblock2,918.3549999725074,img/planet12_right.png,12,Community 2,NA,TRUE,j,j,NA,NA,NA,34,7,"2,11,9,6,15,12,5,8,4,10,13,1,14,7,3"
14152,commdev-image-keyboard-response,583,1367373,learnblock2,923.3849998563528,img/planet5_left.png,5,Community 2,NA,FALSE,j,f,NA,NA,NA,34,7,"2,11,9,6,15,12,5,8,4,10,13,1,14,7,3"
14152,commdev-image-keyboard-response,584,1368626,learnblock2,1141.9249998871237,img/planet4_left.png,4,Community 2,NA,TRUE,f,f,NA,NA,NA,34,7,"2,11,9,6,15,12,5,8,4,10,13,1,14,7,3"
14152,commdev-image-keyboard-response,585,1369881,learnblock2,788.535000057891,img/planet10_left.png,10,Community 2,NA,TRUE,f,f,NA,NA,NA,34,7,"2,11,9,6,15,12,5,8,4,10,13,1,14,7,3"
14152,commdev-image-keyboard-response,586,1371134,learnblock2,868.4449999127537,img/planet4_right.png,4,Community 2,NA,TRUE,j,j,NA,NA,NA,34,7,"2,11,9,6,15,12,5,8,4,10,13,1,14,7,3"
14152,commdev-image-keyboard-response,587,1372386,learnblock2,545.0850001070648,img/planet8_left.png,8,Community 2,NA,TRUE,f,f,NA,NA,NA,34,7,"2,11,9,6,15,12,5,8,4,10,13,1,14,7,3"
14152,commdev-image-keyboard-response,588,1373640,learnblock2,704.4199998490512,img/planet1_left.png,1,Community 3,NA,TRUE,f,f,NA,NA,NA,34,7,"2,11,9,6,15,12,5,8,4,10,13,1,14,7,3"
14152,commdev-image-keyboard-response,589,1374894,learnblock2,680.4649999830872,img/planet3_left.png,3,Community 3,NA,TRUE,f,f,NA,NA,NA,34,7,"2,11,9,6,15,12,5,8,4,10,13,1,14,7,3"
14152,commdev-image-keyboard-response,590,1376149,learnblock2,580.1649999339134,img/planet13_right.png,13,Community 3,NA,FALSE,f,j,NA,NA,NA,34,7,"2,11,9,6,15,12,5,8,4,10,13,1,14,7,3"
14152,commdev-image-keyboard-response,591,1377401,learnblock2,945.1250000856817,img/planet3_right.png,3,Community 3,NA,TRUE,j,j,NA,NA,NA,34,7,"2,11,9,6,15,12,5,8,4,10,13,1,14,7,3"
14152,commdev-image-keyboard-response,592,1378654,learnblock2,608.9200000278652,img/planet13_left.png,13,Community 3,NA,FALSE,j,f,NA,NA,NA,34,7,"2,11,9,6,15,12,5,8,4,10,13,1,14,7,3"
14152,commdev-image-keyboard-response,593,1379906,learnblock2,781.0049999970943,img/planet3_right.png,3,Community 3,NA,FALSE,f,j,NA,NA,NA,34,7,"2,11,9,6,15,12,5,8,4,10,13,1,14,7,3"
14152,commdev-image-keyboard-response,594,1381157,learnblock2,1043.6450000852346,img/planet13_left.png,13,Community 3,NA,TRUE,f,f,NA,NA,NA,34,7,"2,11,9,6,15,12,5,8,4,10,13,1,14,7,3"
14152,commdev-image-keyboard-response,595,1382412,learnblock2,872.484999941662,img/planet3_right.png,3,Community 3,NA,TRUE,j,j,NA,NA,NA,34,7,"2,11,9,6,15,12,5,8,4,10,13,1,14,7,3"
14152,commdev-image-keyboard-response,596,1383666,learnblock2,967.255000025034,img/planet1_left.png,1,Community 3,NA,FALSE,j,f,NA,NA,NA,34,7,"2,11,9,6,15,12,5,8,4,10,13,1,14,7,3"
14152,commdev-image-keyboard-response,597,1384918,learnblock2,1048.7349999602884,img/planet3_right.png,3,Community 3,NA,TRUE,j,j,NA,NA,NA,34,7,"2,11,9,6,15,12,5,8,4,10,13,1,14,7,3"
14152,commdev-image-keyboard-response,598,1386171,learnblock2,891.910000005737,img/planet13_left.png,13,Community 3,NA,TRUE,f,f,NA,NA,NA,34,7,"2,11,9,6,15,12,5,8,4,10,13,1,14,7,3"
14152,commdev-image-keyboard-response,599,1387424,learnblock2,853.2950000371784,img/planet3_left.png,3,Community 3,NA,TRUE,f,f,NA,NA,NA,34,7,"2,11,9,6,15,12,5,8,4,10,13,1,14,7,3"
14152,commdev-image-keyboard-response,600,1388679,learnblock2,515.5599999707192,img/planet13_right.png,13,Community 3,NA,TRUE,j,j,NA,NA,NA,34,7,"2,11,9,6,15,12,5,8,4,10,13,1,14,7,3"
14152,commdev-image-keyboard-response,601,1389930,learnblock2,925.4349998664111,img/planet15_left.png,15,Community 1,NA,TRUE,f,f,NA,NA,NA,34,7,"2,11,9,6,15,12,5,8,4,10,13,1,14,7,3"
14152,commdev-image-keyboard-response,602,1391184,learnblock2,829.5950000174344,img/planet9_left.png,9,Community 1,NA,TRUE,f,f,NA,NA,NA,34,7,"2,11,9,6,15,12,5,8,4,10,13,1,14,7,3"
14152,commdev-image-keyboard-response,603,1392440,learnblock2,700.5899997893721,img/planet6_right.png,6,Community 1,NA,TRUE,j,j,NA,NA,NA,34,7,"2,11,9,6,15,12,5,8,4,10,13,1,14,7,3"
14152,commdev-image-keyboard-response,604,1393693,learnblock2,494.60499989800155,img/planet2_right.png,2,Community 1,NA,FALSE,f,j,NA,NA,NA,34,7,"2,11,9,6,15,12,5,8,4,10,13,1,14,7,3"
14152,commdev-image-keyboard-response,605,1394948,learnblock2,876.5199999324977,img/planet15_left.png,15,Community 1,NA,TRUE,f,f,NA,NA,NA,34,7,"2,11,9,6,15,12,5,8,4,10,13,1,14,7,3"
14152,commdev-image-keyboard-response,606,1396199,learnblock2,971.3699999265373,img/planet13_left.png,13,Community 3,NA,TRUE,f,f,NA,NA,NA,34,7,"2,11,9,6,15,12,5,8,4,10,13,1,14,7,3"
14152,commdev-image-keyboard-response,607,1397450,learnblock2,725.2449998632073,img/planet7_left.png,7,Community 3,NA,TRUE,f,f,NA,NA,NA,34,7,"2,11,9,6,15,12,5,8,4,10,13,1,14,7,3"
14152,commdev-image-keyboard-response,608,1398701,learnblock2,1198.9449998363853,img/planet3_right.png,3,Community 3,NA,TRUE,j,j,NA,NA,NA,34,7,"2,11,9,6,15,12,5,8,4,10,13,1,14,7,3"
14152,commdev-image-keyboard-response,609,1399952,learnblock2,877.8200000524521,img/planet1_right.png,1,Community 3,NA,TRUE,j,j,NA,NA,NA,34,7,"2,11,9,6,15,12,5,8,4,10,13,1,14,7,3"
14152,commdev-image-keyboard-response,610,1401204,learnblock2,917.7550000604242,img/planet14_left.png,14,Community 3,NA,TRUE,f,f,NA,NA,NA,34,7,"2,11,9,6,15,12,5,8,4,10,13,1,14,7,3"
14152,commdev-image-keyboard-response,611,1402457,learnblock2,895.079999929294,img/planet7_right.png,7,Community 3,NA,TRUE,j,j,NA,NA,NA,34,7,"2,11,9,6,15,12,5,8,4,10,13,1,14,7,3"
14152,commdev-image-keyboard-response,612,1403711,learnblock2,722.0200002193451,img/planet1_left.png,1,Community 3,NA,TRUE,f,f,NA,NA,NA,34,7,"2,11,9,6,15,12,5,8,4,10,13,1,14,7,3"
14152,commdev-image-keyboard-response,613,1404966,learnblock2,1028.5900000017136,img/planet8_left.png,8,Community 2,NA,TRUE,f,f,NA,NA,NA,34,7,"2,11,9,6,15,12,5,8,4,10,13,1,14,7,3"
14152,commdev-image-keyboard-response,614,1406218,learnblock2,958.2100000698119,img/planet1_right.png,1,Community 3,NA,FALSE,f,j,NA,NA,NA,34,7,"2,11,9,6,15,12,5,8,4,10,13,1,14,7,3"
14152,commdev-image-keyboard-response,615,1407470,learnblock2,139.65000002644956,img/planet8_left.png,8,Community 2,NA,FALSE,j,f,NA,NA,NA,34,7,"2,11,9,6,15,12,5,8,4,10,13,1,14,7,3"
14152,commdev-image-keyboard-response,616,1408723,learnblock2,658.3700000774115,img/planet1_left.png,1,Community 3,NA,TRUE,f,f,NA,NA,NA,34,7,"2,11,9,6,15,12,5,8,4,10,13,1,14,7,3"
14152,commdev-image-keyboard-response,617,1409979,learnblock2,365.2350001502782,img/planet3_left.png,3,Community 3,NA,TRUE,f,f,NA,NA,NA,34,7,"2,11,9,6,15,12,5,8,4,10,13,1,14,7,3"
14152,commdev-image-keyboard-response,618,1411231,learnblock2,504.3950001709163,img/planet13_right.png,13,Community 3,NA,FALSE,f,j,NA,NA,NA,34,7,"2,11,9,6,15,12,5,8,4,10,13,1,14,7,3"
14152,commdev-image-keyboard-response,619,1412482,learnblock2,1008.7150000035763,img/planet15_right.png,15,Community 1,NA,TRUE,j,j,NA,NA,NA,34,7,"2,11,9,6,15,12,5,8,4,10,13,1,14,7,3"
14152,commdev-image-keyboard-response,620,1413733,learnblock2,746.9699999783188,img/planet11_right.png,11,Community 1,NA,TRUE,j,j,NA,NA,NA,34,7,"2,11,9,6,15,12,5,8,4,10,13,1,14,7,3"
14152,commdev-image-keyboard-response,621,1414989,learnblock2,410.35999986343086,img/planet15_left.png,15,Community 1,NA,FALSE,j,f,NA,NA,NA,34,7,"2,11,9,6,15,12,5,8,4,10,13,1,14,7,3"
14152,commdev-image-keyboard-response,622,1416242,learnblock2,354.47499994188547,img/planet2_right.png,2,Community 1,NA,TRUE,j,j,NA,NA,NA,34,7,"2,11,9,6,15,12,5,8,4,10,13,1,14,7,3"
14152,commdev-image-keyboard-response,623,1417497,learnblock2,286.21999989263713,img/planet9_left.png,9,Community 1,NA,FALSE,j,f,NA,NA,NA,34,7,"2,11,9,6,15,12,5,8,4,10,13,1,14,7,3"
14152,commdev-image-keyboard-response,624,1418748,learnblock2,726.9450000021607,img/planet6_right.png,6,Community 1,NA,TRUE,j,j,NA,NA,NA,34,7,"2,11,9,6,15,12,5,8,4,10,13,1,14,7,3"
14152,commdev-image-keyboard-response,625,1420000,learnblock2,660.31499998644,img/planet11_right.png,11,Community 1,NA,TRUE,j,j,NA,NA,NA,34,7,"2,11,9,6,15,12,5,8,4,10,13,1,14,7,3"
14152,commdev-image-keyboard-response,626,1421251,learnblock2,1134.0149999596179,img/planet9_right.png,9,Community 1,NA,TRUE,j,j,NA,NA,NA,34,7,"2,11,9,6,15,12,5,8,4,10,13,1,14,7,3"
14152,commdev-image-keyboard-response,627,1422503,learnblock2,842.4849999137223,img/planet2_left.png,2,Community 1,NA,TRUE,f,f,NA,NA,NA,34,7,"2,11,9,6,15,12,5,8,4,10,13,1,14,7,3"
14152,commdev-image-keyboard-response,628,1423755,learnblock2,700.9150001686066,img/planet6_left.png,6,Community 1,NA,FALSE,j,f,NA,NA,NA,34,7,"2,11,9,6,15,12,5,8,4,10,13,1,14,7,3"
14152,commdev-image-keyboard-response,629,1425008,learnblock2,994.0249999053776,img/planet11_left.png,11,Community 1,NA,TRUE,f,f,NA,NA,NA,34,7,"2,11,9,6,15,12,5,8,4,10,13,1,14,7,3"
14152,commdev-image-keyboard-response,630,1426260,learnblock2,null,img/planet2_right.png,2,Community 1,NA,FALSE,null,j,NA,NA,NA,34,7,"2,11,9,6,15,12,5,8,4,10,13,1,14,7,3"
14152,commdev-image-keyboard-response,631,1427516,learnblock2,4.049999872222543,img/planet11_right.png,11,Community 1,NA,FALSE,f,j,NA,NA,NA,34,7,"2,11,9,6,15,12,5,8,4,10,13,1,14,7,3"
14152,commdev-image-keyboard-response,632,1428770,learnblock2,862.9699999000877,img/planet9_left.png,9,Community 1,NA,TRUE,f,f,NA,NA,NA,34,7,"2,11,9,6,15,12,5,8,4,10,13,1,14,7,3"
14152,commdev-image-keyboard-response,633,1430024,learnblock2,1048.7450000364333,img/planet15_left.png,15,Community 1,NA,TRUE,f,f,NA,NA,NA,34,7,"2,11,9,6,15,12,5,8,4,10,13,1,14,7,3"
14152,commdev-image-keyboard-response,634,1431275,learnblock2,784.7499998752028,img/planet9_right.png,9,Community 1,NA,TRUE,j,j,NA,NA,NA,34,7,"2,11,9,6,15,12,5,8,4,10,13,1,14,7,3"
14152,commdev-image-keyboard-response,635,1432530,learnblock2,673.2099999208003,img/planet15_left.png,15,Community 1,NA,TRUE,f,f,NA,NA,NA,34,7,"2,11,9,6,15,12,5,8,4,10,13,1,14,7,3"
14152,commdev-image-keyboard-response,636,1433783,learnblock2,602.9950000811368,img/planet9_right.png,9,Community 1,NA,TRUE,j,j,NA,NA,NA,34,7,"2,11,9,6,15,12,5,8,4,10,13,1,14,7,3"
14152,commdev-image-keyboard-response,637,1435034,learnblock2,940.6149999704212,img/planet11_left.png,11,Community 1,NA,TRUE,f,f,NA,NA,NA,34,7,"2,11,9,6,15,12,5,8,4,10,13,1,14,7,3"
14152,commdev-image-keyboard-response,638,1436284,learnblock2,860.0300000980496,img/planet2_left.png,2,Community 1,NA,TRUE,f,f,NA,NA,NA,34,7,"2,11,9,6,15,12,5,8,4,10,13,1,14,7,3"
14152,commdev-image-keyboard-response,639,1437539,learnblock2,703.1150001566857,img/planet11_right.png,11,Community 1,NA,TRUE,j,j,NA,NA,NA,34,7,"2,11,9,6,15,12,5,8,4,10,13,1,14,7,3"
14152,commdev-image-keyboard-response,640,1438794,learnblock2,498.7350001465529,img/planet9_right.png,9,Community 1,NA,FALSE,f,j,NA,NA,NA,34,7,"2,11,9,6,15,12,5,8,4,10,13,1,14,7,3"
14152,commdev-image-keyboard-response,641,1440047,learnblock2,819.554999936372,img/planet6_left.png,6,Community 1,NA,TRUE,f,f,NA,NA,NA,34,7,"2,11,9,6,15,12,5,8,4,10,13,1,14,7,3"
14152,commdev-image-keyboard-response,642,1441302,learnblock2,599.5950000360608,img/planet12_right.png,12,Community 2,NA,TRUE,j,j,NA,NA,NA,34,7,"2,11,9,6,15,12,5,8,4,10,13,1,14,7,3"
14152,commdev-image-keyboard-response,643,1442558,learnblock2,606.2150001525879,img/planet10_left.png,10,Community 2,NA,TRUE,f,f,NA,NA,NA,34,7,"2,11,9,6,15,12,5,8,4,10,13,1,14,7,3"
14152,commdev-image-keyboard-response,644,1443810,learnblock2,759.9750000517815,img/planet4_left.png,4,Community 2,NA,TRUE,f,f,NA,NA,NA,34,7,"2,11,9,6,15,12,5,8,4,10,13,1,14,7,3"
14152,commdev-image-keyboard-response,645,1445064,learnblock2,753.3700000494719,img/planet10_right.png,10,Community 2,NA,TRUE,j,j,NA,NA,NA,34,7,"2,11,9,6,15,12,5,8,4,10,13,1,14,7,3"
14152,commdev-image-keyboard-response,646,1446317,learnblock2,534.429999999702,img/planet8_left.png,8,Community 2,NA,TRUE,f,f,NA,NA,NA,34,7,"2,11,9,6,15,12,5,8,4,10,13,1,14,7,3"
14152,commdev-image-keyboard-response,647,1447572,learnblock2,375.4799999296665,img/planet1_right.png,1,Community 3,NA,TRUE,j,j,NA,NA,NA,34,7,"2,11,9,6,15,12,5,8,4,10,13,1,14,7,3"
14152,commdev-image-keyboard-response,648,1448825,learnblock2,501.5400000847876,img/planet8_left.png,8,Community 2,NA,FALSE,j,f,NA,NA,NA,34,7,"2,11,9,6,15,12,5,8,4,10,13,1,14,7,3"
14152,commdev-image-keyboard-response,649,1450076,learnblock2,717.0499998610467,img/planet1_left.png,1,Community 3,NA,TRUE,f,f,NA,NA,NA,34,7,"2,11,9,6,15,12,5,8,4,10,13,1,14,7,3"
14152,commdev-image-keyboard-response,650,1451327,learnblock2,831.9399999454618,img/planet3_left.png,3,Community 3,NA,TRUE,f,f,NA,NA,NA,34,7,"2,11,9,6,15,12,5,8,4,10,13,1,14,7,3"
14152,commdev-image-keyboard-response,651,1452582,learnblock2,780.3899999707937,img/planet14_left.png,14,Community 3,NA,TRUE,f,f,NA,NA,NA,34,7,"2,11,9,6,15,12,5,8,4,10,13,1,14,7,3"
14152,commdev-image-keyboard-response,652,1453835,learnblock2,560.5450000148267,img/planet3_left.png,3,Community 3,NA,TRUE,f,f,NA,NA,NA,34,7,"2,11,9,6,15,12,5,8,4,10,13,1,14,7,3"
14152,commdev-image-keyboard-response,653,1455088,learnblock2,927.5050000287592,img/planet1_left.png,1,Community 3,NA,TRUE,f,f,NA,NA,NA,34,7,"2,11,9,6,15,12,5,8,4,10,13,1,14,7,3"
14152,commdev-image-keyboard-response,654,1456341,learnblock2,679.8300000373274,img/planet3_left.png,3,Community 3,NA,TRUE,f,f,NA,NA,NA,34,7,"2,11,9,6,15,12,5,8,4,10,13,1,14,7,3"
14152,commdev-image-keyboard-response,655,1457592,learnblock2,821.2250000797212,img/planet14_left.png,14,Community 3,NA,TRUE,f,f,NA,NA,NA,34,7,"2,11,9,6,15,12,5,8,4,10,13,1,14,7,3"
14152,commdev-image-keyboard-response,656,1458846,learnblock2,1040.0449999142438,img/planet7_left.png,7,Community 3,NA,TRUE,f,f,NA,NA,NA,34,7,"2,11,9,6,15,12,5,8,4,10,13,1,14,7,3"
14152,commdev-image-keyboard-response,657,1460098,learnblock2,895.6849998794496,img/planet3_left.png,3,Community 3,NA,TRUE,f,f,NA,NA,NA,34,7,"2,11,9,6,15,12,5,8,4,10,13,1,14,7,3"
14152,commdev-image-keyboard-response,658,1461349,learnblock2,694.8850001208484,img/planet1_right.png,1,Community 3,NA,TRUE,j,j,NA,NA,NA,34,7,"2,11,9,6,15,12,5,8,4,10,13,1,14,7,3"
14152,commdev-image-keyboard-response,659,1462600,learnblock2,914.0600000973791,img/planet7_left.png,7,Community 3,NA,TRUE,f,f,NA,NA,NA,34,7,"2,11,9,6,15,12,5,8,4,10,13,1,14,7,3"
14152,commdev-image-keyboard-response,660,1463856,learnblock2,877.6150001212955,img/planet1_left.png,1,Community 3,NA,TRUE,f,f,NA,NA,NA,34,7,"2,11,9,6,15,12,5,8,4,10,13,1,14,7,3"
14152,commdev-image-keyboard-response,661,1465108,learnblock2,506.3650000374764,img/planet7_right.png,7,Community 3,NA,FALSE,f,j,NA,NA,NA,34,7,"2,11,9,6,15,12,5,8,4,10,13,1,14,7,3"
14152,commdev-image-keyboard-response,662,1466364,learnblock2,724.6199999935925,img/planet3_right.png,3,Community 3,NA,FALSE,f,j,NA,NA,NA,34,7,"2,11,9,6,15,12,5,8,4,10,13,1,14,7,3"
14152,commdev-image-keyboard-response,663,1467616,learnblock2,984.025000128895,img/planet14_left.png,14,Community 3,NA,TRUE,f,f,NA,NA,NA,34,7,"2,11,9,6,15,12,5,8,4,10,13,1,14,7,3"
14152,commdev-image-keyboard-response,664,1468866,learnblock2,null,img/planet1_right.png,1,Community 3,NA,FALSE,null,j,NA,NA,NA,34,7,"2,11,9,6,15,12,5,8,4,10,13,1,14,7,3"
14152,commdev-image-keyboard-response,665,1470117,learnblock2,731.774999992922,img/planet8_right.png,8,Community 2,NA,TRUE,j,j,NA,NA,NA,34,7,"2,11,9,6,15,12,5,8,4,10,13,1,14,7,3"
14152,commdev-image-keyboard-response,666,1471371,learnblock2,560.4550000280142,img/planet10_left.png,10,Community 2,NA,FALSE,j,f,NA,NA,NA,34,7,"2,11,9,6,15,12,5,8,4,10,13,1,14,7,3"
14152,commdev-image-keyboard-response,667,1472622,learnblock2,866.4799998514354,img/planet12_right.png,12,Community 2,NA,TRUE,j,j,NA,NA,NA,34,7,"2,11,9,6,15,12,5,8,4,10,13,1,14,7,3"
