subject_id,trial_type,trial_index,time_elapsed,block,rt,stimulus,planet,community,response,correct,key_press,learning_correct_response,parse,init_locations,final_locations,browser_interactions,num_comp,planet_map
14244,commdev-instructions,7,33854,NA,1553.1999988555908,"<p>In this game, you are a scientist on board a space shuttle. </p><p> On each mission, you will visit planets all across the universe.</p><img src=""img/controlroom.jpg"" width=300vw>",NA,NA,NA,NA,NA,NA,NA,NA,NA,2,6,"6,5,11,9,8,10,15,4,3,14,1,12,2,7,13"
14244,commdev-instructions,8,36836,NA,896.1000003814697,"<p>Here are a few planets you might see:</p><img src=""img/practice1.png"" width=200vw><img src=""img/practice2.png"" width=200vw><img src=""img/practice3.png"" width=200vw>",NA,NA,NA,NA,NA,NA,NA,NA,NA,2,6,"6,5,11,9,8,10,15,4,3,14,1,12,2,7,13"
14244,commdev-instructions,9,46461,NA,2203.1000003814697,"<p>Your job as a scientist is to record which direction the winds are moving on each planet.</p><p>There are two types of wind directions:</p><img src=""img/practice1_left.png"" width=200vw><img src=""img/practice1_right.png"" width=200vw>",NA,NA,NA,NA,NA,NA,NA,NA,NA,2,6,"6,5,11,9,8,10,15,4,3,14,1,12,2,7,13"
14244,commdev-instructions,10,53174,NA,1825.900001525879,"<p>If the winds are moving this way, press the letter <strong>F</strong> on the keyboard as fast as you can.</p><img src=""img/leftwind.png"" width=250vw>",NA,NA,NA,NA,NA,NA,NA,NA,NA,2,6,"6,5,11,9,8,10,15,4,3,14,1,12,2,7,13"
14244,commdev-instructions,11,58925,NA,1246.6000003814697,"<p>If the winds are moving this way, press the letter <strong>J</strong> on the keyboard as fast as you can.</p><img src=""img/rightwind.png"" width=350vw>",NA,NA,NA,NA,NA,NA,NA,NA,NA,2,6,"6,5,11,9,8,10,15,4,3,14,1,12,2,7,13"
14244,commdev-instructions,12,64663,NA,1304.8999996185303,<p>You will have 1 second to respond. Try to respond before the time runs out!,NA,NA,NA,NA,NA,NA,NA,NA,NA,2,6,"6,5,11,9,8,10,15,4,3,14,1,12,2,7,13"
14244,commdev-instructions,13,70592,NA,493.70000076293945,<p>The planets you will visit will look different from each other.</p><p>You should respond <strong>only</strong> based on wind direction.,NA,NA,NA,NA,NA,NA,NA,NA,NA,2,6,"6,5,11,9,8,10,15,4,3,14,1,12,2,7,13"
14244,commdev-instructions,14,77551,NA,1782.1000003814697,"<p> Ready to start the practice round? </p><p> Remember, press <strong>F</strong> or <strong>J</strong> depending on the wind direction.<br><img src=""img/categorize_planet_example.png""",NA,NA,NA,NA,NA,NA,NA,NA,NA,2,6,"6,5,11,9,8,10,15,4,3,14,1,12,2,7,13"
14244,commdev-instructions,26,133164,NA,2337.199998855591,"<p>Great, now try a short practice mission. </p><p> This time, you will have 1 second to respond and you won't know whether you pressed the right or wrong key for each planet.</p>",NA,NA,NA,NA,NA,NA,NA,NA,NA,2,6,"6,5,11,9,8,10,15,4,3,14,1,12,2,7,13"
14244,commdev-image-keyboard-response,27,134533,practice,null,img/practice4_right.png,NA,Number not found in mappings,NA,FALSE,null,j,NA,NA,NA,2,6,"6,5,11,9,8,10,15,4,3,14,1,12,2,7,13"
14244,commdev-image-keyboard-response,28,135799,practice,65,img/practice2_left.png,NA,Number not found in mappings,NA,TRUE,f,f,NA,NA,NA,2,6,"6,5,11,9,8,10,15,4,3,14,1,12,2,7,13"
14244,commdev-image-keyboard-response,29,137057,practice,669.5,img/practice3_right.png,NA,Number not found in mappings,NA,FALSE,f,j,NA,NA,NA,2,6,"6,5,11,9,8,10,15,4,3,14,1,12,2,7,13"
14244,commdev-image-keyboard-response,30,138321,practice,473.8000011444092,img/practice2_left.png,NA,Number not found in mappings,NA,FALSE,j,f,NA,NA,NA,2,6,"6,5,11,9,8,10,15,4,3,14,1,12,2,7,13"
14244,commdev-image-keyboard-response,31,139585,practice,625,img/practice4_left.png,NA,Number not found in mappings,NA,FALSE,j,f,NA,NA,NA,2,6,"6,5,11,9,8,10,15,4,3,14,1,12,2,7,13"
14244,commdev-image-keyboard-response,32,140852,practice,601.8000011444092,img/practice1_left.png,NA,Number not found in mappings,NA,FALSE,j,f,NA,NA,NA,2,6,"6,5,11,9,8,10,15,4,3,14,1,12,2,7,13"
14244,commdev-image-keyboard-response,33,142119,practice,null,img/practice2_left.png,NA,Number not found in mappings,NA,FALSE,null,f,NA,NA,NA,2,6,"6,5,11,9,8,10,15,4,3,14,1,12,2,7,13"
14244,commdev-image-keyboard-response,34,143373,practice,907.1999988555908,img/practice3_right.png,NA,Number not found in mappings,NA,FALSE,f,j,NA,NA,NA,2,6,"6,5,11,9,8,10,15,4,3,14,1,12,2,7,13"
14244,commdev-instructions,35,157352,NA,4424.60000038147,"<p>Great job with the practice round.</p><p>During real missions, you won't know whether you pressed the right or wrong key for each planet.</p><p>But between missions, we will tell you how you did overall.</p>",NA,NA,NA,NA,NA,NA,NA,NA,NA,2,6,"6,5,11,9,8,10,15,4,3,14,1,12,2,7,13"
14244,commdev-instructions,36,166279,NA,671.6000003814697,<p>Try your best! You will be paid a bonus based on how many correct responses you make!</p><p>Responses that are too slow will not count toward your bonus.</p>,NA,NA,NA,NA,NA,NA,NA,NA,NA,2,6,"6,5,11,9,8,10,15,4,3,14,1,12,2,7,13"
14244,commdev-instructions,37,173255,NA,766.7000007629395,"<p>You are almost ready to start the real game.</p><p> First, we are going to ask you some questions about how the game works.</p>",NA,NA,NA,NA,NA,NA,NA,NA,NA,2,6,"6,5,11,9,8,10,15,4,3,14,1,12,2,7,13"
14244,commdev-instructions,46,256884,NA,2597.5,"<p> Nice work! It is now time to start the real game.<p></p>You will go on two missions to record wind directions of different planets.<p></p>Each one will take about 5 minutes. You will get to take a break between missions.<p><p> Remember, press <strong>F</strong> or <strong>J</strong> depending on the wind direction. Good luck!<br><img src=""img/categorize_planet_example.png""",NA,NA,NA,NA,NA,NA,NA,NA,NA,2,6,"6,5,11,9,8,10,15,4,3,14,1,12,2,7,13"
14244,commdev-image-keyboard-response,48,259951,learnblock1,1114.8999996185303,img/planet12_right.png,12,Community 3,NA,TRUE,j,j,NA,NA,NA,2,6,"6,5,11,9,8,10,15,4,3,14,1,12,2,7,13"
14244,commdev-image-keyboard-response,49,261218,learnblock1,720.5,img/planet2_right.png,2,Community 3,NA,TRUE,j,j,NA,NA,NA,2,6,"6,5,11,9,8,10,15,4,3,14,1,12,2,7,13"
14244,commdev-image-keyboard-response,50,262475,learnblock1,771.6000003814697,img/planet1_right.png,1,Community 3,NA,TRUE,j,j,NA,NA,NA,2,6,"6,5,11,9,8,10,15,4,3,14,1,12,2,7,13"
14244,commdev-image-keyboard-response,51,263742,learnblock1,900.2000007629395,img/planet2_right.png,2,Community 3,NA,TRUE,j,j,NA,NA,NA,2,6,"6,5,11,9,8,10,15,4,3,14,1,12,2,7,13"
14244,commdev-image-keyboard-response,52,264998,learnblock1,902.7000007629395,img/planet7_right.png,7,Community 3,NA,TRUE,j,j,NA,NA,NA,2,6,"6,5,11,9,8,10,15,4,3,14,1,12,2,7,13"
14244,commdev-image-keyboard-response,53,266261,learnblock1,746.3000011444092,img/planet2_left.png,2,Community 3,NA,TRUE,f,f,NA,NA,NA,2,6,"6,5,11,9,8,10,15,4,3,14,1,12,2,7,13"
14244,commdev-image-keyboard-response,54,267528,learnblock1,976.5,img/planet1_left.png,1,Community 3,NA,TRUE,f,f,NA,NA,NA,2,6,"6,5,11,9,8,10,15,4,3,14,1,12,2,7,13"
14244,commdev-image-keyboard-response,55,268786,learnblock1,null,img/planet13_right.png,13,Community 3,NA,FALSE,null,j,NA,NA,NA,2,6,"6,5,11,9,8,10,15,4,3,14,1,12,2,7,13"
14244,commdev-image-keyboard-response,56,270045,learnblock1,292.70000076293945,img/planet1_right.png,1,Community 3,NA,TRUE,j,j,NA,NA,NA,2,6,"6,5,11,9,8,10,15,4,3,14,1,12,2,7,13"
14244,commdev-image-keyboard-response,57,271306,learnblock1,null,img/planet8_right.png,8,Community 1,NA,FALSE,null,j,NA,NA,NA,2,6,"6,5,11,9,8,10,15,4,3,14,1,12,2,7,13"
14244,commdev-image-keyboard-response,58,272563,learnblock1,38,img/planet6_left.png,6,Community 1,NA,FALSE,j,f,NA,NA,NA,2,6,"6,5,11,9,8,10,15,4,3,14,1,12,2,7,13"
14244,commdev-image-keyboard-response,59,273825,learnblock1,591.8999996185303,img/planet5_right.png,5,Community 1,NA,TRUE,j,j,NA,NA,NA,2,6,"6,5,11,9,8,10,15,4,3,14,1,12,2,7,13"
14244,commdev-image-keyboard-response,60,275085,learnblock1,819.5999984741211,img/planet6_right.png,6,Community 1,NA,TRUE,j,j,NA,NA,NA,2,6,"6,5,11,9,8,10,15,4,3,14,1,12,2,7,13"
14244,commdev-image-keyboard-response,61,276344,learnblock1,727.3999996185303,img/planet11_right.png,11,Community 1,NA,TRUE,j,j,NA,NA,NA,2,6,"6,5,11,9,8,10,15,4,3,14,1,12,2,7,13"
14244,commdev-image-keyboard-response,62,277605,learnblock1,603.7000007629395,img/planet5_left.png,5,Community 1,NA,FALSE,j,f,NA,NA,NA,2,6,"6,5,11,9,8,10,15,4,3,14,1,12,2,7,13"
14244,commdev-image-keyboard-response,63,278856,learnblock1,613.4000015258789,img/planet9_left.png,9,Community 1,NA,TRUE,f,f,NA,NA,NA,2,6,"6,5,11,9,8,10,15,4,3,14,1,12,2,7,13"
14244,commdev-image-keyboard-response,64,280114,learnblock1,864.7999992370605,img/planet6_left.png,6,Community 1,NA,TRUE,f,f,NA,NA,NA,2,6,"6,5,11,9,8,10,15,4,3,14,1,12,2,7,13"
14244,commdev-image-keyboard-response,65,281376,learnblock1,848.6999988555908,img/planet11_left.png,11,Community 1,NA,TRUE,f,f,NA,NA,NA,2,6,"6,5,11,9,8,10,15,4,3,14,1,12,2,7,13"
14244,commdev-image-keyboard-response,66,282641,learnblock1,806.1000003814697,img/planet9_right.png,9,Community 1,NA,TRUE,j,j,NA,NA,NA,2,6,"6,5,11,9,8,10,15,4,3,14,1,12,2,7,13"
14244,commdev-image-keyboard-response,67,283907,learnblock1,1204.2999992370605,img/planet6_right.png,6,Community 1,NA,FALSE,f,j,NA,NA,NA,2,6,"6,5,11,9,8,10,15,4,3,14,1,12,2,7,13"
14244,commdev-image-keyboard-response,68,285159,learnblock1,1197.2000007629395,img/planet9_right.png,9,Community 1,NA,TRUE,j,j,NA,NA,NA,2,6,"6,5,11,9,8,10,15,4,3,14,1,12,2,7,13"
14244,commdev-image-keyboard-response,69,286410,learnblock1,1127.6000003814697,img/planet11_left.png,11,Community 1,NA,TRUE,f,f,NA,NA,NA,2,6,"6,5,11,9,8,10,15,4,3,14,1,12,2,7,13"
14244,commdev-image-keyboard-response,70,287662,learnblock1,1093.5,img/planet8_right.png,8,Community 1,NA,TRUE,j,j,NA,NA,NA,2,6,"6,5,11,9,8,10,15,4,3,14,1,12,2,7,13"
14244,commdev-image-keyboard-response,71,288913,learnblock1,1037.1999988555908,img/planet1_left.png,1,Community 3,NA,TRUE,f,f,NA,NA,NA,2,6,"6,5,11,9,8,10,15,4,3,14,1,12,2,7,13"
14244,commdev-image-keyboard-response,72,290165,learnblock1,null,img/planet8_right.png,8,Community 1,NA,FALSE,null,j,NA,NA,NA,2,6,"6,5,11,9,8,10,15,4,3,14,1,12,2,7,13"
14244,commdev-image-keyboard-response,73,291417,learnblock1,64.79999923706055,img/planet5_right.png,5,Community 1,NA,FALSE,f,j,NA,NA,NA,2,6,"6,5,11,9,8,10,15,4,3,14,1,12,2,7,13"
14244,commdev-image-keyboard-response,74,292668,learnblock1,34.39999961853027,img/planet8_left.png,8,Community 1,NA,FALSE,j,f,NA,NA,NA,2,6,"6,5,11,9,8,10,15,4,3,14,1,12,2,7,13"
14244,commdev-image-keyboard-response,75,293920,learnblock1,986.6000003814697,img/planet1_left.png,1,Community 3,NA,FALSE,j,f,NA,NA,NA,2,6,"6,5,11,9,8,10,15,4,3,14,1,12,2,7,13"
14244,commdev-image-keyboard-response,76,295171,learnblock1,997.6000003814697,img/planet13_left.png,13,Community 3,NA,TRUE,f,f,NA,NA,NA,2,6,"6,5,11,9,8,10,15,4,3,14,1,12,2,7,13"
14244,commdev-image-keyboard-response,77,296423,learnblock1,1097.1999988555908,img/planet2_right.png,2,Community 3,NA,TRUE,j,j,NA,NA,NA,2,6,"6,5,11,9,8,10,15,4,3,14,1,12,2,7,13"
14244,commdev-image-keyboard-response,78,297674,learnblock1,null,img/planet1_left.png,1,Community 3,NA,FALSE,null,f,NA,NA,NA,2,6,"6,5,11,9,8,10,15,4,3,14,1,12,2,7,13"
14244,commdev-image-keyboard-response,79,298926,learnblock1,298.1000003814697,img/planet8_left.png,8,Community 1,NA,TRUE,f,f,NA,NA,NA,2,6,"6,5,11,9,8,10,15,4,3,14,1,12,2,7,13"
14244,commdev-image-keyboard-response,80,300178,learnblock1,93.5,img/planet6_left.png,6,Community 1,NA,TRUE,f,f,NA,NA,NA,2,6,"6,5,11,9,8,10,15,4,3,14,1,12,2,7,13"
14244,commdev-image-keyboard-response,81,301430,learnblock1,802.5,img/planet5_left.png,5,Community 1,NA,TRUE,f,f,NA,NA,NA,2,6,"6,5,11,9,8,10,15,4,3,14,1,12,2,7,13"
14244,commdev-image-keyboard-response,82,302682,learnblock1,755,img/planet11_left.png,11,Community 1,NA,TRUE,f,f,NA,NA,NA,2,6,"6,5,11,9,8,10,15,4,3,14,1,12,2,7,13"
14244,commdev-image-keyboard-response,83,303946,learnblock1,559.6000003814697,img/planet9_left.png,9,Community 1,NA,TRUE,f,f,NA,NA,NA,2,6,"6,5,11,9,8,10,15,4,3,14,1,12,2,7,13"
14244,commdev-image-keyboard-response,84,305199,learnblock1,744.7000007629395,img/planet10_left.png,10,Community 2,NA,TRUE,f,f,NA,NA,NA,2,6,"6,5,11,9,8,10,15,4,3,14,1,12,2,7,13"
14244,commdev-image-keyboard-response,85,306451,learnblock1,764.7999992370605,img/planet9_right.png,9,Community 1,NA,TRUE,j,j,NA,NA,NA,2,6,"6,5,11,9,8,10,15,4,3,14,1,12,2,7,13"
14244,commdev-image-keyboard-response,86,307702,learnblock1,563.7999992370605,img/planet10_right.png,10,Community 2,NA,TRUE,j,j,NA,NA,NA,2,6,"6,5,11,9,8,10,15,4,3,14,1,12,2,7,13"
14244,commdev-image-keyboard-response,87,308954,learnblock1,365.8000011444092,img/planet3_right.png,3,Community 2,NA,TRUE,j,j,NA,NA,NA,2,6,"6,5,11,9,8,10,15,4,3,14,1,12,2,7,13"
14244,commdev-image-keyboard-response,88,310207,learnblock1,678.5,img/planet4_left.png,4,Community 2,NA,TRUE,f,f,NA,NA,NA,2,6,"6,5,11,9,8,10,15,4,3,14,1,12,2,7,13"
14244,commdev-image-keyboard-response,89,311465,learnblock1,646.6000003814697,img/planet3_right.png,3,Community 2,NA,TRUE,j,j,NA,NA,NA,2,6,"6,5,11,9,8,10,15,4,3,14,1,12,2,7,13"
14244,commdev-image-keyboard-response,90,312718,learnblock1,578.3999996185303,img/planet4_right.png,4,Community 2,NA,FALSE,f,j,NA,NA,NA,2,6,"6,5,11,9,8,10,15,4,3,14,1,12,2,7,13"
14244,commdev-image-keyboard-response,91,313974,learnblock1,927.1999988555908,img/planet3_right.png,3,Community 2,NA,TRUE,j,j,NA,NA,NA,2,6,"6,5,11,9,8,10,15,4,3,14,1,12,2,7,13"
14244,commdev-image-keyboard-response,92,315227,learnblock1,941.9000015258789,img/planet4_left.png,4,Community 2,NA,TRUE,f,f,NA,NA,NA,2,6,"6,5,11,9,8,10,15,4,3,14,1,12,2,7,13"
14244,commdev-image-keyboard-response,93,316480,learnblock1,893,img/planet3_right.png,3,Community 2,NA,TRUE,j,j,NA,NA,NA,2,6,"6,5,11,9,8,10,15,4,3,14,1,12,2,7,13"
14244,commdev-image-keyboard-response,94,317733,learnblock1,1210.8999996185303,img/planet4_right.png,4,Community 2,NA,TRUE,j,j,NA,NA,NA,2,6,"6,5,11,9,8,10,15,4,3,14,1,12,2,7,13"
14244,commdev-image-keyboard-response,95,318985,learnblock1,883.9000015258789,img/planet12_left.png,12,Community 3,NA,TRUE,f,f,NA,NA,NA,2,6,"6,5,11,9,8,10,15,4,3,14,1,12,2,7,13"
14244,commdev-image-keyboard-response,96,320238,learnblock1,745.2999992370605,img/planet7_right.png,7,Community 3,NA,TRUE,j,j,NA,NA,NA,2,6,"6,5,11,9,8,10,15,4,3,14,1,12,2,7,13"
14244,commdev-image-keyboard-response,97,321493,learnblock1,655.5,img/planet2_left.png,2,Community 3,NA,TRUE,f,f,NA,NA,NA,2,6,"6,5,11,9,8,10,15,4,3,14,1,12,2,7,13"
14244,commdev-image-keyboard-response,98,322746,learnblock1,669.1000003814697,img/planet1_left.png,1,Community 3,NA,TRUE,f,f,NA,NA,NA,2,6,"6,5,11,9,8,10,15,4,3,14,1,12,2,7,13"
14244,commdev-image-keyboard-response,99,323999,learnblock1,775.3000011444092,img/planet2_left.png,2,Community 3,NA,TRUE,f,f,NA,NA,NA,2,6,"6,5,11,9,8,10,15,4,3,14,1,12,2,7,13"
14244,commdev-image-keyboard-response,100,325253,learnblock1,703.8999996185303,img/planet12_left.png,12,Community 3,NA,TRUE,f,f,NA,NA,NA,2,6,"6,5,11,9,8,10,15,4,3,14,1,12,2,7,13"
14244,commdev-image-keyboard-response,101,326506,learnblock1,534.3999996185303,img/planet2_right.png,2,Community 3,NA,FALSE,f,j,NA,NA,NA,2,6,"6,5,11,9,8,10,15,4,3,14,1,12,2,7,13"
14244,commdev-image-keyboard-response,102,327759,learnblock1,876.6000003814697,img/planet13_left.png,13,Community 3,NA,TRUE,f,f,NA,NA,NA,2,6,"6,5,11,9,8,10,15,4,3,14,1,12,2,7,13"
14244,commdev-image-keyboard-response,103,329013,learnblock1,null,img/planet12_left.png,12,Community 3,NA,FALSE,null,f,NA,NA,NA,2,6,"6,5,11,9,8,10,15,4,3,14,1,12,2,7,13"
14244,commdev-image-keyboard-response,104,330265,learnblock1,43.89999961853027,img/planet2_right.png,2,Community 3,NA,FALSE,f,j,NA,NA,NA,2,6,"6,5,11,9,8,10,15,4,3,14,1,12,2,7,13"
14244,commdev-image-keyboard-response,105,331519,learnblock1,58.60000038146973,img/planet12_left.png,12,Community 3,NA,FALSE,j,f,NA,NA,NA,2,6,"6,5,11,9,8,10,15,4,3,14,1,12,2,7,13"
14244,commdev-image-keyboard-response,106,332773,learnblock1,740.7999992370605,img/planet13_right.png,13,Community 3,NA,TRUE,j,j,NA,NA,NA,2,6,"6,5,11,9,8,10,15,4,3,14,1,12,2,7,13"
14244,commdev-image-keyboard-response,107,334027,learnblock1,784.8999996185303,img/planet2_right.png,2,Community 3,NA,TRUE,j,j,NA,NA,NA,2,6,"6,5,11,9,8,10,15,4,3,14,1,12,2,7,13"
14244,commdev-image-keyboard-response,108,335280,learnblock1,825.3999996185303,img/planet13_right.png,13,Community 3,NA,FALSE,f,j,NA,NA,NA,2,6,"6,5,11,9,8,10,15,4,3,14,1,12,2,7,13"
14244,commdev-image-keyboard-response,109,336534,learnblock1,833,img/planet7_left.png,7,Community 3,NA,FALSE,j,f,NA,NA,NA,2,6,"6,5,11,9,8,10,15,4,3,14,1,12,2,7,13"
14244,commdev-image-keyboard-response,110,337787,learnblock1,1042.2000007629395,img/planet1_left.png,1,Community 3,NA,TRUE,f,f,NA,NA,NA,2,6,"6,5,11,9,8,10,15,4,3,14,1,12,2,7,13"
14244,commdev-image-keyboard-response,111,339041,learnblock1,709.2000007629395,img/planet13_left.png,13,Community 3,NA,TRUE,f,f,NA,NA,NA,2,6,"6,5,11,9,8,10,15,4,3,14,1,12,2,7,13"
14244,commdev-image-keyboard-response,112,340293,learnblock1,757.6999988555908,img/planet7_right.png,7,Community 3,NA,TRUE,j,j,NA,NA,NA,2,6,"6,5,11,9,8,10,15,4,3,14,1,12,2,7,13"
14244,commdev-image-keyboard-response,113,341546,learnblock1,905,img/planet2_right.png,2,Community 3,NA,TRUE,j,j,NA,NA,NA,2,6,"6,5,11,9,8,10,15,4,3,14,1,12,2,7,13"
14244,commdev-image-keyboard-response,114,342799,learnblock1,802.5,img/planet12_left.png,12,Community 3,NA,TRUE,f,f,NA,NA,NA,2,6,"6,5,11,9,8,10,15,4,3,14,1,12,2,7,13"
14244,commdev-image-keyboard-response,115,344053,learnblock1,1251.2999992370605,img/planet13_left.png,13,Community 3,NA,TRUE,f,f,NA,NA,NA,2,6,"6,5,11,9,8,10,15,4,3,14,1,12,2,7,13"
14244,commdev-image-keyboard-response,116,345305,learnblock1,1235.6999988555908,img/planet7_right.png,7,Community 3,NA,TRUE,j,j,NA,NA,NA,2,6,"6,5,11,9,8,10,15,4,3,14,1,12,2,7,13"
14244,commdev-image-keyboard-response,117,346558,learnblock1,897.8000011444092,img/planet13_left.png,13,Community 3,NA,TRUE,f,f,NA,NA,NA,2,6,"6,5,11,9,8,10,15,4,3,14,1,12,2,7,13"
14244,commdev-image-keyboard-response,118,347811,learnblock1,719,img/planet1_right.png,1,Community 3,NA,TRUE,j,j,NA,NA,NA,2,6,"6,5,11,9,8,10,15,4,3,14,1,12,2,7,13"
14244,commdev-image-keyboard-response,119,349064,learnblock1,950.2000007629395,img/planet2_right.png,2,Community 3,NA,TRUE,j,j,NA,NA,NA,2,6,"6,5,11,9,8,10,15,4,3,14,1,12,2,7,13"
14244,commdev-image-keyboard-response,120,350316,learnblock1,768.3999996185303,img/planet13_right.png,13,Community 3,NA,TRUE,j,j,NA,NA,NA,2,6,"6,5,11,9,8,10,15,4,3,14,1,12,2,7,13"
14244,commdev-image-keyboard-response,121,351571,learnblock1,810.5,img/planet12_left.png,12,Community 3,NA,TRUE,f,f,NA,NA,NA,2,6,"6,5,11,9,8,10,15,4,3,14,1,12,2,7,13"
14244,commdev-image-keyboard-response,122,352824,learnblock1,893.1000003814697,img/planet7_left.png,7,Community 3,NA,TRUE,f,f,NA,NA,NA,2,6,"6,5,11,9,8,10,15,4,3,14,1,12,2,7,13"
14244,commdev-image-keyboard-response,123,354080,learnblock1,821.7000007629395,img/planet1_right.png,1,Community 3,NA,TRUE,j,j,NA,NA,NA,2,6,"6,5,11,9,8,10,15,4,3,14,1,12,2,7,13"
14244,commdev-image-keyboard-response,124,355333,learnblock1,783.6000003814697,img/planet13_right.png,13,Community 3,NA,TRUE,j,j,NA,NA,NA,2,6,"6,5,11,9,8,10,15,4,3,14,1,12,2,7,13"
14244,commdev-image-keyboard-response,125,356586,learnblock1,689.2999992370605,img/planet1_left.png,1,Community 3,NA,TRUE,f,f,NA,NA,NA,2,6,"6,5,11,9,8,10,15,4,3,14,1,12,2,7,13"
14244,commdev-image-keyboard-response,126,357838,learnblock1,600.1999988555908,img/planet2_right.png,2,Community 3,NA,TRUE,j,j,NA,NA,NA,2,6,"6,5,11,9,8,10,15,4,3,14,1,12,2,7,13"
14244,commdev-image-keyboard-response,127,359092,learnblock1,1095.2999992370605,img/planet12_right.png,12,Community 3,NA,TRUE,j,j,NA,NA,NA,2,6,"6,5,11,9,8,10,15,4,3,14,1,12,2,7,13"
14244,commdev-image-keyboard-response,128,360343,learnblock1,1114,img/planet7_right.png,7,Community 3,NA,TRUE,j,j,NA,NA,NA,2,6,"6,5,11,9,8,10,15,4,3,14,1,12,2,7,13"
14244,commdev-image-keyboard-response,129,361597,learnblock1,null,img/planet2_left.png,2,Community 3,NA,FALSE,null,f,NA,NA,NA,2,6,"6,5,11,9,8,10,15,4,3,14,1,12,2,7,13"
14244,commdev-image-keyboard-response,130,362849,learnblock1,54,img/planet13_left.png,13,Community 3,NA,TRUE,f,f,NA,NA,NA,2,6,"6,5,11,9,8,10,15,4,3,14,1,12,2,7,13"
14244,commdev-image-keyboard-response,131,364101,learnblock1,638.6000003814697,img/planet2_right.png,2,Community 3,NA,FALSE,f,j,NA,NA,NA,2,6,"6,5,11,9,8,10,15,4,3,14,1,12,2,7,13"
14244,commdev-image-keyboard-response,132,365354,learnblock1,null,img/planet7_right.png,7,Community 3,NA,FALSE,null,j,NA,NA,NA,2,6,"6,5,11,9,8,10,15,4,3,14,1,12,2,7,13"
14244,commdev-image-keyboard-response,133,366620,learnblock1,null,img/planet12_left.png,12,Community 3,NA,FALSE,null,f,NA,NA,NA,2,6,"6,5,11,9,8,10,15,4,3,14,1,12,2,7,13"
14244,commdev-image-keyboard-response,134,367873,learnblock1,78.19999885559082,img/planet7_left.png,7,Community 3,NA,TRUE,f,f,NA,NA,NA,2,6,"6,5,11,9,8,10,15,4,3,14,1,12,2,7,13"
14244,commdev-image-keyboard-response,135,369126,learnblock1,25.600000381469727,img/planet2_right.png,2,Community 3,NA,TRUE,j,j,NA,NA,NA,2,6,"6,5,11,9,8,10,15,4,3,14,1,12,2,7,13"
14244,commdev-image-keyboard-response,136,370378,learnblock1,1030.6999988555908,img/planet12_left.png,12,Community 3,NA,TRUE,f,f,NA,NA,NA,2,6,"6,5,11,9,8,10,15,4,3,14,1,12,2,7,13"
14244,commdev-image-keyboard-response,137,371632,learnblock1,985.8000011444092,img/planet7_right.png,7,Community 3,NA,TRUE,j,j,NA,NA,NA,2,6,"6,5,11,9,8,10,15,4,3,14,1,12,2,7,13"
14244,commdev-image-keyboard-response,138,372886,learnblock1,null,img/planet1_right.png,1,Community 3,NA,FALSE,null,j,NA,NA,NA,2,6,"6,5,11,9,8,10,15,4,3,14,1,12,2,7,13"
14244,commdev-image-keyboard-response,139,374146,learnblock1,48.29999923706055,img/planet2_left.png,2,Community 3,NA,TRUE,f,f,NA,NA,NA,2,6,"6,5,11,9,8,10,15,4,3,14,1,12,2,7,13"
14244,commdev-image-keyboard-response,140,375398,learnblock1,770.6000003814697,img/planet12_right.png,12,Community 3,NA,TRUE,j,j,NA,NA,NA,2,6,"6,5,11,9,8,10,15,4,3,14,1,12,2,7,13"
14244,commdev-image-keyboard-response,141,376661,learnblock1,null,img/planet7_left.png,7,Community 3,NA,FALSE,null,f,NA,NA,NA,2,6,"6,5,11,9,8,10,15,4,3,14,1,12,2,7,13"
14244,commdev-image-keyboard-response,142,377914,learnblock1,93.39999961853027,img/planet2_left.png,2,Community 3,NA,TRUE,f,f,NA,NA,NA,2,6,"6,5,11,9,8,10,15,4,3,14,1,12,2,7,13"
14244,commdev-image-keyboard-response,143,379167,learnblock1,871.6000003814697,img/planet13_left.png,13,Community 3,NA,TRUE,f,f,NA,NA,NA,2,6,"6,5,11,9,8,10,15,4,3,14,1,12,2,7,13"
14244,commdev-image-keyboard-response,144,380420,learnblock1,593.5,img/planet2_right.png,2,Community 3,NA,TRUE,j,j,NA,NA,NA,2,6,"6,5,11,9,8,10,15,4,3,14,1,12,2,7,13"
14244,commdev-image-keyboard-response,145,381673,learnblock1,794.6999988555908,img/planet12_right.png,12,Community 3,NA,TRUE,j,j,NA,NA,NA,2,6,"6,5,11,9,8,10,15,4,3,14,1,12,2,7,13"
14244,commdev-image-keyboard-response,146,382925,learnblock1,849.2000007629395,img/planet7_left.png,7,Community 3,NA,TRUE,f,f,NA,NA,NA,2,6,"6,5,11,9,8,10,15,4,3,14,1,12,2,7,13"
14244,commdev-image-keyboard-response,147,384178,learnblock1,null,img/planet2_left.png,2,Community 3,NA,FALSE,null,f,NA,NA,NA,2,6,"6,5,11,9,8,10,15,4,3,14,1,12,2,7,13"
14244,commdev-image-keyboard-response,148,385432,learnblock1,55.39999961853027,img/planet12_right.png,12,Community 3,NA,FALSE,f,j,NA,NA,NA,2,6,"6,5,11,9,8,10,15,4,3,14,1,12,2,7,13"
14244,commdev-image-keyboard-response,149,386692,learnblock1,802.3999996185303,img/planet4_right.png,4,Community 2,NA,FALSE,f,j,NA,NA,NA,2,6,"6,5,11,9,8,10,15,4,3,14,1,12,2,7,13"
14244,commdev-image-keyboard-response,150,387946,learnblock1,null,img/planet15_left.png,15,Community 2,NA,FALSE,null,f,NA,NA,NA,2,6,"6,5,11,9,8,10,15,4,3,14,1,12,2,7,13"
14244,commdev-image-keyboard-response,151,389199,learnblock1,44.5,img/planet14_right.png,14,Community 2,NA,FALSE,f,j,NA,NA,NA,2,6,"6,5,11,9,8,10,15,4,3,14,1,12,2,7,13"
14244,commdev-image-keyboard-response,152,390452,learnblock1,260.3999996185303,img/planet4_left.png,4,Community 2,NA,TRUE,f,f,NA,NA,NA,2,6,"6,5,11,9,8,10,15,4,3,14,1,12,2,7,13"
14244,commdev-image-keyboard-response,153,391703,learnblock1,null,img/planet3_right.png,3,Community 2,NA,FALSE,null,j,NA,NA,NA,2,6,"6,5,11,9,8,10,15,4,3,14,1,12,2,7,13"
14244,commdev-image-keyboard-response,154,392956,learnblock1,43.29999923706055,img/planet15_left.png,15,Community 2,NA,TRUE,f,f,NA,NA,NA,2,6,"6,5,11,9,8,10,15,4,3,14,1,12,2,7,13"
14244,commdev-image-keyboard-response,155,394209,learnblock1,77.39999961853027,img/planet4_left.png,4,Community 2,NA,TRUE,f,f,NA,NA,NA,2,6,"6,5,11,9,8,10,15,4,3,14,1,12,2,7,13"
14244,commdev-image-keyboard-response,156,395461,learnblock1,177.89999961853027,img/planet15_right.png,15,Community 2,NA,FALSE,f,j,NA,NA,NA,2,6,"6,5,11,9,8,10,15,4,3,14,1,12,2,7,13"
14244,commdev-image-keyboard-response,157,396715,learnblock1,967.3999996185303,img/planet3_left.png,3,Community 2,NA,TRUE,f,f,NA,NA,NA,2,6,"6,5,11,9,8,10,15,4,3,14,1,12,2,7,13"
14244,commdev-image-keyboard-response,158,397967,learnblock1,909.2999992370605,img/planet14_right.png,14,Community 2,NA,TRUE,j,j,NA,NA,NA,2,6,"6,5,11,9,8,10,15,4,3,14,1,12,2,7,13"
14244,commdev-image-keyboard-response,159,399220,learnblock1,887.1000003814697,img/planet3_left.png,3,Community 2,NA,TRUE,f,f,NA,NA,NA,2,6,"6,5,11,9,8,10,15,4,3,14,1,12,2,7,13"
14244,commdev-image-keyboard-response,160,400472,learnblock1,1175.1000003814697,img/planet15_right.png,15,Community 2,NA,TRUE,j,j,NA,NA,NA,2,6,"6,5,11,9,8,10,15,4,3,14,1,12,2,7,13"
14244,commdev-image-keyboard-response,161,401726,learnblock1,1113.7000007629395,img/planet4_right.png,4,Community 2,NA,FALSE,f,j,NA,NA,NA,2,6,"6,5,11,9,8,10,15,4,3,14,1,12,2,7,13"
14244,commdev-image-keyboard-response,162,402980,learnblock1,null,img/planet12_right.png,12,Community 3,NA,FALSE,null,j,NA,NA,NA,2,6,"6,5,11,9,8,10,15,4,3,14,1,12,2,7,13"
14244,commdev-image-keyboard-response,163,404232,learnblock1,199.80000114440918,img/planet7_left.png,7,Community 3,NA,FALSE,j,f,NA,NA,NA,2,6,"6,5,11,9,8,10,15,4,3,14,1,12,2,7,13"
14244,commdev-image-keyboard-response,164,405485,learnblock1,148.70000076293945,img/planet12_right.png,12,Community 3,NA,FALSE,f,j,NA,NA,NA,2,6,"6,5,11,9,8,10,15,4,3,14,1,12,2,7,13"
14244,commdev-image-keyboard-response,165,406737,learnblock1,53.89999961853027,img/planet2_left.png,2,Community 3,NA,FALSE,j,f,NA,NA,NA,2,6,"6,5,11,9,8,10,15,4,3,14,1,12,2,7,13"
14244,commdev-image-keyboard-response,166,407992,learnblock1,863.3999996185303,img/planet13_left.png,13,Community 3,NA,TRUE,f,f,NA,NA,NA,2,6,"6,5,11,9,8,10,15,4,3,14,1,12,2,7,13"
14244,commdev-image-keyboard-response,167,409245,learnblock1,820,img/planet12_left.png,12,Community 3,NA,FALSE,j,f,NA,NA,NA,2,6,"6,5,11,9,8,10,15,4,3,14,1,12,2,7,13"
14244,commdev-image-keyboard-response,168,410499,learnblock1,null,img/planet4_right.png,4,Community 2,NA,FALSE,null,j,NA,NA,NA,2,6,"6,5,11,9,8,10,15,4,3,14,1,12,2,7,13"
14244,commdev-image-keyboard-response,169,411751,learnblock1,761.6000003814697,img/planet3_left.png,3,Community 2,NA,TRUE,f,f,NA,NA,NA,2,6,"6,5,11,9,8,10,15,4,3,14,1,12,2,7,13"
14244,commdev-image-keyboard-response,170,413005,learnblock1,1080.2999992370605,img/planet15_left.png,15,Community 2,NA,FALSE,j,f,NA,NA,NA,2,6,"6,5,11,9,8,10,15,4,3,14,1,12,2,7,13"
14244,commdev-image-keyboard-response,171,414257,learnblock1,null,img/planet10_right.png,10,Community 2,NA,FALSE,null,j,NA,NA,NA,2,6,"6,5,11,9,8,10,15,4,3,14,1,12,2,7,13"
14244,commdev-image-keyboard-response,172,415510,learnblock1,29.799999237060547,img/planet9_right.png,9,Community 1,NA,FALSE,f,j,NA,NA,NA,2,6,"6,5,11,9,8,10,15,4,3,14,1,12,2,7,13"
14244,commdev-image-keyboard-response,173,416763,learnblock1,null,img/planet11_left.png,11,Community 1,NA,FALSE,null,f,NA,NA,NA,2,6,"6,5,11,9,8,10,15,4,3,14,1,12,2,7,13"
14244,commdev-image-keyboard-response,174,418016,learnblock1,188.60000038146973,img/planet5_left.png,5,Community 1,NA,FALSE,j,f,NA,NA,NA,2,6,"6,5,11,9,8,10,15,4,3,14,1,12,2,7,13"
14244,commdev-image-keyboard-response,175,419269,learnblock1,23.299999237060547,img/planet9_right.png,9,Community 1,NA,FALSE,f,j,NA,NA,NA,2,6,"6,5,11,9,8,10,15,4,3,14,1,12,2,7,13"
14244,commdev-image-keyboard-response,176,420523,learnblock1,null,img/planet6_right.png,6,Community 1,NA,FALSE,null,j,NA,NA,NA,2,6,"6,5,11,9,8,10,15,4,3,14,1,12,2,7,13"
14244,commdev-image-keyboard-response,177,421776,learnblock1,12.900001525878906,img/planet8_right.png,8,Community 1,NA,FALSE,f,j,NA,NA,NA,2,6,"6,5,11,9,8,10,15,4,3,14,1,12,2,7,13"
14244,commdev-image-keyboard-response,178,423028,learnblock1,1038.8999996185303,img/planet5_left.png,5,Community 1,NA,TRUE,f,f,NA,NA,NA,2,6,"6,5,11,9,8,10,15,4,3,14,1,12,2,7,13"
14244,commdev-image-keyboard-response,179,424281,learnblock1,879.7999992370605,img/planet6_right.png,6,Community 1,NA,TRUE,j,j,NA,NA,NA,2,6,"6,5,11,9,8,10,15,4,3,14,1,12,2,7,13"
14244,commdev-image-keyboard-response,180,425534,learnblock1,788.7999992370605,img/planet11_right.png,11,Community 1,NA,FALSE,f,j,NA,NA,NA,2,6,"6,5,11,9,8,10,15,4,3,14,1,12,2,7,13"
14244,commdev-image-keyboard-response,181,426787,learnblock1,927.8000011444092,img/planet8_left.png,8,Community 1,NA,TRUE,f,f,NA,NA,NA,2,6,"6,5,11,9,8,10,15,4,3,14,1,12,2,7,13"
14244,commdev-image-keyboard-response,182,428040,learnblock1,1176.6000003814697,img/planet11_right.png,11,Community 1,NA,TRUE,j,j,NA,NA,NA,2,6,"6,5,11,9,8,10,15,4,3,14,1,12,2,7,13"
14244,commdev-image-keyboard-response,183,429293,learnblock1,968.5,img/planet6_right.png,6,Community 1,NA,FALSE,f,j,NA,NA,NA,2,6,"6,5,11,9,8,10,15,4,3,14,1,12,2,7,13"
14244,commdev-image-keyboard-response,184,430552,learnblock1,897.9000015258789,img/planet11_right.png,11,Community 1,NA,TRUE,j,j,NA,NA,NA,2,6,"6,5,11,9,8,10,15,4,3,14,1,12,2,7,13"
14244,commdev-image-keyboard-response,185,431815,learnblock1,831.5,img/planet5_right.png,5,Community 1,NA,TRUE,j,j,NA,NA,NA,2,6,"6,5,11,9,8,10,15,4,3,14,1,12,2,7,13"
14244,commdev-image-keyboard-response,186,433079,learnblock1,1070.6999988555908,img/planet11_left.png,11,Community 1,NA,TRUE,f,f,NA,NA,NA,2,6,"6,5,11,9,8,10,15,4,3,14,1,12,2,7,13"
14244,commdev-image-keyboard-response,187,434331,learnblock1,875.5,img/planet5_right.png,5,Community 1,NA,TRUE,j,j,NA,NA,NA,2,6,"6,5,11,9,8,10,15,4,3,14,1,12,2,7,13"
14244,commdev-image-keyboard-response,188,435583,learnblock1,1016.2999992370605,img/planet11_left.png,11,Community 1,NA,TRUE,f,f,NA,NA,NA,2,6,"6,5,11,9,8,10,15,4,3,14,1,12,2,7,13"
14244,commdev-image-keyboard-response,189,436837,learnblock1,826.7999992370605,img/planet5_left.png,5,Community 1,NA,FALSE,j,f,NA,NA,NA,2,6,"6,5,11,9,8,10,15,4,3,14,1,12,2,7,13"
14244,commdev-image-keyboard-response,190,438088,learnblock1,1066.8999996185303,img/planet9_right.png,9,Community 1,NA,TRUE,j,j,NA,NA,NA,2,6,"6,5,11,9,8,10,15,4,3,14,1,12,2,7,13"
14244,commdev-image-keyboard-response,191,439340,learnblock1,1200.8000011444092,img/planet6_right.png,6,Community 1,NA,FALSE,f,j,NA,NA,NA,2,6,"6,5,11,9,8,10,15,4,3,14,1,12,2,7,13"
14244,commdev-image-keyboard-response,192,440593,learnblock1,null,img/planet11_left.png,11,Community 1,NA,FALSE,null,f,NA,NA,NA,2,6,"6,5,11,9,8,10,15,4,3,14,1,12,2,7,13"
14244,commdev-image-keyboard-response,193,441855,learnblock1,65.30000114440918,img/planet5_right.png,5,Community 1,NA,FALSE,f,j,NA,NA,NA,2,6,"6,5,11,9,8,10,15,4,3,14,1,12,2,7,13"
14244,commdev-image-keyboard-response,194,443108,learnblock1,131,img/planet8_right.png,8,Community 1,NA,TRUE,j,j,NA,NA,NA,2,6,"6,5,11,9,8,10,15,4,3,14,1,12,2,7,13"
14244,commdev-image-keyboard-response,195,444360,learnblock1,203.39999961853027,img/planet11_left.png,11,Community 1,NA,FALSE,j,f,NA,NA,NA,2,6,"6,5,11,9,8,10,15,4,3,14,1,12,2,7,13"
14244,commdev-image-keyboard-response,196,445614,learnblock1,1067.099998474121,img/planet5_right.png,5,Community 1,NA,TRUE,j,j,NA,NA,NA,2,6,"6,5,11,9,8,10,15,4,3,14,1,12,2,7,13"
14244,commdev-image-keyboard-response,197,446866,learnblock1,900.3999996185303,img/planet9_left.png,9,Community 1,NA,TRUE,f,f,NA,NA,NA,2,6,"6,5,11,9,8,10,15,4,3,14,1,12,2,7,13"
14244,commdev-image-keyboard-response,198,448120,learnblock1,null,img/planet10_right.png,10,Community 2,NA,FALSE,null,j,NA,NA,NA,2,6,"6,5,11,9,8,10,15,4,3,14,1,12,2,7,13"
14244,commdev-image-keyboard-response,199,449373,learnblock1,5.5,img/planet9_right.png,9,Community 1,NA,TRUE,j,j,NA,NA,NA,2,6,"6,5,11,9,8,10,15,4,3,14,1,12,2,7,13"
14244,commdev-image-keyboard-response,200,450625,learnblock1,101.29999923706055,img/planet10_left.png,10,Community 2,NA,FALSE,j,f,NA,NA,NA,2,6,"6,5,11,9,8,10,15,4,3,14,1,12,2,7,13"
14244,commdev-image-keyboard-response,201,451878,learnblock1,1175.3000011444092,img/planet15_right.png,15,Community 2,NA,TRUE,j,j,NA,NA,NA,2,6,"6,5,11,9,8,10,15,4,3,14,1,12,2,7,13"
14244,commdev-image-keyboard-response,202,453132,learnblock1,1064.1999988555908,img/planet4_right.png,4,Community 2,NA,FALSE,f,j,NA,NA,NA,2,6,"6,5,11,9,8,10,15,4,3,14,1,12,2,7,13"
14244,commdev-image-keyboard-response,203,454389,learnblock1,872,img/planet3_left.png,3,Community 2,NA,TRUE,f,f,NA,NA,NA,2,6,"6,5,11,9,8,10,15,4,3,14,1,12,2,7,13"
14244,commdev-image-keyboard-response,204,455642,learnblock1,740.2000007629395,img/planet10_left.png,10,Community 2,NA,TRUE,f,f,NA,NA,NA,2,6,"6,5,11,9,8,10,15,4,3,14,1,12,2,7,13"
14244,commdev-image-keyboard-response,205,456894,learnblock1,1017.6000003814697,img/planet3_right.png,3,Community 2,NA,TRUE,j,j,NA,NA,NA,2,6,"6,5,11,9,8,10,15,4,3,14,1,12,2,7,13"
14244,commdev-image-keyboard-response,206,458146,learnblock1,1123.6999988555908,img/planet4_right.png,4,Community 2,NA,TRUE,j,j,NA,NA,NA,2,6,"6,5,11,9,8,10,15,4,3,14,1,12,2,7,13"
14244,commdev-image-keyboard-response,207,459399,learnblock1,1233,img/planet3_right.png,3,Community 2,NA,TRUE,j,j,NA,NA,NA,2,6,"6,5,11,9,8,10,15,4,3,14,1,12,2,7,13"
14244,commdev-image-keyboard-response,208,460651,learnblock1,1033.8999996185303,img/planet15_right.png,15,Community 2,NA,TRUE,j,j,NA,NA,NA,2,6,"6,5,11,9,8,10,15,4,3,14,1,12,2,7,13"
14244,commdev-image-keyboard-response,209,461903,learnblock1,null,img/planet10_right.png,10,Community 2,NA,FALSE,null,j,NA,NA,NA,2,6,"6,5,11,9,8,10,15,4,3,14,1,12,2,7,13"
14244,commdev-image-keyboard-response,210,463156,learnblock1,75.20000076293945,img/planet14_left.png,14,Community 2,NA,TRUE,f,f,NA,NA,NA,2,6,"6,5,11,9,8,10,15,4,3,14,1,12,2,7,13"
14244,commdev-image-keyboard-response,211,464408,learnblock1,1070.1000003814697,img/planet3_left.png,3,Community 2,NA,TRUE,f,f,NA,NA,NA,2,6,"6,5,11,9,8,10,15,4,3,14,1,12,2,7,13"
14244,commdev-image-keyboard-response,212,465660,learnblock1,1073.099998474121,img/planet4_right.png,4,Community 2,NA,TRUE,j,j,NA,NA,NA,2,6,"6,5,11,9,8,10,15,4,3,14,1,12,2,7,13"
14244,commdev-image-keyboard-response,213,466911,learnblock1,935.6000003814697,img/planet15_right.png,15,Community 2,NA,TRUE,j,j,NA,NA,NA,2,6,"6,5,11,9,8,10,15,4,3,14,1,12,2,7,13"
14244,commdev-image-keyboard-response,214,468162,learnblock1,1096.1999988555908,img/planet10_left.png,10,Community 2,NA,TRUE,f,f,NA,NA,NA,2,6,"6,5,11,9,8,10,15,4,3,14,1,12,2,7,13"
14244,commdev-image-keyboard-response,215,469415,learnblock1,903.5,img/planet3_right.png,3,Community 2,NA,TRUE,j,j,NA,NA,NA,2,6,"6,5,11,9,8,10,15,4,3,14,1,12,2,7,13"
14244,commdev-image-keyboard-response,216,470667,learnblock1,886.6000003814697,img/planet4_left.png,4,Community 2,NA,TRUE,f,f,NA,NA,NA,2,6,"6,5,11,9,8,10,15,4,3,14,1,12,2,7,13"
14244,commdev-image-keyboard-response,217,471918,learnblock1,1015,img/planet15_right.png,15,Community 2,NA,TRUE,j,j,NA,NA,NA,2,6,"6,5,11,9,8,10,15,4,3,14,1,12,2,7,13"
14244,commdev-image-keyboard-response,218,473170,learnblock1,1135.6000003814697,img/planet14_right.png,14,Community 2,NA,FALSE,f,j,NA,NA,NA,2,6,"6,5,11,9,8,10,15,4,3,14,1,12,2,7,13"
14244,commdev-image-keyboard-response,219,474421,learnblock1,1211.8999996185303,img/planet4_left.png,4,Community 2,NA,TRUE,f,f,NA,NA,NA,2,6,"6,5,11,9,8,10,15,4,3,14,1,12,2,7,13"
14244,commdev-image-keyboard-response,220,475673,learnblock1,1120.7999992370605,img/planet12_right.png,12,Community 3,NA,TRUE,j,j,NA,NA,NA,2,6,"6,5,11,9,8,10,15,4,3,14,1,12,2,7,13"
14244,commdev-image-keyboard-response,221,476930,learnblock1,895.5,img/planet4_left.png,4,Community 2,NA,TRUE,f,f,NA,NA,NA,2,6,"6,5,11,9,8,10,15,4,3,14,1,12,2,7,13"
14244,commdev-image-keyboard-response,222,478182,learnblock1,null,img/planet14_left.png,14,Community 2,NA,FALSE,null,f,NA,NA,NA,2,6,"6,5,11,9,8,10,15,4,3,14,1,12,2,7,13"
14244,commdev-image-keyboard-response,223,479434,learnblock1,19.30000114440918,img/planet3_right.png,3,Community 2,NA,FALSE,f,j,NA,NA,NA,2,6,"6,5,11,9,8,10,15,4,3,14,1,12,2,7,13"
14244,commdev-image-keyboard-response,224,480687,learnblock1,null,img/planet4_right.png,4,Community 2,NA,FALSE,null,j,NA,NA,NA,2,6,"6,5,11,9,8,10,15,4,3,14,1,12,2,7,13"
14244,commdev-image-keyboard-response,225,481939,learnblock1,168.39999961853027,img/planet15_right.png,15,Community 2,NA,FALSE,f,j,NA,NA,NA,2,6,"6,5,11,9,8,10,15,4,3,14,1,12,2,7,13"
14244,commdev-image-keyboard-response,226,483190,learnblock1,880.1999988555908,img/planet14_left.png,14,Community 2,NA,FALSE,j,f,NA,NA,NA,2,6,"6,5,11,9,8,10,15,4,3,14,1,12,2,7,13"
14244,commdev-image-keyboard-response,227,484443,learnblock1,890.6000003814697,img/planet15_right.png,15,Community 2,NA,TRUE,j,j,NA,NA,NA,2,6,"6,5,11,9,8,10,15,4,3,14,1,12,2,7,13"
14244,commdev-image-keyboard-response,228,485694,learnblock1,1057.6000003814697,img/planet10_left.png,10,Community 2,NA,TRUE,f,f,NA,NA,NA,2,6,"6,5,11,9,8,10,15,4,3,14,1,12,2,7,13"
14244,commdev-image-keyboard-response,229,486946,learnblock1,1210.6000003814697,img/planet15_left.png,15,Community 2,NA,TRUE,f,f,NA,NA,NA,2,6,"6,5,11,9,8,10,15,4,3,14,1,12,2,7,13"
14244,commdev-image-keyboard-response,230,488198,learnblock1,null,img/planet10_right.png,10,Community 2,NA,FALSE,null,j,NA,NA,NA,2,6,"6,5,11,9,8,10,15,4,3,14,1,12,2,7,13"
14244,commdev-image-keyboard-response,231,489449,learnblock1,37.69999885559082,img/planet3_right.png,3,Community 2,NA,TRUE,j,j,NA,NA,NA,2,6,"6,5,11,9,8,10,15,4,3,14,1,12,2,7,13"
14244,commdev-image-keyboard-response,232,490702,learnblock1,null,img/planet15_left.png,15,Community 2,NA,FALSE,null,f,NA,NA,NA,2,6,"6,5,11,9,8,10,15,4,3,14,1,12,2,7,13"
14244,commdev-image-keyboard-response,233,491954,learnblock1,38.69999885559082,img/planet14_left.png,14,Community 2,NA,TRUE,f,f,NA,NA,NA,2,6,"6,5,11,9,8,10,15,4,3,14,1,12,2,7,13"
14244,commdev-image-keyboard-response,234,493205,learnblock1,714.7000007629395,img/planet4_left.png,4,Community 2,NA,TRUE,f,f,NA,NA,NA,2,6,"6,5,11,9,8,10,15,4,3,14,1,12,2,7,13"
14244,commdev-image-keyboard-response,235,494458,learnblock1,null,img/planet14_left.png,14,Community 2,NA,FALSE,null,f,NA,NA,NA,2,6,"6,5,11,9,8,10,15,4,3,14,1,12,2,7,13"
14244,commdev-image-keyboard-response,236,495711,learnblock1,164.89999961853027,img/planet15_right.png,15,Community 2,NA,FALSE,f,j,NA,NA,NA,2,6,"6,5,11,9,8,10,15,4,3,14,1,12,2,7,13"
14244,commdev-image-keyboard-response,237,496963,learnblock1,1149.8000011444092,img/planet14_left.png,14,Community 2,NA,TRUE,f,f,NA,NA,NA,2,6,"6,5,11,9,8,10,15,4,3,14,1,12,2,7,13"
14244,commdev-image-keyboard-response,238,498215,learnblock1,null,img/planet15_left.png,15,Community 2,NA,FALSE,null,f,NA,NA,NA,2,6,"6,5,11,9,8,10,15,4,3,14,1,12,2,7,13"
14244,commdev-image-keyboard-response,239,499469,learnblock1,85.9000015258789,img/planet14_right.png,14,Community 2,NA,TRUE,j,j,NA,NA,NA,2,6,"6,5,11,9,8,10,15,4,3,14,1,12,2,7,13"
14244,commdev-image-keyboard-response,240,500723,learnblock1,206.10000038146973,img/planet3_right.png,3,Community 2,NA,FALSE,f,j,NA,NA,NA,2,6,"6,5,11,9,8,10,15,4,3,14,1,12,2,7,13"
14244,commdev-image-keyboard-response,241,501977,learnblock1,13.399999618530273,img/planet15_right.png,15,Community 2,NA,TRUE,j,j,NA,NA,NA,2,6,"6,5,11,9,8,10,15,4,3,14,1,12,2,7,13"
14244,commdev-image-keyboard-response,242,503229,learnblock1,814.7000007629395,img/planet3_left.png,3,Community 2,NA,TRUE,f,f,NA,NA,NA,2,6,"6,5,11,9,8,10,15,4,3,14,1,12,2,7,13"
14244,commdev-image-keyboard-response,243,504482,learnblock1,609.3999996185303,img/planet10_left.png,10,Community 2,NA,TRUE,f,f,NA,NA,NA,2,6,"6,5,11,9,8,10,15,4,3,14,1,12,2,7,13"
14244,commdev-image-keyboard-response,244,505739,learnblock1,722.9000015258789,img/planet9_left.png,9,Community 1,NA,TRUE,f,f,NA,NA,NA,2,6,"6,5,11,9,8,10,15,4,3,14,1,12,2,7,13"
14244,commdev-image-keyboard-response,245,506992,learnblock1,898.3999996185303,img/planet6_left.png,6,Community 1,NA,TRUE,f,f,NA,NA,NA,2,6,"6,5,11,9,8,10,15,4,3,14,1,12,2,7,13"
14244,commdev-image-keyboard-response,246,508245,learnblock1,935.8000011444092,img/planet5_left.png,5,Community 1,NA,FALSE,j,f,NA,NA,NA,2,6,"6,5,11,9,8,10,15,4,3,14,1,12,2,7,13"
14244,commdev-image-keyboard-response,247,509499,learnblock1,887.8000011444092,img/planet6_right.png,6,Community 1,NA,TRUE,j,j,NA,NA,NA,2,6,"6,5,11,9,8,10,15,4,3,14,1,12,2,7,13"
14244,commdev-image-keyboard-response,248,510752,learnblock1,null,img/planet9_right.png,9,Community 1,NA,FALSE,null,j,NA,NA,NA,2,6,"6,5,11,9,8,10,15,4,3,14,1,12,2,7,13"
14244,commdev-image-keyboard-response,249,512004,learnblock1,102.5,img/planet10_left.png,10,Community 2,NA,TRUE,f,f,NA,NA,NA,2,6,"6,5,11,9,8,10,15,4,3,14,1,12,2,7,13"
14244,commdev-image-keyboard-response,250,513257,learnblock1,1020.3000011444092,img/planet3_left.png,3,Community 2,NA,TRUE,f,f,NA,NA,NA,2,6,"6,5,11,9,8,10,15,4,3,14,1,12,2,7,13"
14244,commdev-image-keyboard-response,251,514511,learnblock1,null,img/planet10_right.png,10,Community 2,NA,FALSE,null,j,NA,NA,NA,2,6,"6,5,11,9,8,10,15,4,3,14,1,12,2,7,13"
14244,commdev-image-keyboard-response,252,515772,learnblock1,752.7000007629395,img/planet15_left.png,15,Community 2,NA,TRUE,f,f,NA,NA,NA,2,6,"6,5,11,9,8,10,15,4,3,14,1,12,2,7,13"
14244,commdev-image-keyboard-response,253,517025,learnblock1,1048.1000003814697,img/planet10_right.png,10,Community 2,NA,FALSE,f,j,NA,NA,NA,2,6,"6,5,11,9,8,10,15,4,3,14,1,12,2,7,13"
14244,commdev-image-keyboard-response,254,518277,learnblock1,933.8999996185303,img/planet3_left.png,3,Community 2,NA,TRUE,f,f,NA,NA,NA,2,6,"6,5,11,9,8,10,15,4,3,14,1,12,2,7,13"
14244,commdev-image-keyboard-response,255,519529,learnblock1,1238.6999988555908,img/planet4_left.png,4,Community 2,NA,TRUE,f,f,NA,NA,NA,2,6,"6,5,11,9,8,10,15,4,3,14,1,12,2,7,13"
14244,commdev-image-keyboard-response,256,520781,learnblock1,1115.3999996185303,img/planet12_left.png,12,Community 3,NA,FALSE,j,f,NA,NA,NA,2,6,"6,5,11,9,8,10,15,4,3,14,1,12,2,7,13"
14244,commdev-image-keyboard-response,257,522033,learnblock1,null,img/planet13_right.png,13,Community 3,NA,FALSE,null,j,NA,NA,NA,2,6,"6,5,11,9,8,10,15,4,3,14,1,12,2,7,13"
14244,commdev-image-keyboard-response,258,523285,learnblock1,null,img/planet12_right.png,12,Community 3,NA,FALSE,null,j,NA,NA,NA,2,6,"6,5,11,9,8,10,15,4,3,14,1,12,2,7,13"
14244,commdev-image-keyboard-response,259,524538,learnblock1,734,img/planet4_left.png,4,Community 2,NA,TRUE,f,f,NA,NA,NA,2,6,"6,5,11,9,8,10,15,4,3,14,1,12,2,7,13"
14244,commdev-image-keyboard-response,260,525791,learnblock1,778.3999996185303,img/planet15_left.png,15,Community 2,NA,TRUE,f,f,NA,NA,NA,2,6,"6,5,11,9,8,10,15,4,3,14,1,12,2,7,13"
14244,commdev-image-keyboard-response,261,527043,learnblock1,null,img/planet10_right.png,10,Community 2,NA,FALSE,null,j,NA,NA,NA,2,6,"6,5,11,9,8,10,15,4,3,14,1,12,2,7,13"
14244,commdev-image-keyboard-response,262,528297,learnblock1,77.30000114440918,img/planet15_left.png,15,Community 2,NA,FALSE,j,f,NA,NA,NA,2,6,"6,5,11,9,8,10,15,4,3,14,1,12,2,7,13"
14244,commdev-image-keyboard-response,263,529549,learnblock1,127.20000076293945,img/planet4_right.png,4,Community 2,NA,FALSE,f,j,NA,NA,NA,2,6,"6,5,11,9,8,10,15,4,3,14,1,12,2,7,13"
14244,commdev-image-keyboard-response,264,530802,learnblock1,882.3000011444092,img/planet15_right.png,15,Community 2,NA,TRUE,j,j,NA,NA,NA,2,6,"6,5,11,9,8,10,15,4,3,14,1,12,2,7,13"
14244,commdev-image-keyboard-response,265,532055,learnblock1,668.8999996185303,img/planet3_right.png,3,Community 2,NA,TRUE,j,j,NA,NA,NA,2,6,"6,5,11,9,8,10,15,4,3,14,1,12,2,7,13"
14244,commdev-image-keyboard-response,266,533308,learnblock1,608,img/planet15_right.png,15,Community 2,NA,TRUE,j,j,NA,NA,NA,2,6,"6,5,11,9,8,10,15,4,3,14,1,12,2,7,13"
14244,commdev-image-keyboard-response,267,534560,learnblock1,1005.8999996185303,img/planet14_right.png,14,Community 2,NA,TRUE,j,j,NA,NA,NA,2,6,"6,5,11,9,8,10,15,4,3,14,1,12,2,7,13"
14244,commdev-image-keyboard-response,268,535813,learnblock1,831.3000011444092,img/planet4_left.png,4,Community 2,NA,TRUE,f,f,NA,NA,NA,2,6,"6,5,11,9,8,10,15,4,3,14,1,12,2,7,13"
14244,commdev-image-keyboard-response,269,537067,learnblock1,783.6000003814697,img/planet3_right.png,3,Community 2,NA,TRUE,j,j,NA,NA,NA,2,6,"6,5,11,9,8,10,15,4,3,14,1,12,2,7,13"
14244,commdev-image-keyboard-response,270,538320,learnblock1,569.6000003814697,img/planet4_left.png,4,Community 2,NA,TRUE,f,f,NA,NA,NA,2,6,"6,5,11,9,8,10,15,4,3,14,1,12,2,7,13"
14244,commdev-image-keyboard-response,271,539573,learnblock1,956.7000007629395,img/planet3_right.png,3,Community 2,NA,TRUE,j,j,NA,NA,NA,2,6,"6,5,11,9,8,10,15,4,3,14,1,12,2,7,13"
14244,commdev-image-keyboard-response,272,540826,learnblock1,918.6999988555908,img/planet14_right.png,14,Community 2,NA,FALSE,f,j,NA,NA,NA,2,6,"6,5,11,9,8,10,15,4,3,14,1,12,2,7,13"
14244,commdev-image-keyboard-response,273,542079,learnblock1,965.5,img/planet4_left.png,4,Community 2,NA,FALSE,j,f,NA,NA,NA,2,6,"6,5,11,9,8,10,15,4,3,14,1,12,2,7,13"
14244,commdev-image-keyboard-response,274,543332,learnblock1,null,img/planet15_right.png,15,Community 2,NA,FALSE,null,j,NA,NA,NA,2,6,"6,5,11,9,8,10,15,4,3,14,1,12,2,7,13"
14244,commdev-image-keyboard-response,275,544584,learnblock1,0.2999992370605469,img/planet10_left.png,10,Community 2,NA,TRUE,f,f,NA,NA,NA,2,6,"6,5,11,9,8,10,15,4,3,14,1,12,2,7,13"
14244,commdev-image-keyboard-response,276,545838,learnblock1,67.89999961853027,img/planet15_right.png,15,Community 2,NA,FALSE,f,j,NA,NA,NA,2,6,"6,5,11,9,8,10,15,4,3,14,1,12,2,7,13"
14244,commdev-image-keyboard-response,277,547091,learnblock1,912,img/planet4_right.png,4,Community 2,NA,TRUE,j,j,NA,NA,NA,2,6,"6,5,11,9,8,10,15,4,3,14,1,12,2,7,13"
14244,commdev-image-keyboard-response,278,548347,learnblock1,918.6999988555908,img/planet15_left.png,15,Community 2,NA,TRUE,f,f,NA,NA,NA,2,6,"6,5,11,9,8,10,15,4,3,14,1,12,2,7,13"
14244,commdev-image-keyboard-response,279,549600,learnblock1,842.5,img/planet10_right.png,10,Community 2,NA,TRUE,j,j,NA,NA,NA,2,6,"6,5,11,9,8,10,15,4,3,14,1,12,2,7,13"
14244,commdev-image-keyboard-response,280,550852,learnblock1,642.3999996185303,img/planet3_right.png,3,Community 2,NA,FALSE,f,j,NA,NA,NA,2,6,"6,5,11,9,8,10,15,4,3,14,1,12,2,7,13"
14244,commdev-image-keyboard-response,281,552103,learnblock1,1051,img/planet15_left.png,15,Community 2,NA,TRUE,f,f,NA,NA,NA,2,6,"6,5,11,9,8,10,15,4,3,14,1,12,2,7,13"
14244,commdev-image-keyboard-response,282,553356,learnblock1,785.8999996185303,img/planet14_left.png,14,Community 2,NA,FALSE,j,f,NA,NA,NA,2,6,"6,5,11,9,8,10,15,4,3,14,1,12,2,7,13"
14244,commdev-image-keyboard-response,283,554609,learnblock1,769.1000003814697,img/planet4_right.png,4,Community 2,NA,FALSE,f,j,NA,NA,NA,2,6,"6,5,11,9,8,10,15,4,3,14,1,12,2,7,13"
14244,commdev-image-keyboard-response,284,555862,learnblock1,912,img/planet3_left.png,3,Community 2,NA,TRUE,f,f,NA,NA,NA,2,6,"6,5,11,9,8,10,15,4,3,14,1,12,2,7,13"
14244,commdev-image-keyboard-response,285,557120,learnblock1,1043.8000011444092,img/planet4_left.png,4,Community 2,NA,TRUE,f,f,NA,NA,NA,2,6,"6,5,11,9,8,10,15,4,3,14,1,12,2,7,13"
14244,commdev-image-keyboard-response,286,558373,learnblock1,927.8999996185303,img/planet15_right.png,15,Community 2,NA,TRUE,j,j,NA,NA,NA,2,6,"6,5,11,9,8,10,15,4,3,14,1,12,2,7,13"
14244,commdev-image-keyboard-response,287,559628,learnblock1,744.4000015258789,img/planet3_right.png,3,Community 2,NA,TRUE,j,j,NA,NA,NA,2,6,"6,5,11,9,8,10,15,4,3,14,1,12,2,7,13"
14244,commdev-image-keyboard-response,288,560881,learnblock1,945.7000007629395,img/planet4_right.png,4,Community 2,NA,FALSE,f,j,NA,NA,NA,2,6,"6,5,11,9,8,10,15,4,3,14,1,12,2,7,13"
14244,commdev-image-keyboard-response,289,562135,learnblock1,935.7000007629395,img/planet3_right.png,3,Community 2,NA,FALSE,f,j,NA,NA,NA,2,6,"6,5,11,9,8,10,15,4,3,14,1,12,2,7,13"
14244,commdev-image-keyboard-response,290,563388,learnblock1,null,img/planet10_right.png,10,Community 2,NA,FALSE,null,j,NA,NA,NA,2,6,"6,5,11,9,8,10,15,4,3,14,1,12,2,7,13"
14244,commdev-image-keyboard-response,291,564652,learnblock1,871.8999996185303,img/planet14_right.png,14,Community 2,NA,TRUE,j,j,NA,NA,NA,2,6,"6,5,11,9,8,10,15,4,3,14,1,12,2,7,13"
14244,commdev-image-keyboard-response,292,565904,learnblock1,1125.3000011444092,img/planet10_right.png,10,Community 2,NA,TRUE,j,j,NA,NA,NA,2,6,"6,5,11,9,8,10,15,4,3,14,1,12,2,7,13"
14244,commdev-image-keyboard-response,293,567157,learnblock1,772.7999992370605,img/planet15_right.png,15,Community 2,NA,TRUE,j,j,NA,NA,NA,2,6,"6,5,11,9,8,10,15,4,3,14,1,12,2,7,13"
14244,commdev-image-keyboard-response,294,568411,learnblock1,1103.6999988555908,img/planet14_right.png,14,Community 2,NA,FALSE,f,j,NA,NA,NA,2,6,"6,5,11,9,8,10,15,4,3,14,1,12,2,7,13"
14244,commdev-image-keyboard-response,295,569664,learnblock1,1050.8999996185303,img/planet10_left.png,10,Community 2,NA,TRUE,f,f,NA,NA,NA,2,6,"6,5,11,9,8,10,15,4,3,14,1,12,2,7,13"
14244,commdev-image-keyboard-response,296,570917,learnblock1,1008.7000007629395,img/planet3_right.png,3,Community 2,NA,TRUE,j,j,NA,NA,NA,2,6,"6,5,11,9,8,10,15,4,3,14,1,12,2,7,13"
14244,commdev-image-keyboard-response,297,572171,learnblock1,null,img/planet14_left.png,14,Community 2,NA,FALSE,null,f,NA,NA,NA,2,6,"6,5,11,9,8,10,15,4,3,14,1,12,2,7,13"
14244,commdev-image-keyboard-response,298,573423,learnblock1,804.4000015258789,img/planet10_left.png,10,Community 2,NA,TRUE,f,f,NA,NA,NA,2,6,"6,5,11,9,8,10,15,4,3,14,1,12,2,7,13"
14244,commdev-image-keyboard-response,299,574676,learnblock1,727.3999996185303,img/planet9_left.png,9,Community 1,NA,TRUE,f,f,NA,NA,NA,2,6,"6,5,11,9,8,10,15,4,3,14,1,12,2,7,13"
14244,commdev-image-keyboard-response,300,575928,learnblock1,975.6999988555908,img/planet5_right.png,5,Community 1,NA,TRUE,j,j,NA,NA,NA,2,6,"6,5,11,9,8,10,15,4,3,14,1,12,2,7,13"
14244,commdev-image-keyboard-response,301,577181,learnblock1,1077.3999996185303,img/planet6_left.png,6,Community 1,NA,TRUE,f,f,NA,NA,NA,2,6,"6,5,11,9,8,10,15,4,3,14,1,12,2,7,13"
14244,commdev-image-keyboard-response,302,578434,learnblock1,666.2000007629395,img/planet11_right.png,11,Community 1,NA,TRUE,j,j,NA,NA,NA,2,6,"6,5,11,9,8,10,15,4,3,14,1,12,2,7,13"
14244,commdev-image-keyboard-response,303,579686,learnblock1,1096.5,img/planet5_right.png,5,Community 1,NA,TRUE,j,j,NA,NA,NA,2,6,"6,5,11,9,8,10,15,4,3,14,1,12,2,7,13"
14244,commdev-image-keyboard-response,304,580940,learnblock1,650.6999988555908,img/planet9_left.png,9,Community 1,NA,TRUE,f,f,NA,NA,NA,2,6,"6,5,11,9,8,10,15,4,3,14,1,12,2,7,13"
14244,commdev-image-keyboard-response,305,582195,learnblock1,705.5,img/planet6_left.png,6,Community 1,NA,FALSE,j,f,NA,NA,NA,2,6,"6,5,11,9,8,10,15,4,3,14,1,12,2,7,13"
14244,commdev-image-keyboard-response,306,583449,learnblock1,1082.1999988555908,img/planet8_right.png,8,Community 1,NA,TRUE,j,j,NA,NA,NA,2,6,"6,5,11,9,8,10,15,4,3,14,1,12,2,7,13"
14244,commdev-image-keyboard-response,307,584704,learnblock1,774.4000015258789,img/planet5_right.png,5,Community 1,NA,FALSE,f,j,NA,NA,NA,2,6,"6,5,11,9,8,10,15,4,3,14,1,12,2,7,13"
14244,commdev-image-keyboard-response,308,585958,learnblock1,1214.3000011444092,img/planet11_right.png,11,Community 1,NA,TRUE,j,j,NA,NA,NA,2,6,"6,5,11,9,8,10,15,4,3,14,1,12,2,7,13"
14244,commdev-image-keyboard-response,309,587210,learnblock1,886.7999992370605,img/planet6_left.png,6,Community 1,NA,TRUE,f,f,NA,NA,NA,2,6,"6,5,11,9,8,10,15,4,3,14,1,12,2,7,13"
14244,commdev-image-keyboard-response,310,588463,learnblock1,892.3000011444092,img/planet11_left.png,11,Community 1,NA,TRUE,f,f,NA,NA,NA,2,6,"6,5,11,9,8,10,15,4,3,14,1,12,2,7,13"
14244,commdev-image-keyboard-response,311,589717,learnblock1,770.5,img/planet6_left.png,6,Community 1,NA,TRUE,f,f,NA,NA,NA,2,6,"6,5,11,9,8,10,15,4,3,14,1,12,2,7,13"
14244,commdev-image-keyboard-response,312,590971,learnblock1,583.1000003814697,img/planet5_right.png,5,Community 1,NA,TRUE,j,j,NA,NA,NA,2,6,"6,5,11,9,8,10,15,4,3,14,1,12,2,7,13"
14244,commdev-image-keyboard-response,313,592224,learnblock1,737.7000007629395,img/planet6_left.png,6,Community 1,NA,TRUE,f,f,NA,NA,NA,2,6,"6,5,11,9,8,10,15,4,3,14,1,12,2,7,13"
14244,commdev-image-keyboard-response,314,593476,learnblock1,901.8000011444092,img/planet8_right.png,8,Community 1,NA,FALSE,f,j,NA,NA,NA,2,6,"6,5,11,9,8,10,15,4,3,14,1,12,2,7,13"
14244,commdev-image-keyboard-response,315,594730,learnblock1,920.3000011444092,img/planet11_right.png,11,Community 1,NA,TRUE,j,j,NA,NA,NA,2,6,"6,5,11,9,8,10,15,4,3,14,1,12,2,7,13"
14244,commdev-image-keyboard-response,316,595983,learnblock1,668.6000003814697,img/planet5_right.png,5,Community 1,NA,TRUE,j,j,NA,NA,NA,2,6,"6,5,11,9,8,10,15,4,3,14,1,12,2,7,13"
14244,commdev-image-keyboard-response,317,597236,learnblock1,926.1999988555908,img/planet11_left.png,11,Community 1,NA,FALSE,j,f,NA,NA,NA,2,6,"6,5,11,9,8,10,15,4,3,14,1,12,2,7,13"
14244,commdev-image-keyboard-response,318,598488,learnblock1,912.8000011444092,img/planet5_left.png,5,Community 1,NA,FALSE,j,f,NA,NA,NA,2,6,"6,5,11,9,8,10,15,4,3,14,1,12,2,7,13"
14244,commdev-image-keyboard-response,319,599742,learnblock1,null,img/planet6_right.png,6,Community 1,NA,FALSE,null,j,NA,NA,NA,2,6,"6,5,11,9,8,10,15,4,3,14,1,12,2,7,13"
14244,commdev-image-keyboard-response,320,600996,learnblock1,44.79999923706055,img/planet5_right.png,5,Community 1,NA,FALSE,f,j,NA,NA,NA,2,6,"6,5,11,9,8,10,15,4,3,14,1,12,2,7,13"
14244,commdev-image-keyboard-response,321,602249,learnblock1,892,img/planet6_left.png,6,Community 1,NA,TRUE,f,f,NA,NA,NA,2,6,"6,5,11,9,8,10,15,4,3,14,1,12,2,7,13"
14244,commdev-image-keyboard-response,322,603501,learnblock1,1111.8999996185303,img/planet9_right.png,9,Community 1,NA,TRUE,j,j,NA,NA,NA,2,6,"6,5,11,9,8,10,15,4,3,14,1,12,2,7,13"
14244,commdev-image-keyboard-response,323,604754,learnblock1,1016.2999992370605,img/planet5_right.png,5,Community 1,NA,TRUE,j,j,NA,NA,NA,2,6,"6,5,11,9,8,10,15,4,3,14,1,12,2,7,13"
14244,commdev-image-keyboard-response,324,606008,learnblock1,864.1000003814697,img/planet11_right.png,11,Community 1,NA,TRUE,j,j,NA,NA,NA,2,6,"6,5,11,9,8,10,15,4,3,14,1,12,2,7,13"
14244,commdev-image-keyboard-response,325,607261,learnblock1,1080.400001525879,img/planet9_left.png,9,Community 1,NA,TRUE,f,f,NA,NA,NA,2,6,"6,5,11,9,8,10,15,4,3,14,1,12,2,7,13"
14244,commdev-image-keyboard-response,326,608515,learnblock1,898.1000003814697,img/planet5_right.png,5,Community 1,NA,TRUE,j,j,NA,NA,NA,2,6,"6,5,11,9,8,10,15,4,3,14,1,12,2,7,13"
14244,commdev-image-keyboard-response,327,609767,learnblock1,861.7000007629395,img/planet8_right.png,8,Community 1,NA,TRUE,j,j,NA,NA,NA,2,6,"6,5,11,9,8,10,15,4,3,14,1,12,2,7,13"
14244,commdev-image-keyboard-response,328,611021,learnblock1,950.8999996185303,img/planet1_left.png,1,Community 3,NA,TRUE,f,f,NA,NA,NA,2,6,"6,5,11,9,8,10,15,4,3,14,1,12,2,7,13"
14244,commdev-image-keyboard-response,329,612275,learnblock1,null,img/planet8_left.png,8,Community 1,NA,FALSE,null,f,NA,NA,NA,2,6,"6,5,11,9,8,10,15,4,3,14,1,12,2,7,13"
14244,commdev-image-keyboard-response,330,613530,learnblock1,286.8999996185303,img/planet6_left.png,6,Community 1,NA,TRUE,f,f,NA,NA,NA,2,6,"6,5,11,9,8,10,15,4,3,14,1,12,2,7,13"
14244,commdev-image-keyboard-response,331,614782,learnblock1,744.9000015258789,img/planet9_left.png,9,Community 1,NA,TRUE,f,f,NA,NA,NA,2,6,"6,5,11,9,8,10,15,4,3,14,1,12,2,7,13"
14244,commdev-image-keyboard-response,332,616037,learnblock1,853.1000003814697,img/planet5_left.png,5,Community 1,NA,TRUE,f,f,NA,NA,NA,2,6,"6,5,11,9,8,10,15,4,3,14,1,12,2,7,13"
14244,commdev-image-keyboard-response,333,617289,learnblock1,null,img/planet8_left.png,8,Community 1,NA,FALSE,null,f,NA,NA,NA,2,6,"6,5,11,9,8,10,15,4,3,14,1,12,2,7,13"
14244,commdev-image-keyboard-response,334,618543,learnblock1,13.700000762939453,img/planet11_right.png,11,Community 1,NA,FALSE,f,j,NA,NA,NA,2,6,"6,5,11,9,8,10,15,4,3,14,1,12,2,7,13"
14244,commdev-image-keyboard-response,335,619796,learnblock1,124.89999961853027,img/planet6_right.png,6,Community 1,NA,TRUE,j,j,NA,NA,NA,2,6,"6,5,11,9,8,10,15,4,3,14,1,12,2,7,13"
14244,commdev-image-keyboard-response,336,621074,learnblock1,29.600000381469727,img/planet8_left.png,8,Community 1,NA,FALSE,j,f,NA,NA,NA,2,6,"6,5,11,9,8,10,15,4,3,14,1,12,2,7,13"
14244,commdev-image-keyboard-response,337,622326,learnblock1,194.79999923706055,img/planet6_left.png,6,Community 1,NA,FALSE,j,f,NA,NA,NA,2,6,"6,5,11,9,8,10,15,4,3,14,1,12,2,7,13"
14244,commdev-image-keyboard-response,338,623589,learnblock1,947.6999988555908,img/planet5_left.png,5,Community 1,NA,TRUE,f,f,NA,NA,NA,2,6,"6,5,11,9,8,10,15,4,3,14,1,12,2,7,13"
14244,commdev-image-keyboard-response,339,624841,learnblock1,1053.3999996185303,img/planet8_right.png,8,Community 1,NA,TRUE,j,j,NA,NA,NA,2,6,"6,5,11,9,8,10,15,4,3,14,1,12,2,7,13"
14244,commdev-image-keyboard-response,340,626093,learnblock1,null,img/planet1_left.png,1,Community 3,NA,FALSE,null,f,NA,NA,NA,2,6,"6,5,11,9,8,10,15,4,3,14,1,12,2,7,13"
14244,commdev-image-keyboard-response,341,627345,learnblock1,209.20000076293945,img/planet13_right.png,13,Community 3,NA,FALSE,f,j,NA,NA,NA,2,6,"6,5,11,9,8,10,15,4,3,14,1,12,2,7,13"
14244,commdev-image-keyboard-response,342,628598,learnblock1,null,img/planet1_right.png,1,Community 3,NA,FALSE,null,j,NA,NA,NA,2,6,"6,5,11,9,8,10,15,4,3,14,1,12,2,7,13"
14244,commdev-image-keyboard-response,343,629851,learnblock1,220.79999923706055,img/planet13_right.png,13,Community 3,NA,TRUE,j,j,NA,NA,NA,2,6,"6,5,11,9,8,10,15,4,3,14,1,12,2,7,13"
14244,commdev-image-keyboard-response,344,631103,learnblock1,1083.5,img/planet12_left.png,12,Community 3,NA,FALSE,j,f,NA,NA,NA,2,6,"6,5,11,9,8,10,15,4,3,14,1,12,2,7,13"
14244,commdev-image-keyboard-response,345,632355,learnblock1,null,img/planet2_left.png,2,Community 3,NA,FALSE,null,f,NA,NA,NA,2,6,"6,5,11,9,8,10,15,4,3,14,1,12,2,7,13"
14244,commdev-image-keyboard-response,346,633608,learnblock1,1035.900001525879,img/planet7_left.png,7,Community 3,NA,TRUE,f,f,NA,NA,NA,2,6,"6,5,11,9,8,10,15,4,3,14,1,12,2,7,13"
14244,commdev-image-keyboard-response,347,634860,learnblock1,709.7999992370605,img/planet2_left.png,2,Community 3,NA,TRUE,f,f,NA,NA,NA,2,6,"6,5,11,9,8,10,15,4,3,14,1,12,2,7,13"
14244,commdev-image-keyboard-response,351,694799,learnblock2,null,img/planet2_right.png,2,Community 3,NA,FALSE,null,j,NA,NA,NA,2,6,"6,5,11,9,8,10,15,4,3,14,1,12,2,7,13"
14244,commdev-image-keyboard-response,352,696052,learnblock2,138.80000114440918,img/planet7_right.png,7,Community 3,NA,TRUE,j,j,NA,NA,NA,2,6,"6,5,11,9,8,10,15,4,3,14,1,12,2,7,13"
14244,commdev-image-keyboard-response,353,697305,learnblock2,728.7999992370605,img/planet12_left.png,12,Community 3,NA,TRUE,f,f,NA,NA,NA,2,6,"6,5,11,9,8,10,15,4,3,14,1,12,2,7,13"
14244,commdev-image-keyboard-response,354,698558,learnblock2,656.7000007629395,img/planet13_right.png,13,Community 3,NA,TRUE,j,j,NA,NA,NA,2,6,"6,5,11,9,8,10,15,4,3,14,1,12,2,7,13"
14244,commdev-image-keyboard-response,355,699810,learnblock2,670.3000011444092,img/planet1_left.png,1,Community 3,NA,TRUE,f,f,NA,NA,NA,2,6,"6,5,11,9,8,10,15,4,3,14,1,12,2,7,13"
14244,commdev-image-keyboard-response,356,701064,learnblock2,810.1000003814697,img/planet7_right.png,7,Community 3,NA,TRUE,j,j,NA,NA,NA,2,6,"6,5,11,9,8,10,15,4,3,14,1,12,2,7,13"
14244,commdev-image-keyboard-response,357,702317,learnblock2,651.2000007629395,img/planet2_left.png,2,Community 3,NA,TRUE,f,f,NA,NA,NA,2,6,"6,5,11,9,8,10,15,4,3,14,1,12,2,7,13"
14244,commdev-image-keyboard-response,358,703571,learnblock2,637.3000011444092,img/planet7_right.png,7,Community 3,NA,TRUE,j,j,NA,NA,NA,2,6,"6,5,11,9,8,10,15,4,3,14,1,12,2,7,13"
14244,commdev-image-keyboard-response,359,704825,learnblock2,704.7999992370605,img/planet12_left.png,12,Community 3,NA,TRUE,f,f,NA,NA,NA,2,6,"6,5,11,9,8,10,15,4,3,14,1,12,2,7,13"
14244,commdev-image-keyboard-response,360,706076,learnblock2,1077.7999992370605,img/planet4_right.png,4,Community 2,NA,TRUE,j,j,NA,NA,NA,2,6,"6,5,11,9,8,10,15,4,3,14,1,12,2,7,13"
14244,commdev-image-keyboard-response,361,707328,learnblock2,1198.8999996185303,img/planet14_right.png,14,Community 2,NA,TRUE,j,j,NA,NA,NA,2,6,"6,5,11,9,8,10,15,4,3,14,1,12,2,7,13"
14244,commdev-image-keyboard-response,362,708582,learnblock2,null,img/planet4_right.png,4,Community 2,NA,FALSE,null,j,NA,NA,NA,2,6,"6,5,11,9,8,10,15,4,3,14,1,12,2,7,13"
14244,commdev-image-keyboard-response,363,709844,learnblock2,140,img/planet12_left.png,12,Community 3,NA,FALSE,j,f,NA,NA,NA,2,6,"6,5,11,9,8,10,15,4,3,14,1,12,2,7,13"
14244,commdev-image-keyboard-response,364,711097,learnblock2,647.2999992370605,img/planet13_right.png,13,Community 3,NA,TRUE,j,j,NA,NA,NA,2,6,"6,5,11,9,8,10,15,4,3,14,1,12,2,7,13"
14244,commdev-image-keyboard-response,365,712350,learnblock2,787.2000007629395,img/planet12_right.png,12,Community 3,NA,FALSE,f,j,NA,NA,NA,2,6,"6,5,11,9,8,10,15,4,3,14,1,12,2,7,13"
14244,commdev-image-keyboard-response,366,713602,learnblock2,833.7999992370605,img/planet4_left.png,4,Community 2,NA,TRUE,f,f,NA,NA,NA,2,6,"6,5,11,9,8,10,15,4,3,14,1,12,2,7,13"
14244,commdev-image-keyboard-response,367,714855,learnblock2,793,img/planet15_left.png,15,Community 2,NA,TRUE,f,f,NA,NA,NA,2,6,"6,5,11,9,8,10,15,4,3,14,1,12,2,7,13"
14244,commdev-image-keyboard-response,368,716107,learnblock2,637.5999984741211,img/planet4_right.png,4,Community 2,NA,TRUE,j,j,NA,NA,NA,2,6,"6,5,11,9,8,10,15,4,3,14,1,12,2,7,13"
14244,commdev-image-keyboard-response,369,717359,learnblock2,610.5999984741211,img/planet15_left.png,15,Community 2,NA,TRUE,f,f,NA,NA,NA,2,6,"6,5,11,9,8,10,15,4,3,14,1,12,2,7,13"
14244,commdev-image-keyboard-response,370,718612,learnblock2,765.2999992370605,img/planet4_left.png,4,Community 2,NA,TRUE,f,f,NA,NA,NA,2,6,"6,5,11,9,8,10,15,4,3,14,1,12,2,7,13"
14244,commdev-image-keyboard-response,371,719864,learnblock2,1117.8000011444092,img/planet15_left.png,15,Community 2,NA,FALSE,j,f,NA,NA,NA,2,6,"6,5,11,9,8,10,15,4,3,14,1,12,2,7,13"
14244,commdev-image-keyboard-response,372,721119,learnblock2,680.3000011444092,img/planet10_left.png,10,Community 2,NA,TRUE,f,f,NA,NA,NA,2,6,"6,5,11,9,8,10,15,4,3,14,1,12,2,7,13"
14244,commdev-image-keyboard-response,373,722371,learnblock2,858.2000007629395,img/planet15_right.png,15,Community 2,NA,TRUE,j,j,NA,NA,NA,2,6,"6,5,11,9,8,10,15,4,3,14,1,12,2,7,13"
14244,commdev-image-keyboard-response,374,723622,learnblock2,641.1000003814697,img/planet3_left.png,3,Community 2,NA,TRUE,f,f,NA,NA,NA,2,6,"6,5,11,9,8,10,15,4,3,14,1,12,2,7,13"
14244,commdev-image-keyboard-response,375,724876,learnblock2,1178.5,img/planet14_right.png,14,Community 2,NA,FALSE,f,j,NA,NA,NA,2,6,"6,5,11,9,8,10,15,4,3,14,1,12,2,7,13"
14244,commdev-image-keyboard-response,376,726129,learnblock2,1099.6999988555908,img/planet10_right.png,10,Community 2,NA,FALSE,f,j,NA,NA,NA,2,6,"6,5,11,9,8,10,15,4,3,14,1,12,2,7,13"
14244,commdev-image-keyboard-response,377,727381,learnblock2,null,img/planet14_right.png,14,Community 2,NA,FALSE,null,j,NA,NA,NA,2,6,"6,5,11,9,8,10,15,4,3,14,1,12,2,7,13"
14244,commdev-image-keyboard-response,378,728634,learnblock2,192.60000038146973,img/planet15_right.png,15,Community 2,NA,TRUE,j,j,NA,NA,NA,2,6,"6,5,11,9,8,10,15,4,3,14,1,12,2,7,13"
14244,commdev-image-keyboard-response,379,729888,learnblock2,690.7000007629395,img/planet10_left.png,10,Community 2,NA,TRUE,f,f,NA,NA,NA,2,6,"6,5,11,9,8,10,15,4,3,14,1,12,2,7,13"
14244,commdev-image-keyboard-response,380,731141,learnblock2,707.6000003814697,img/planet9_right.png,9,Community 1,NA,TRUE,j,j,NA,NA,NA,2,6,"6,5,11,9,8,10,15,4,3,14,1,12,2,7,13"
14244,commdev-image-keyboard-response,381,732393,learnblock2,744.3000011444092,img/planet11_right.png,11,Community 1,NA,TRUE,j,j,NA,NA,NA,2,6,"6,5,11,9,8,10,15,4,3,14,1,12,2,7,13"
14244,commdev-image-keyboard-response,382,733647,learnblock2,714.2999992370605,img/planet8_left.png,8,Community 1,NA,TRUE,f,f,NA,NA,NA,2,6,"6,5,11,9,8,10,15,4,3,14,1,12,2,7,13"
14244,commdev-image-keyboard-response,383,734901,learnblock2,890.5,img/planet6_left.png,6,Community 1,NA,TRUE,f,f,NA,NA,NA,2,6,"6,5,11,9,8,10,15,4,3,14,1,12,2,7,13"
14244,commdev-image-keyboard-response,384,736153,learnblock2,null,img/planet8_left.png,8,Community 1,NA,FALSE,null,f,NA,NA,NA,2,6,"6,5,11,9,8,10,15,4,3,14,1,12,2,7,13"
14244,commdev-image-keyboard-response,385,737406,learnblock2,672.5,img/planet11_right.png,11,Community 1,NA,TRUE,j,j,NA,NA,NA,2,6,"6,5,11,9,8,10,15,4,3,14,1,12,2,7,13"
14244,commdev-image-keyboard-response,386,738659,learnblock2,null,img/planet9_right.png,9,Community 1,NA,FALSE,null,j,NA,NA,NA,2,6,"6,5,11,9,8,10,15,4,3,14,1,12,2,7,13"
14244,commdev-image-keyboard-response,387,739911,learnblock2,67.29999923706055,img/planet11_right.png,11,Community 1,NA,FALSE,f,j,NA,NA,NA,2,6,"6,5,11,9,8,10,15,4,3,14,1,12,2,7,13"
14244,commdev-image-keyboard-response,388,741164,learnblock2,119.70000076293945,img/planet8_left.png,8,Community 1,NA,FALSE,j,f,NA,NA,NA,2,6,"6,5,11,9,8,10,15,4,3,14,1,12,2,7,13"
14244,commdev-image-keyboard-response,389,742417,learnblock2,764.1999988555908,img/planet5_right.png,5,Community 1,NA,TRUE,j,j,NA,NA,NA,2,6,"6,5,11,9,8,10,15,4,3,14,1,12,2,7,13"
14244,commdev-image-keyboard-response,390,743671,learnblock2,1133,img/planet8_left.png,8,Community 1,NA,TRUE,f,f,NA,NA,NA,2,6,"6,5,11,9,8,10,15,4,3,14,1,12,2,7,13"
14244,commdev-image-keyboard-response,391,744924,learnblock2,747.1000003814697,img/planet6_left.png,6,Community 1,NA,TRUE,f,f,NA,NA,NA,2,6,"6,5,11,9,8,10,15,4,3,14,1,12,2,7,13"
14244,commdev-image-keyboard-response,392,746177,learnblock2,null,img/planet5_left.png,5,Community 1,NA,FALSE,null,f,NA,NA,NA,2,6,"6,5,11,9,8,10,15,4,3,14,1,12,2,7,13"
14244,commdev-image-keyboard-response,393,747430,learnblock2,301.5999984741211,img/planet11_left.png,11,Community 1,NA,TRUE,f,f,NA,NA,NA,2,6,"6,5,11,9,8,10,15,4,3,14,1,12,2,7,13"
14244,commdev-image-keyboard-response,394,748683,learnblock2,859.6000003814697,img/planet5_right.png,5,Community 1,NA,TRUE,j,j,NA,NA,NA,2,6,"6,5,11,9,8,10,15,4,3,14,1,12,2,7,13"
14244,commdev-image-keyboard-response,395,749935,learnblock2,991.7000007629395,img/planet8_left.png,8,Community 1,NA,TRUE,f,f,NA,NA,NA,2,6,"6,5,11,9,8,10,15,4,3,14,1,12,2,7,13"
14244,commdev-image-keyboard-response,396,751190,learnblock2,1137.6000003814697,img/planet5_left.png,5,Community 1,NA,TRUE,f,f,NA,NA,NA,2,6,"6,5,11,9,8,10,15,4,3,14,1,12,2,7,13"
14244,commdev-image-keyboard-response,397,752443,learnblock2,1095.6999988555908,img/planet11_right.png,11,Community 1,NA,TRUE,j,j,NA,NA,NA,2,6,"6,5,11,9,8,10,15,4,3,14,1,12,2,7,13"
14244,commdev-image-keyboard-response,398,753695,learnblock2,906.3999996185303,img/planet9_right.png,9,Community 1,NA,TRUE,j,j,NA,NA,NA,2,6,"6,5,11,9,8,10,15,4,3,14,1,12,2,7,13"
14244,commdev-image-keyboard-response,399,754949,learnblock2,1138,img/planet5_right.png,5,Community 1,NA,FALSE,f,j,NA,NA,NA,2,6,"6,5,11,9,8,10,15,4,3,14,1,12,2,7,13"
14244,commdev-image-keyboard-response,400,756202,learnblock2,885.8999996185303,img/planet8_right.png,8,Community 1,NA,TRUE,j,j,NA,NA,NA,2,6,"6,5,11,9,8,10,15,4,3,14,1,12,2,7,13"
14244,commdev-image-keyboard-response,401,757461,learnblock2,1161.5,img/planet5_left.png,5,Community 1,NA,TRUE,f,f,NA,NA,NA,2,6,"6,5,11,9,8,10,15,4,3,14,1,12,2,7,13"
14244,commdev-image-keyboard-response,402,758716,learnblock2,862.6999988555908,img/planet11_left.png,11,Community 1,NA,FALSE,j,f,NA,NA,NA,2,6,"6,5,11,9,8,10,15,4,3,14,1,12,2,7,13"
14244,commdev-image-keyboard-response,403,759974,learnblock2,848.1999988555908,img/planet5_left.png,5,Community 1,NA,TRUE,f,f,NA,NA,NA,2,6,"6,5,11,9,8,10,15,4,3,14,1,12,2,7,13"
14244,commdev-image-keyboard-response,404,761227,learnblock2,650.3000011444092,img/planet6_left.png,6,Community 1,NA,TRUE,f,f,NA,NA,NA,2,6,"6,5,11,9,8,10,15,4,3,14,1,12,2,7,13"
14244,commdev-image-keyboard-response,405,762483,learnblock2,820.3000011444092,img/planet8_left.png,8,Community 1,NA,TRUE,f,f,NA,NA,NA,2,6,"6,5,11,9,8,10,15,4,3,14,1,12,2,7,13"
14244,commdev-image-keyboard-response,406,763747,learnblock2,666.5,img/planet6_left.png,6,Community 1,NA,TRUE,f,f,NA,NA,NA,2,6,"6,5,11,9,8,10,15,4,3,14,1,12,2,7,13"
14244,commdev-image-keyboard-response,407,765011,learnblock2,870.6999988555908,img/planet11_right.png,11,Community 1,NA,TRUE,j,j,NA,NA,NA,2,6,"6,5,11,9,8,10,15,4,3,14,1,12,2,7,13"
14244,commdev-image-keyboard-response,408,766272,learnblock2,1108.8000011444092,img/planet9_left.png,9,Community 1,NA,TRUE,f,f,NA,NA,NA,2,6,"6,5,11,9,8,10,15,4,3,14,1,12,2,7,13"
14244,commdev-image-keyboard-response,409,767525,learnblock2,848.8999996185303,img/planet10_left.png,10,Community 2,NA,TRUE,f,f,NA,NA,NA,2,6,"6,5,11,9,8,10,15,4,3,14,1,12,2,7,13"
14244,commdev-image-keyboard-response,410,768781,learnblock2,null,img/planet14_left.png,14,Community 2,NA,FALSE,null,f,NA,NA,NA,2,6,"6,5,11,9,8,10,15,4,3,14,1,12,2,7,13"
14244,commdev-image-keyboard-response,411,770045,learnblock2,null,img/planet4_right.png,4,Community 2,NA,FALSE,null,j,NA,NA,NA,2,6,"6,5,11,9,8,10,15,4,3,14,1,12,2,7,13"
14244,commdev-image-keyboard-response,412,771305,learnblock2,991.3999996185303,img/planet15_right.png,15,Community 2,NA,TRUE,j,j,NA,NA,NA,2,6,"6,5,11,9,8,10,15,4,3,14,1,12,2,7,13"
14244,commdev-image-keyboard-response,413,772565,learnblock2,771.3000011444092,img/planet3_right.png,3,Community 2,NA,TRUE,j,j,NA,NA,NA,2,6,"6,5,11,9,8,10,15,4,3,14,1,12,2,7,13"
14244,commdev-image-keyboard-response,414,773824,learnblock2,886.5,img/planet14_right.png,14,Community 2,NA,FALSE,f,j,NA,NA,NA,2,6,"6,5,11,9,8,10,15,4,3,14,1,12,2,7,13"
14244,commdev-image-keyboard-response,415,775078,learnblock2,936.1000003814697,img/planet3_left.png,3,Community 2,NA,TRUE,f,f,NA,NA,NA,2,6,"6,5,11,9,8,10,15,4,3,14,1,12,2,7,13"
14244,commdev-image-keyboard-response,416,776336,learnblock2,null,img/planet15_left.png,15,Community 2,NA,FALSE,null,f,NA,NA,NA,2,6,"6,5,11,9,8,10,15,4,3,14,1,12,2,7,13"
14244,commdev-image-keyboard-response,417,777589,learnblock2,119.39999961853027,img/planet14_left.png,14,Community 2,NA,TRUE,f,f,NA,NA,NA,2,6,"6,5,11,9,8,10,15,4,3,14,1,12,2,7,13"
14244,commdev-image-keyboard-response,418,778843,learnblock2,732.6999988555908,img/planet10_left.png,10,Community 2,NA,TRUE,f,f,NA,NA,NA,2,6,"6,5,11,9,8,10,15,4,3,14,1,12,2,7,13"
14244,commdev-image-keyboard-response,419,780098,learnblock2,689.3999996185303,img/planet15_left.png,15,Community 2,NA,TRUE,f,f,NA,NA,NA,2,6,"6,5,11,9,8,10,15,4,3,14,1,12,2,7,13"
14244,commdev-image-keyboard-response,420,781352,learnblock2,793.3999996185303,img/planet4_left.png,4,Community 2,NA,TRUE,f,f,NA,NA,NA,2,6,"6,5,11,9,8,10,15,4,3,14,1,12,2,7,13"
14244,commdev-image-keyboard-response,421,782612,learnblock2,964.6999988555908,img/planet14_left.png,14,Community 2,NA,TRUE,f,f,NA,NA,NA,2,6,"6,5,11,9,8,10,15,4,3,14,1,12,2,7,13"
14244,commdev-image-keyboard-response,422,783871,learnblock2,null,img/planet10_right.png,10,Community 2,NA,FALSE,null,j,NA,NA,NA,2,6,"6,5,11,9,8,10,15,4,3,14,1,12,2,7,13"
14244,commdev-image-keyboard-response,423,785140,learnblock2,null,img/planet9_left.png,9,Community 1,NA,FALSE,null,f,NA,NA,NA,2,6,"6,5,11,9,8,10,15,4,3,14,1,12,2,7,13"
14244,commdev-image-keyboard-response,424,786400,learnblock2,146.89999961853027,img/planet11_left.png,11,Community 1,NA,TRUE,f,f,NA,NA,NA,2,6,"6,5,11,9,8,10,15,4,3,14,1,12,2,7,13"
14244,commdev-image-keyboard-response,425,787653,learnblock2,null,img/planet5_left.png,5,Community 1,NA,FALSE,null,f,NA,NA,NA,2,6,"6,5,11,9,8,10,15,4,3,14,1,12,2,7,13"
14244,commdev-image-keyboard-response,426,788906,learnblock2,92.20000076293945,img/planet6_right.png,6,Community 1,NA,TRUE,j,j,NA,NA,NA,2,6,"6,5,11,9,8,10,15,4,3,14,1,12,2,7,13"
14244,commdev-image-keyboard-response,427,790163,learnblock2,1008.6000003814697,img/planet5_left.png,5,Community 1,NA,TRUE,f,f,NA,NA,NA,2,6,"6,5,11,9,8,10,15,4,3,14,1,12,2,7,13"
14244,commdev-image-keyboard-response,428,791420,learnblock2,915.3999996185303,img/planet8_right.png,8,Community 1,NA,TRUE,j,j,NA,NA,NA,2,6,"6,5,11,9,8,10,15,4,3,14,1,12,2,7,13"
14244,commdev-image-keyboard-response,429,792676,learnblock2,920.6000003814697,img/planet5_left.png,5,Community 1,NA,TRUE,f,f,NA,NA,NA,2,6,"6,5,11,9,8,10,15,4,3,14,1,12,2,7,13"
14244,commdev-image-keyboard-response,430,793930,learnblock2,1105,img/planet6_left.png,6,Community 1,NA,TRUE,f,f,NA,NA,NA,2,6,"6,5,11,9,8,10,15,4,3,14,1,12,2,7,13"
14244,commdev-image-keyboard-response,431,795188,learnblock2,1103.5,img/planet5_left.png,5,Community 1,NA,TRUE,f,f,NA,NA,NA,2,6,"6,5,11,9,8,10,15,4,3,14,1,12,2,7,13"
14244,commdev-image-keyboard-response,432,796449,learnblock2,737.3999996185303,img/planet9_right.png,9,Community 1,NA,TRUE,j,j,NA,NA,NA,2,6,"6,5,11,9,8,10,15,4,3,14,1,12,2,7,13"
14244,commdev-image-keyboard-response,433,797709,learnblock2,795.0999984741211,img/planet6_left.png,6,Community 1,NA,TRUE,f,f,NA,NA,NA,2,6,"6,5,11,9,8,10,15,4,3,14,1,12,2,7,13"
14244,commdev-image-keyboard-response,434,798965,learnblock2,577,img/planet5_right.png,5,Community 1,NA,TRUE,j,j,NA,NA,NA,2,6,"6,5,11,9,8,10,15,4,3,14,1,12,2,7,13"
14244,commdev-image-keyboard-response,435,800222,learnblock2,739.1000003814697,img/planet11_left.png,11,Community 1,NA,TRUE,f,f,NA,NA,NA,2,6,"6,5,11,9,8,10,15,4,3,14,1,12,2,7,13"
14244,commdev-image-keyboard-response,436,801478,learnblock2,587.6000003814697,img/planet9_left.png,9,Community 1,NA,FALSE,j,f,NA,NA,NA,2,6,"6,5,11,9,8,10,15,4,3,14,1,12,2,7,13"
14244,commdev-image-keyboard-response,437,802730,learnblock2,560.7999992370605,img/planet10_right.png,10,Community 2,NA,FALSE,f,j,NA,NA,NA,2,6,"6,5,11,9,8,10,15,4,3,14,1,12,2,7,13"
14244,commdev-image-keyboard-response,438,803983,learnblock2,800.6000003814697,img/planet9_right.png,9,Community 1,NA,TRUE,j,j,NA,NA,NA,2,6,"6,5,11,9,8,10,15,4,3,14,1,12,2,7,13"
14244,commdev-image-keyboard-response,439,805237,learnblock2,1018.7000007629395,img/planet11_right.png,11,Community 1,NA,TRUE,j,j,NA,NA,NA,2,6,"6,5,11,9,8,10,15,4,3,14,1,12,2,7,13"
14244,commdev-image-keyboard-response,440,806495,learnblock2,828.6000003814697,img/planet6_right.png,6,Community 1,NA,TRUE,j,j,NA,NA,NA,2,6,"6,5,11,9,8,10,15,4,3,14,1,12,2,7,13"
14244,commdev-image-keyboard-response,441,807755,learnblock2,681.6000003814697,img/planet8_left.png,8,Community 1,NA,TRUE,f,f,NA,NA,NA,2,6,"6,5,11,9,8,10,15,4,3,14,1,12,2,7,13"
14244,commdev-image-keyboard-response,442,809008,learnblock2,589.6000003814697,img/planet6_right.png,6,Community 1,NA,TRUE,j,j,NA,NA,NA,2,6,"6,5,11,9,8,10,15,4,3,14,1,12,2,7,13"
14244,commdev-image-keyboard-response,443,810267,learnblock2,1222.6000003814697,img/planet5_left.png,5,Community 1,NA,TRUE,f,f,NA,NA,NA,2,6,"6,5,11,9,8,10,15,4,3,14,1,12,2,7,13"
14244,commdev-image-keyboard-response,444,811529,learnblock2,1059.1999988555908,img/planet8_right.png,8,Community 1,NA,TRUE,j,j,NA,NA,NA,2,6,"6,5,11,9,8,10,15,4,3,14,1,12,2,7,13"
14244,commdev-image-keyboard-response,445,812784,learnblock2,1036.8999996185303,img/planet1_right.png,1,Community 3,NA,TRUE,j,j,NA,NA,NA,2,6,"6,5,11,9,8,10,15,4,3,14,1,12,2,7,13"
14244,commdev-image-keyboard-response,446,814051,learnblock2,867.6999988555908,img/planet7_right.png,7,Community 3,NA,TRUE,j,j,NA,NA,NA,2,6,"6,5,11,9,8,10,15,4,3,14,1,12,2,7,13"
14244,commdev-image-keyboard-response,447,815309,learnblock2,917.5999984741211,img/planet2_left.png,2,Community 3,NA,FALSE,j,f,NA,NA,NA,2,6,"6,5,11,9,8,10,15,4,3,14,1,12,2,7,13"
14244,commdev-image-keyboard-response,448,816563,learnblock2,1160.5,img/planet7_right.png,7,Community 3,NA,TRUE,j,j,NA,NA,NA,2,6,"6,5,11,9,8,10,15,4,3,14,1,12,2,7,13"
14244,commdev-image-keyboard-response,449,817818,learnblock2,null,img/planet2_right.png,2,Community 3,NA,FALSE,null,j,NA,NA,NA,2,6,"6,5,11,9,8,10,15,4,3,14,1,12,2,7,13"
14244,commdev-image-keyboard-response,450,819077,learnblock2,222.60000038146973,img/planet1_left.png,1,Community 3,NA,TRUE,f,f,NA,NA,NA,2,6,"6,5,11,9,8,10,15,4,3,14,1,12,2,7,13"
14244,commdev-image-keyboard-response,451,820334,learnblock2,1005.9000015258789,img/planet2_left.png,2,Community 3,NA,TRUE,f,f,NA,NA,NA,2,6,"6,5,11,9,8,10,15,4,3,14,1,12,2,7,13"
14244,commdev-image-keyboard-response,452,821590,learnblock2,976.7000007629395,img/planet12_right.png,12,Community 3,NA,TRUE,j,j,NA,NA,NA,2,6,"6,5,11,9,8,10,15,4,3,14,1,12,2,7,13"
14244,commdev-image-keyboard-response,453,822849,learnblock2,768.2000007629395,img/planet13_right.png,13,Community 3,NA,TRUE,j,j,NA,NA,NA,2,6,"6,5,11,9,8,10,15,4,3,14,1,12,2,7,13"
14244,commdev-image-keyboard-response,454,824107,learnblock2,722.3999996185303,img/planet12_left.png,12,Community 3,NA,TRUE,f,f,NA,NA,NA,2,6,"6,5,11,9,8,10,15,4,3,14,1,12,2,7,13"
14244,commdev-image-keyboard-response,455,825363,learnblock2,754.2999992370605,img/planet4_right.png,4,Community 2,NA,TRUE,j,j,NA,NA,NA,2,6,"6,5,11,9,8,10,15,4,3,14,1,12,2,7,13"
14244,commdev-image-keyboard-response,456,826621,learnblock2,996.7000007629395,img/planet12_left.png,12,Community 3,NA,FALSE,j,f,NA,NA,NA,2,6,"6,5,11,9,8,10,15,4,3,14,1,12,2,7,13"
14244,commdev-image-keyboard-response,457,827879,learnblock2,780.5,img/planet13_left.png,13,Community 3,NA,TRUE,f,f,NA,NA,NA,2,6,"6,5,11,9,8,10,15,4,3,14,1,12,2,7,13"
14244,commdev-image-keyboard-response,458,829143,learnblock2,767.5,img/planet2_right.png,2,Community 3,NA,TRUE,j,j,NA,NA,NA,2,6,"6,5,11,9,8,10,15,4,3,14,1,12,2,7,13"
14244,commdev-image-keyboard-response,459,830398,learnblock2,1015.7000007629395,img/planet7_left.png,7,Community 3,NA,TRUE,f,f,NA,NA,NA,2,6,"6,5,11,9,8,10,15,4,3,14,1,12,2,7,13"
14244,commdev-image-keyboard-response,460,831656,learnblock2,1067.3999996185303,img/planet1_left.png,1,Community 3,NA,TRUE,f,f,NA,NA,NA,2,6,"6,5,11,9,8,10,15,4,3,14,1,12,2,7,13"
14244,commdev-image-keyboard-response,461,832909,learnblock2,782.8999996185303,img/planet2_right.png,2,Community 3,NA,TRUE,j,j,NA,NA,NA,2,6,"6,5,11,9,8,10,15,4,3,14,1,12,2,7,13"
14244,commdev-image-keyboard-response,462,834163,learnblock2,799.7999992370605,img/planet1_right.png,1,Community 3,NA,FALSE,f,j,NA,NA,NA,2,6,"6,5,11,9,8,10,15,4,3,14,1,12,2,7,13"
14244,commdev-image-keyboard-response,463,835427,learnblock2,null,img/planet7_left.png,7,Community 3,NA,FALSE,null,f,NA,NA,NA,2,6,"6,5,11,9,8,10,15,4,3,14,1,12,2,7,13"
14244,commdev-image-keyboard-response,464,836685,learnblock2,124.69999885559082,img/planet1_right.png,1,Community 3,NA,FALSE,f,j,NA,NA,NA,2,6,"6,5,11,9,8,10,15,4,3,14,1,12,2,7,13"
14244,commdev-image-keyboard-response,465,837941,learnblock2,null,img/planet2_right.png,2,Community 3,NA,FALSE,null,j,NA,NA,NA,2,6,"6,5,11,9,8,10,15,4,3,14,1,12,2,7,13"
14244,commdev-image-keyboard-response,466,839195,learnblock2,224,img/planet12_right.png,12,Community 3,NA,FALSE,f,j,NA,NA,NA,2,6,"6,5,11,9,8,10,15,4,3,14,1,12,2,7,13"
14244,commdev-image-keyboard-response,467,840454,learnblock2,801.6000003814697,img/planet2_left.png,2,Community 3,NA,TRUE,f,f,NA,NA,NA,2,6,"6,5,11,9,8,10,15,4,3,14,1,12,2,7,13"
14244,commdev-image-keyboard-response,468,841711,learnblock2,1058.1000003814697,img/planet12_left.png,12,Community 3,NA,TRUE,f,f,NA,NA,NA,2,6,"6,5,11,9,8,10,15,4,3,14,1,12,2,7,13"
14244,commdev-image-keyboard-response,469,842964,learnblock2,1101.1000003814697,img/planet7_right.png,7,Community 3,NA,FALSE,f,j,NA,NA,NA,2,6,"6,5,11,9,8,10,15,4,3,14,1,12,2,7,13"
14244,commdev-image-keyboard-response,470,844217,learnblock2,null,img/planet12_right.png,12,Community 3,NA,FALSE,null,j,NA,NA,NA,2,6,"6,5,11,9,8,10,15,4,3,14,1,12,2,7,13"
14244,commdev-image-keyboard-response,471,845472,learnblock2,739.8000011444092,img/planet4_left.png,4,Community 2,NA,TRUE,f,f,NA,NA,NA,2,6,"6,5,11,9,8,10,15,4,3,14,1,12,2,7,13"
14244,commdev-image-keyboard-response,472,846731,learnblock2,1209.5,img/planet12_left.png,12,Community 3,NA,TRUE,f,f,NA,NA,NA,2,6,"6,5,11,9,8,10,15,4,3,14,1,12,2,7,13"
14244,commdev-image-keyboard-response,473,847984,learnblock2,1028.6000003814697,img/planet4_left.png,4,Community 2,NA,TRUE,f,f,NA,NA,NA,2,6,"6,5,11,9,8,10,15,4,3,14,1,12,2,7,13"
14244,commdev-image-keyboard-response,474,849250,learnblock2,null,img/planet14_left.png,14,Community 2,NA,FALSE,null,f,NA,NA,NA,2,6,"6,5,11,9,8,10,15,4,3,14,1,12,2,7,13"
14244,commdev-image-keyboard-response,475,850508,learnblock2,142.89999961853027,img/planet4_right.png,4,Community 2,NA,TRUE,j,j,NA,NA,NA,2,6,"6,5,11,9,8,10,15,4,3,14,1,12,2,7,13"
14244,commdev-image-keyboard-response,476,851768,learnblock2,846.1000003814697,img/planet3_right.png,3,Community 2,NA,TRUE,j,j,NA,NA,NA,2,6,"6,5,11,9,8,10,15,4,3,14,1,12,2,7,13"
14244,commdev-image-keyboard-response,477,853028,learnblock2,579.3999996185303,img/planet10_left.png,10,Community 2,NA,FALSE,j,f,NA,NA,NA,2,6,"6,5,11,9,8,10,15,4,3,14,1,12,2,7,13"
14244,commdev-image-keyboard-response,478,854285,learnblock2,1041.400001525879,img/planet3_left.png,3,Community 2,NA,TRUE,f,f,NA,NA,NA,2,6,"6,5,11,9,8,10,15,4,3,14,1,12,2,7,13"
14244,commdev-image-keyboard-response,479,855541,learnblock2,1040.1999988555908,img/planet14_left.png,14,Community 2,NA,FALSE,j,f,NA,NA,NA,2,6,"6,5,11,9,8,10,15,4,3,14,1,12,2,7,13"
14244,commdev-image-keyboard-response,480,856798,learnblock2,1178.7999992370605,img/planet4_left.png,4,Community 2,NA,TRUE,f,f,NA,NA,NA,2,6,"6,5,11,9,8,10,15,4,3,14,1,12,2,7,13"
14244,commdev-image-keyboard-response,481,858059,learnblock2,1223.8000011444092,img/planet12_left.png,12,Community 3,NA,FALSE,j,f,NA,NA,NA,2,6,"6,5,11,9,8,10,15,4,3,14,1,12,2,7,13"
14244,commdev-image-keyboard-response,482,859314,learnblock2,872.1000003814697,img/planet2_right.png,2,Community 3,NA,FALSE,f,j,NA,NA,NA,2,6,"6,5,11,9,8,10,15,4,3,14,1,12,2,7,13"
14244,commdev-image-keyboard-response,483,860585,learnblock2,null,img/planet7_left.png,7,Community 3,NA,FALSE,null,f,NA,NA,NA,2,6,"6,5,11,9,8,10,15,4,3,14,1,12,2,7,13"
14244,commdev-image-keyboard-response,484,861839,learnblock2,106.69999885559082,img/planet1_left.png,1,Community 3,NA,TRUE,f,f,NA,NA,NA,2,6,"6,5,11,9,8,10,15,4,3,14,1,12,2,7,13"
14244,commdev-image-keyboard-response,485,863102,learnblock2,null,img/planet7_left.png,7,Community 3,NA,FALSE,null,f,NA,NA,NA,2,6,"6,5,11,9,8,10,15,4,3,14,1,12,2,7,13"
14244,commdev-image-keyboard-response,486,864367,learnblock2,null,img/planet1_right.png,1,Community 3,NA,FALSE,null,j,NA,NA,NA,2,6,"6,5,11,9,8,10,15,4,3,14,1,12,2,7,13"
14244,commdev-image-keyboard-response,487,865620,learnblock2,362.8999996185303,img/planet8_left.png,8,Community 1,NA,FALSE,j,f,NA,NA,NA,2,6,"6,5,11,9,8,10,15,4,3,14,1,12,2,7,13"
14244,commdev-image-keyboard-response,488,866881,learnblock2,null,img/planet5_left.png,5,Community 1,NA,FALSE,null,f,NA,NA,NA,2,6,"6,5,11,9,8,10,15,4,3,14,1,12,2,7,13"
14244,commdev-image-keyboard-response,489,868137,learnblock2,927.6000003814697,img/planet11_left.png,11,Community 1,NA,TRUE,f,f,NA,NA,NA,2,6,"6,5,11,9,8,10,15,4,3,14,1,12,2,7,13"
14244,commdev-image-keyboard-response,490,869397,learnblock2,null,img/planet8_right.png,8,Community 1,NA,FALSE,null,j,NA,NA,NA,2,6,"6,5,11,9,8,10,15,4,3,14,1,12,2,7,13"
14244,commdev-image-keyboard-response,491,870651,learnblock2,170.4000015258789,img/planet6_left.png,6,Community 1,NA,FALSE,j,f,NA,NA,NA,2,6,"6,5,11,9,8,10,15,4,3,14,1,12,2,7,13"
14244,commdev-image-keyboard-response,492,871903,learnblock2,919.9000015258789,img/planet9_left.png,9,Community 1,NA,TRUE,f,f,NA,NA,NA,2,6,"6,5,11,9,8,10,15,4,3,14,1,12,2,7,13"
14244,commdev-image-keyboard-response,493,873157,learnblock2,null,img/planet11_right.png,11,Community 1,NA,FALSE,null,j,NA,NA,NA,2,6,"6,5,11,9,8,10,15,4,3,14,1,12,2,7,13"
14244,commdev-image-keyboard-response,494,874414,learnblock2,65.79999923706055,img/planet5_right.png,5,Community 1,NA,TRUE,j,j,NA,NA,NA,2,6,"6,5,11,9,8,10,15,4,3,14,1,12,2,7,13"
14244,commdev-image-keyboard-response,495,875668,learnblock2,null,img/planet8_left.png,8,Community 1,NA,FALSE,null,f,NA,NA,NA,2,6,"6,5,11,9,8,10,15,4,3,14,1,12,2,7,13"
14244,commdev-image-keyboard-response,496,876924,learnblock2,1085.5,img/planet11_right.png,11,Community 1,NA,TRUE,j,j,NA,NA,NA,2,6,"6,5,11,9,8,10,15,4,3,14,1,12,2,7,13"
14244,commdev-image-keyboard-response,497,878177,learnblock2,1102.1000003814697,img/planet9_left.png,9,Community 1,NA,TRUE,f,f,NA,NA,NA,2,6,"6,5,11,9,8,10,15,4,3,14,1,12,2,7,13"
14244,commdev-image-keyboard-response,498,879436,learnblock2,1165.3999996185303,img/planet5_left.png,5,Community 1,NA,TRUE,f,f,NA,NA,NA,2,6,"6,5,11,9,8,10,15,4,3,14,1,12,2,7,13"
14244,commdev-image-keyboard-response,499,880694,learnblock2,1050.5,img/planet9_right.png,9,Community 1,NA,TRUE,j,j,NA,NA,NA,2,6,"6,5,11,9,8,10,15,4,3,14,1,12,2,7,13"
14244,commdev-image-keyboard-response,500,881949,learnblock2,null,img/planet5_left.png,5,Community 1,NA,FALSE,null,f,NA,NA,NA,2,6,"6,5,11,9,8,10,15,4,3,14,1,12,2,7,13"
14244,commdev-image-keyboard-response,501,883212,learnblock2,843.6000003814697,img/planet6_left.png,6,Community 1,NA,TRUE,f,f,NA,NA,NA,2,6,"6,5,11,9,8,10,15,4,3,14,1,12,2,7,13"
14244,commdev-image-keyboard-response,502,884473,learnblock2,944.9000015258789,img/planet5_right.png,5,Community 1,NA,TRUE,j,j,NA,NA,NA,2,6,"6,5,11,9,8,10,15,4,3,14,1,12,2,7,13"
14244,commdev-image-keyboard-response,503,885726,learnblock2,780.3000011444092,img/planet9_left.png,9,Community 1,NA,TRUE,f,f,NA,NA,NA,2,6,"6,5,11,9,8,10,15,4,3,14,1,12,2,7,13"
14244,commdev-image-keyboard-response,504,886987,learnblock2,1130.1999988555908,img/planet11_left.png,11,Community 1,NA,FALSE,j,f,NA,NA,NA,2,6,"6,5,11,9,8,10,15,4,3,14,1,12,2,7,13"
14244,commdev-image-keyboard-response,505,888247,learnblock2,null,img/planet5_left.png,5,Community 1,NA,FALSE,null,f,NA,NA,NA,2,6,"6,5,11,9,8,10,15,4,3,14,1,12,2,7,13"
14244,commdev-image-keyboard-response,506,889506,learnblock2,17.100000381469727,img/planet9_left.png,9,Community 1,NA,TRUE,f,f,NA,NA,NA,2,6,"6,5,11,9,8,10,15,4,3,14,1,12,2,7,13"
14244,commdev-image-keyboard-response,507,890763,learnblock2,1203.6999988555908,img/planet10_right.png,10,Community 2,NA,TRUE,j,j,NA,NA,NA,2,6,"6,5,11,9,8,10,15,4,3,14,1,12,2,7,13"
14244,commdev-image-keyboard-response,508,892030,learnblock2,1086.3000011444092,img/planet3_right.png,3,Community 2,NA,FALSE,f,j,NA,NA,NA,2,6,"6,5,11,9,8,10,15,4,3,14,1,12,2,7,13"
14244,commdev-image-keyboard-response,509,893286,learnblock2,990.7000007629395,img/planet10_left.png,10,Community 2,NA,TRUE,f,f,NA,NA,NA,2,6,"6,5,11,9,8,10,15,4,3,14,1,12,2,7,13"
14244,commdev-image-keyboard-response,510,894540,learnblock2,829,img/planet3_right.png,3,Community 2,NA,TRUE,j,j,NA,NA,NA,2,6,"6,5,11,9,8,10,15,4,3,14,1,12,2,7,13"
14244,commdev-image-keyboard-response,511,895798,learnblock2,539.5,img/planet10_right.png,10,Community 2,NA,TRUE,j,j,NA,NA,NA,2,6,"6,5,11,9,8,10,15,4,3,14,1,12,2,7,13"
14244,commdev-image-keyboard-response,512,897059,learnblock2,508.3000011444092,img/planet15_right.png,15,Community 2,NA,FALSE,f,j,NA,NA,NA,2,6,"6,5,11,9,8,10,15,4,3,14,1,12,2,7,13"
14244,commdev-image-keyboard-response,513,898321,learnblock2,621.3000011444092,img/planet10_right.png,10,Community 2,NA,TRUE,j,j,NA,NA,NA,2,6,"6,5,11,9,8,10,15,4,3,14,1,12,2,7,13"
14244,commdev-image-keyboard-response,514,899573,learnblock2,682.3999996185303,img/planet9_right.png,9,Community 1,NA,TRUE,j,j,NA,NA,NA,2,6,"6,5,11,9,8,10,15,4,3,14,1,12,2,7,13"
14244,commdev-image-keyboard-response,515,900839,learnblock2,931.5,img/planet5_left.png,5,Community 1,NA,TRUE,f,f,NA,NA,NA,2,6,"6,5,11,9,8,10,15,4,3,14,1,12,2,7,13"
14244,commdev-image-keyboard-response,516,902098,learnblock2,1017.7000007629395,img/planet11_right.png,11,Community 1,NA,TRUE,j,j,NA,NA,NA,2,6,"6,5,11,9,8,10,15,4,3,14,1,12,2,7,13"
14244,commdev-image-keyboard-response,517,903355,learnblock2,610.7999992370605,img/planet5_right.png,5,Community 1,NA,TRUE,j,j,NA,NA,NA,2,6,"6,5,11,9,8,10,15,4,3,14,1,12,2,7,13"
14244,commdev-image-keyboard-response,518,904609,learnblock2,872,img/planet11_left.png,11,Community 1,NA,TRUE,f,f,NA,NA,NA,2,6,"6,5,11,9,8,10,15,4,3,14,1,12,2,7,13"
14244,commdev-image-keyboard-response,519,905868,learnblock2,768.8999996185303,img/planet5_right.png,5,Community 1,NA,TRUE,j,j,NA,NA,NA,2,6,"6,5,11,9,8,10,15,4,3,14,1,12,2,7,13"
14244,commdev-image-keyboard-response,520,907127,learnblock2,862.5999984741211,img/planet9_right.png,9,Community 1,NA,TRUE,j,j,NA,NA,NA,2,6,"6,5,11,9,8,10,15,4,3,14,1,12,2,7,13"
14244,commdev-image-keyboard-response,521,908380,learnblock2,1226.2000007629395,img/planet6_left.png,6,Community 1,NA,TRUE,f,f,NA,NA,NA,2,6,"6,5,11,9,8,10,15,4,3,14,1,12,2,7,13"
14244,commdev-image-keyboard-response,522,909634,learnblock2,1097.6000003814697,img/planet5_left.png,5,Community 1,NA,TRUE,f,f,NA,NA,NA,2,6,"6,5,11,9,8,10,15,4,3,14,1,12,2,7,13"
14244,commdev-image-keyboard-response,523,910894,learnblock2,932.2999992370605,img/planet8_left.png,8,Community 1,NA,TRUE,f,f,NA,NA,NA,2,6,"6,5,11,9,8,10,15,4,3,14,1,12,2,7,13"
14244,commdev-image-keyboard-response,524,912151,learnblock2,1055.400001525879,img/planet6_right.png,6,Community 1,NA,TRUE,j,j,NA,NA,NA,2,6,"6,5,11,9,8,10,15,4,3,14,1,12,2,7,13"
14244,commdev-image-keyboard-response,525,913406,learnblock2,985.5999984741211,img/planet8_right.png,8,Community 1,NA,TRUE,j,j,NA,NA,NA,2,6,"6,5,11,9,8,10,15,4,3,14,1,12,2,7,13"
14244,commdev-image-keyboard-response,526,914671,learnblock2,887.3999996185303,img/planet1_left.png,1,Community 3,NA,TRUE,f,f,NA,NA,NA,2,6,"6,5,11,9,8,10,15,4,3,14,1,12,2,7,13"
14244,commdev-image-keyboard-response,527,915923,learnblock2,1237.3999996185303,img/planet7_right.png,7,Community 3,NA,TRUE,j,j,NA,NA,NA,2,6,"6,5,11,9,8,10,15,4,3,14,1,12,2,7,13"
14244,commdev-image-keyboard-response,528,917181,learnblock2,887.2999992370605,img/planet13_left.png,13,Community 3,NA,TRUE,f,f,NA,NA,NA,2,6,"6,5,11,9,8,10,15,4,3,14,1,12,2,7,13"
14244,commdev-image-keyboard-response,529,918437,learnblock2,1087.6999988555908,img/planet1_right.png,1,Community 3,NA,TRUE,j,j,NA,NA,NA,2,6,"6,5,11,9,8,10,15,4,3,14,1,12,2,7,13"
14244,commdev-image-keyboard-response,530,919689,learnblock2,1058.900001525879,img/planet2_left.png,2,Community 3,NA,TRUE,f,f,NA,NA,NA,2,6,"6,5,11,9,8,10,15,4,3,14,1,12,2,7,13"
14244,commdev-image-keyboard-response,531,920942,learnblock2,786.5,img/planet13_left.png,13,Community 3,NA,TRUE,f,f,NA,NA,NA,2,6,"6,5,11,9,8,10,15,4,3,14,1,12,2,7,13"
14244,commdev-image-keyboard-response,532,922197,learnblock2,642.8999996185303,img/planet1_left.png,1,Community 3,NA,TRUE,f,f,NA,NA,NA,2,6,"6,5,11,9,8,10,15,4,3,14,1,12,2,7,13"
14244,commdev-image-keyboard-response,533,923451,learnblock2,638.7999992370605,img/planet2_right.png,2,Community 3,NA,TRUE,j,j,NA,NA,NA,2,6,"6,5,11,9,8,10,15,4,3,14,1,12,2,7,13"
14244,commdev-image-keyboard-response,534,924706,learnblock2,902.1999988555908,img/planet7_left.png,7,Community 3,NA,FALSE,j,f,NA,NA,NA,2,6,"6,5,11,9,8,10,15,4,3,14,1,12,2,7,13"
14244,commdev-image-keyboard-response,535,925968,learnblock2,null,img/planet12_left.png,12,Community 3,NA,FALSE,null,f,NA,NA,NA,2,6,"6,5,11,9,8,10,15,4,3,14,1,12,2,7,13"
14244,commdev-image-keyboard-response,536,927226,learnblock2,56,img/planet13_left.png,13,Community 3,NA,TRUE,f,f,NA,NA,NA,2,6,"6,5,11,9,8,10,15,4,3,14,1,12,2,7,13"
14244,commdev-image-keyboard-response,537,928483,learnblock2,1228.099998474121,img/planet12_right.png,12,Community 3,NA,FALSE,f,j,NA,NA,NA,2,6,"6,5,11,9,8,10,15,4,3,14,1,12,2,7,13"
14244,commdev-image-keyboard-response,538,929740,learnblock2,1098.099998474121,img/planet7_right.png,7,Community 3,NA,TRUE,j,j,NA,NA,NA,2,6,"6,5,11,9,8,10,15,4,3,14,1,12,2,7,13"
14244,commdev-image-keyboard-response,539,930996,learnblock2,null,img/planet2_right.png,2,Community 3,NA,FALSE,null,j,NA,NA,NA,2,6,"6,5,11,9,8,10,15,4,3,14,1,12,2,7,13"
14244,commdev-image-keyboard-response,540,932256,learnblock2,14.600000381469727,img/planet12_left.png,12,Community 3,NA,TRUE,f,f,NA,NA,NA,2,6,"6,5,11,9,8,10,15,4,3,14,1,12,2,7,13"
14244,commdev-image-keyboard-response,541,933508,learnblock2,470.8999996185303,img/planet13_left.png,13,Community 3,NA,TRUE,f,f,NA,NA,NA,2,6,"6,5,11,9,8,10,15,4,3,14,1,12,2,7,13"
14244,commdev-image-keyboard-response,542,934762,learnblock2,855.2000007629395,img/planet12_left.png,12,Community 3,NA,TRUE,f,f,NA,NA,NA,2,6,"6,5,11,9,8,10,15,4,3,14,1,12,2,7,13"
14244,commdev-image-keyboard-response,543,936026,learnblock2,856.3999996185303,img/planet13_right.png,13,Community 3,NA,TRUE,j,j,NA,NA,NA,2,6,"6,5,11,9,8,10,15,4,3,14,1,12,2,7,13"
14244,commdev-image-keyboard-response,544,937284,learnblock2,1006.1000003814697,img/planet12_left.png,12,Community 3,NA,TRUE,f,f,NA,NA,NA,2,6,"6,5,11,9,8,10,15,4,3,14,1,12,2,7,13"
14244,commdev-image-keyboard-response,545,938551,learnblock2,null,img/planet7_right.png,7,Community 3,NA,FALSE,null,j,NA,NA,NA,2,6,"6,5,11,9,8,10,15,4,3,14,1,12,2,7,13"
14244,commdev-image-keyboard-response,546,939809,learnblock2,294.3999996185303,img/planet2_left.png,2,Community 3,NA,FALSE,j,f,NA,NA,NA,2,6,"6,5,11,9,8,10,15,4,3,14,1,12,2,7,13"
14244,commdev-image-keyboard-response,547,941065,learnblock2,1194,img/planet7_left.png,7,Community 3,NA,TRUE,f,f,NA,NA,NA,2,6,"6,5,11,9,8,10,15,4,3,14,1,12,2,7,13"
14244,commdev-image-keyboard-response,548,942317,learnblock2,null,img/planet12_left.png,12,Community 3,NA,FALSE,null,f,NA,NA,NA,2,6,"6,5,11,9,8,10,15,4,3,14,1,12,2,7,13"
14244,commdev-image-keyboard-response,549,943578,learnblock2,14,img/planet4_right.png,4,Community 2,NA,FALSE,f,j,NA,NA,NA,2,6,"6,5,11,9,8,10,15,4,3,14,1,12,2,7,13"
14244,commdev-image-keyboard-response,550,944830,learnblock2,940.8999996185303,img/planet3_left.png,3,Community 2,NA,FALSE,j,f,NA,NA,NA,2,6,"6,5,11,9,8,10,15,4,3,14,1,12,2,7,13"
14244,commdev-image-keyboard-response,551,946085,learnblock2,941.5,img/planet4_left.png,4,Community 2,NA,FALSE,j,f,NA,NA,NA,2,6,"6,5,11,9,8,10,15,4,3,14,1,12,2,7,13"
14244,commdev-image-keyboard-response,552,947345,learnblock2,null,img/planet14_left.png,14,Community 2,NA,FALSE,null,f,NA,NA,NA,2,6,"6,5,11,9,8,10,15,4,3,14,1,12,2,7,13"
14244,commdev-image-keyboard-response,553,948605,learnblock2,90.0999984741211,img/planet4_left.png,4,Community 2,NA,TRUE,f,f,NA,NA,NA,2,6,"6,5,11,9,8,10,15,4,3,14,1,12,2,7,13"
14244,commdev-image-keyboard-response,554,949863,learnblock2,1203.6000003814697,img/planet14_left.png,14,Community 2,NA,FALSE,j,f,NA,NA,NA,2,6,"6,5,11,9,8,10,15,4,3,14,1,12,2,7,13"
14244,commdev-image-keyboard-response,555,951118,learnblock2,1048.6999988555908,img/planet3_right.png,3,Community 2,NA,FALSE,f,j,NA,NA,NA,2,6,"6,5,11,9,8,10,15,4,3,14,1,12,2,7,13"
14244,commdev-image-keyboard-response,556,952376,learnblock2,null,img/planet14_left.png,14,Community 2,NA,FALSE,null,f,NA,NA,NA,2,6,"6,5,11,9,8,10,15,4,3,14,1,12,2,7,13"
14244,commdev-image-keyboard-response,557,953636,learnblock2,702.1000003814697,img/planet10_left.png,10,Community 2,NA,TRUE,f,f,NA,NA,NA,2,6,"6,5,11,9,8,10,15,4,3,14,1,12,2,7,13"
14244,commdev-image-keyboard-response,558,954891,learnblock2,1189.1000003814697,img/planet3_left.png,3,Community 2,NA,FALSE,j,f,NA,NA,NA,2,6,"6,5,11,9,8,10,15,4,3,14,1,12,2,7,13"
14244,commdev-image-keyboard-response,559,956147,learnblock2,null,img/planet15_left.png,15,Community 2,NA,FALSE,null,f,NA,NA,NA,2,6,"6,5,11,9,8,10,15,4,3,14,1,12,2,7,13"
14244,commdev-image-keyboard-response,560,957405,learnblock2,1097.7999992370605,img/planet3_left.png,3,Community 2,NA,TRUE,f,f,NA,NA,NA,2,6,"6,5,11,9,8,10,15,4,3,14,1,12,2,7,13"
14244,commdev-image-keyboard-response,561,958664,learnblock2,740.2999992370605,img/planet15_right.png,15,Community 2,NA,TRUE,j,j,NA,NA,NA,2,6,"6,5,11,9,8,10,15,4,3,14,1,12,2,7,13"
14244,commdev-image-keyboard-response,562,959916,learnblock2,1031.2999992370605,img/planet10_right.png,10,Community 2,NA,FALSE,f,j,NA,NA,NA,2,6,"6,5,11,9,8,10,15,4,3,14,1,12,2,7,13"
14244,commdev-image-keyboard-response,563,961179,learnblock2,null,img/planet14_right.png,14,Community 2,NA,FALSE,null,j,NA,NA,NA,2,6,"6,5,11,9,8,10,15,4,3,14,1,12,2,7,13"
14244,commdev-image-keyboard-response,564,962432,learnblock2,11.799999237060547,img/planet4_right.png,4,Community 2,NA,TRUE,j,j,NA,NA,NA,2,6,"6,5,11,9,8,10,15,4,3,14,1,12,2,7,13"
14244,commdev-image-keyboard-response,565,963686,learnblock2,1241.5,img/planet14_left.png,14,Community 2,NA,TRUE,f,f,NA,NA,NA,2,6,"6,5,11,9,8,10,15,4,3,14,1,12,2,7,13"
14244,commdev-image-keyboard-response,566,964941,learnblock2,1062.7999992370605,img/planet4_left.png,4,Community 2,NA,FALSE,j,f,NA,NA,NA,2,6,"6,5,11,9,8,10,15,4,3,14,1,12,2,7,13"
14244,commdev-image-keyboard-response,567,966204,learnblock2,null,img/planet14_left.png,14,Community 2,NA,FALSE,null,f,NA,NA,NA,2,6,"6,5,11,9,8,10,15,4,3,14,1,12,2,7,13"
14244,commdev-image-keyboard-response,568,967460,learnblock2,1.7999992370605469,img/planet4_left.png,4,Community 2,NA,TRUE,f,f,NA,NA,NA,2,6,"6,5,11,9,8,10,15,4,3,14,1,12,2,7,13"
14244,commdev-image-keyboard-response,569,968717,learnblock2,1103.1000003814697,img/planet15_left.png,15,Community 2,NA,TRUE,f,f,NA,NA,NA,2,6,"6,5,11,9,8,10,15,4,3,14,1,12,2,7,13"
14244,commdev-image-keyboard-response,570,969975,learnblock2,1032.3999996185303,img/planet10_left.png,10,Community 2,NA,TRUE,f,f,NA,NA,NA,2,6,"6,5,11,9,8,10,15,4,3,14,1,12,2,7,13"
14244,commdev-image-keyboard-response,571,971228,learnblock2,null,img/planet14_left.png,14,Community 2,NA,FALSE,null,f,NA,NA,NA,2,6,"6,5,11,9,8,10,15,4,3,14,1,12,2,7,13"
14244,commdev-image-keyboard-response,572,972485,learnblock2,125.30000114440918,img/planet3_right.png,3,Community 2,NA,TRUE,j,j,NA,NA,NA,2,6,"6,5,11,9,8,10,15,4,3,14,1,12,2,7,13"
14244,commdev-image-keyboard-response,573,973741,learnblock2,714.2000007629395,img/planet10_left.png,10,Community 2,NA,TRUE,f,f,NA,NA,NA,2,6,"6,5,11,9,8,10,15,4,3,14,1,12,2,7,13"
14244,commdev-image-keyboard-response,574,974998,learnblock2,null,img/planet9_left.png,9,Community 1,NA,FALSE,null,f,NA,NA,NA,2,6,"6,5,11,9,8,10,15,4,3,14,1,12,2,7,13"
14244,commdev-image-keyboard-response,575,976255,learnblock2,188.20000076293945,img/planet10_left.png,10,Community 2,NA,TRUE,f,f,NA,NA,NA,2,6,"6,5,11,9,8,10,15,4,3,14,1,12,2,7,13"
14244,commdev-image-keyboard-response,576,977509,learnblock2,1102.8000011444092,img/planet15_left.png,15,Community 2,NA,TRUE,f,f,NA,NA,NA,2,6,"6,5,11,9,8,10,15,4,3,14,1,12,2,7,13"
14244,commdev-image-keyboard-response,577,978766,learnblock2,847.5,img/planet4_left.png,4,Community 2,NA,TRUE,f,f,NA,NA,NA,2,6,"6,5,11,9,8,10,15,4,3,14,1,12,2,7,13"
14244,commdev-image-keyboard-response,578,980030,learnblock2,818.2000007629395,img/planet14_right.png,14,Community 2,NA,TRUE,j,j,NA,NA,NA,2,6,"6,5,11,9,8,10,15,4,3,14,1,12,2,7,13"
14244,commdev-image-keyboard-response,579,981295,learnblock2,668,img/planet15_left.png,15,Community 2,NA,TRUE,f,f,NA,NA,NA,2,6,"6,5,11,9,8,10,15,4,3,14,1,12,2,7,13"
14244,commdev-image-keyboard-response,580,982551,learnblock2,929.8999996185303,img/planet10_left.png,10,Community 2,NA,TRUE,f,f,NA,NA,NA,2,6,"6,5,11,9,8,10,15,4,3,14,1,12,2,7,13"
14244,commdev-image-keyboard-response,581,983817,learnblock2,708.6000003814697,img/planet15_right.png,15,Community 2,NA,TRUE,j,j,NA,NA,NA,2,6,"6,5,11,9,8,10,15,4,3,14,1,12,2,7,13"
14244,commdev-image-keyboard-response,582,985072,learnblock2,1090.3999996185303,img/planet10_right.png,10,Community 2,NA,FALSE,f,j,NA,NA,NA,2,6,"6,5,11,9,8,10,15,4,3,14,1,12,2,7,13"
14244,commdev-image-keyboard-response,583,986326,learnblock2,938,img/planet9_left.png,9,Community 1,NA,TRUE,f,f,NA,NA,NA,2,6,"6,5,11,9,8,10,15,4,3,14,1,12,2,7,13"
14244,commdev-image-keyboard-response,584,987591,learnblock2,735.5,img/planet10_left.png,10,Community 2,NA,FALSE,j,f,NA,NA,NA,2,6,"6,5,11,9,8,10,15,4,3,14,1,12,2,7,13"
14244,commdev-image-keyboard-response,585,988847,learnblock2,898.2000007629395,img/planet9_left.png,9,Community 1,NA,TRUE,f,f,NA,NA,NA,2,6,"6,5,11,9,8,10,15,4,3,14,1,12,2,7,13"
14244,commdev-image-keyboard-response,586,990115,learnblock2,883,img/planet10_right.png,10,Community 2,NA,TRUE,j,j,NA,NA,NA,2,6,"6,5,11,9,8,10,15,4,3,14,1,12,2,7,13"
14244,commdev-image-keyboard-response,587,991372,learnblock2,947.6000003814697,img/planet3_right.png,3,Community 2,NA,TRUE,j,j,NA,NA,NA,2,6,"6,5,11,9,8,10,15,4,3,14,1,12,2,7,13"
