subject_id,trial_type,trial_index,time_elapsed,block,rt,stimulus,planet,community,response,correct,key_press,learning_correct_response,parse,init_locations,final_locations,browser_interactions,num_comp,planet_map
14481,commdev-instructions,7,31815,NA,1575.8999999761581,"<p>In this game, you are a scientist on board a space shuttle. </p><p> On each mission, you will visit planets all across the universe.</p><img src=""img/controlroom.jpg"" width=300vw>",NA,NA,NA,NA,NA,NA,NA,NA,NA,2,6,"6,3,15,4,10,14,9,13,12,5,11,8,7,1,2"
14481,commdev-instructions,8,37198,NA,3302.5,"<p>Here are a few planets you might see:</p><img src=""img/practice1.png"" width=200vw><img src=""img/practice2.png"" width=200vw><img src=""img/practice3.png"" width=200vw>",NA,NA,NA,NA,NA,NA,NA,NA,NA,2,6,"6,3,15,4,10,14,9,13,12,5,11,8,7,1,2"
14481,commdev-instructions,9,45665,NA,1065.699999988079,"<p>Your job as a scientist is to record which direction the winds are moving on each planet.</p><p>There are two types of wind directions:</p><img src=""img/practice1_left.png"" width=200vw><img src=""img/practice1_right.png"" width=200vw>",NA,NA,NA,NA,NA,NA,NA,NA,NA,2,6,"6,3,15,4,10,14,9,13,12,5,11,8,7,1,2"
14481,commdev-instructions,10,52018,NA,1467.9000000357628,"<p>If the winds are moving this way, press the letter <strong>F</strong> on the keyboard as fast as you can.</p><img src=""img/leftwind.png"" width=250vw>",NA,NA,NA,NA,NA,NA,NA,NA,NA,2,6,"6,3,15,4,10,14,9,13,12,5,11,8,7,1,2"
14481,commdev-instructions,11,57184,NA,672.7999999523163,"<p>If the winds are moving this way, press the letter <strong>J</strong> on the keyboard as fast as you can.</p><img src=""img/rightwind.png"" width=350vw>",NA,NA,NA,NA,NA,NA,NA,NA,NA,2,6,"6,3,15,4,10,14,9,13,12,5,11,8,7,1,2"
14481,commdev-instructions,12,63068,NA,1453.2999999523163,<p>You will have 1 second to respond. Try to respond before the time runs out!,NA,NA,NA,NA,NA,NA,NA,NA,NA,2,6,"6,3,15,4,10,14,9,13,12,5,11,8,7,1,2"
14481,commdev-instructions,13,69269,NA,769.5,<p>The planets you will visit will look different from each other.</p><p>You should respond <strong>only</strong> based on wind direction.,NA,NA,NA,NA,NA,NA,NA,NA,NA,2,6,"6,3,15,4,10,14,9,13,12,5,11,8,7,1,2"
14481,commdev-instructions,14,75219,NA,781.1999999880791,"<p> Ready to start the practice round? </p><p> Remember, press <strong>F</strong> or <strong>J</strong> depending on the wind direction.<br><img src=""img/categorize_planet_example.png""",NA,NA,NA,NA,NA,NA,NA,NA,NA,2,6,"6,3,15,4,10,14,9,13,12,5,11,8,7,1,2"
14481,commdev-instructions,26,138793,NA,1783.800000011921,"<p>Great, now try a short practice mission. </p><p> This time, you will have 1 second to respond and you won't know whether you pressed the right or wrong key for each planet.</p>",NA,NA,NA,NA,NA,NA,NA,NA,NA,2,6,"6,3,15,4,10,14,9,13,12,5,11,8,7,1,2"
14481,commdev-image-keyboard-response,27,140159,practice,626.8000000119209,img/practice3_right.png,NA,Number not found in mappings,NA,TRUE,j,j,NA,NA,NA,2,6,"6,3,15,4,10,14,9,13,12,5,11,8,7,1,2"
14481,commdev-image-keyboard-response,28,141415,practice,809.3000000119209,img/practice4_left.png,NA,Number not found in mappings,NA,FALSE,j,f,NA,NA,NA,2,6,"6,3,15,4,10,14,9,13,12,5,11,8,7,1,2"
14481,commdev-image-keyboard-response,29,142669,practice,687.8000000119209,img/practice3_left.png,NA,Number not found in mappings,NA,TRUE,f,f,NA,NA,NA,2,6,"6,3,15,4,10,14,9,13,12,5,11,8,7,1,2"
14481,commdev-image-keyboard-response,30,143923,practice,82.40000003576279,img/practice2_left.png,NA,Number not found in mappings,NA,FALSE,j,f,NA,NA,NA,2,6,"6,3,15,4,10,14,9,13,12,5,11,8,7,1,2"
14481,commdev-image-keyboard-response,31,145180,practice,2.600000023841858,img/practice3_left.png,NA,Number not found in mappings,NA,FALSE,j,f,NA,NA,NA,2,6,"6,3,15,4,10,14,9,13,12,5,11,8,7,1,2"
14481,commdev-image-keyboard-response,32,146433,practice,717.1000000238419,img/practice1_left.png,NA,Number not found in mappings,NA,TRUE,f,f,NA,NA,NA,2,6,"6,3,15,4,10,14,9,13,12,5,11,8,7,1,2"
14481,commdev-image-keyboard-response,33,147686,practice,639.4000000357628,img/practice2_right.png,NA,Number not found in mappings,NA,TRUE,j,j,NA,NA,NA,2,6,"6,3,15,4,10,14,9,13,12,5,11,8,7,1,2"
14481,commdev-image-keyboard-response,34,148941,practice,778.2000000476837,img/practice3_right.png,NA,Number not found in mappings,NA,TRUE,j,j,NA,NA,NA,2,6,"6,3,15,4,10,14,9,13,12,5,11,8,7,1,2"
14481,commdev-instructions,35,159811,NA,1317.7999999523163,"<p>Great job with the practice round.</p><p>During real missions, you won't know whether you pressed the right or wrong key for each planet.</p><p>But between missions, we will tell you how you did overall.</p>",NA,NA,NA,NA,NA,NA,NA,NA,NA,2,6,"6,3,15,4,10,14,9,13,12,5,11,8,7,1,2"
14481,commdev-instructions,36,169912,NA,1864.300000011921,<p>Try your best! You will be paid a bonus based on how many correct responses you make!</p><p>Responses that are too slow will not count toward your bonus.</p>,NA,NA,NA,NA,NA,NA,NA,NA,NA,2,6,"6,3,15,4,10,14,9,13,12,5,11,8,7,1,2"
14481,commdev-instructions,37,176962,NA,845.3000000119209,"<p>You are almost ready to start the real game.</p><p> First, we are going to ask you some questions about how the game works.</p>",NA,NA,NA,NA,NA,NA,NA,NA,NA,2,6,"6,3,15,4,10,14,9,13,12,5,11,8,7,1,2"
14481,commdev-instructions,46,258322,NA,4870.800000011921,"<p> Nice work! It is now time to start the real game.<p></p>You will go on two missions to record wind directions of different planets.<p></p>Each one will take about 5 minutes. You will get to take a break between missions.<p><p> Remember, press <strong>F</strong> or <strong>J</strong> depending on the wind direction. Good luck!<br><img src=""img/categorize_planet_example.png""",NA,NA,NA,NA,NA,NA,NA,NA,NA,2,6,"6,3,15,4,10,14,9,13,12,5,11,8,7,1,2"
14481,commdev-image-keyboard-response,48,262625,learnblock1,883.0999999642372,img/planet13_left.png,13,Community 2,NA,TRUE,f,f,NA,NA,NA,2,6,"6,3,15,4,10,14,9,13,12,5,11,8,7,1,2"
14481,commdev-image-keyboard-response,49,263881,learnblock1,178.10000002384186,img/planet12_left.png,12,Community 2,NA,FALSE,j,f,NA,NA,NA,2,6,"6,3,15,4,10,14,9,13,12,5,11,8,7,1,2"
14481,commdev-image-keyboard-response,50,265138,learnblock1,447.9000000357628,img/planet5_left.png,5,Community 2,NA,TRUE,f,f,NA,NA,NA,2,6,"6,3,15,4,10,14,9,13,12,5,11,8,7,1,2"
14481,commdev-image-keyboard-response,51,266392,learnblock1,1217.699999988079,img/planet9_right.png,9,Community 2,NA,TRUE,j,j,NA,NA,NA,2,6,"6,3,15,4,10,14,9,13,12,5,11,8,7,1,2"
14481,commdev-image-keyboard-response,52,267644,learnblock1,686.5,img/planet12_right.png,12,Community 2,NA,TRUE,j,j,NA,NA,NA,2,6,"6,3,15,4,10,14,9,13,12,5,11,8,7,1,2"
14481,commdev-image-keyboard-response,53,268898,learnblock1,575.8999999761581,img/planet5_right.png,5,Community 2,NA,TRUE,j,j,NA,NA,NA,2,6,"6,3,15,4,10,14,9,13,12,5,11,8,7,1,2"
14481,commdev-image-keyboard-response,54,270154,learnblock1,731.5,img/planet12_right.png,12,Community 2,NA,TRUE,j,j,NA,NA,NA,2,6,"6,3,15,4,10,14,9,13,12,5,11,8,7,1,2"
14481,commdev-image-keyboard-response,55,271410,learnblock1,624.9000000357628,img/planet5_left.png,5,Community 2,NA,FALSE,j,f,NA,NA,NA,2,6,"6,3,15,4,10,14,9,13,12,5,11,8,7,1,2"
14481,commdev-image-keyboard-response,56,272666,learnblock1,993.6000000238419,img/planet14_left.png,14,Community 2,NA,TRUE,f,f,NA,NA,NA,2,6,"6,3,15,4,10,14,9,13,12,5,11,8,7,1,2"
14481,commdev-image-keyboard-response,57,273918,learnblock1,1123.199999988079,img/planet12_right.png,12,Community 2,NA,TRUE,j,j,NA,NA,NA,2,6,"6,3,15,4,10,14,9,13,12,5,11,8,7,1,2"
14481,commdev-image-keyboard-response,58,275175,learnblock1,680.5,img/planet5_left.png,5,Community 2,NA,TRUE,f,f,NA,NA,NA,2,6,"6,3,15,4,10,14,9,13,12,5,11,8,7,1,2"
14481,commdev-image-keyboard-response,59,276429,learnblock1,624.8000000119209,img/planet13_left.png,13,Community 2,NA,TRUE,f,f,NA,NA,NA,2,6,"6,3,15,4,10,14,9,13,12,5,11,8,7,1,2"
14481,commdev-image-keyboard-response,60,277686,learnblock1,825.1999999880791,img/planet8_left.png,8,Community 3,NA,TRUE,f,f,NA,NA,NA,2,6,"6,3,15,4,10,14,9,13,12,5,11,8,7,1,2"
14481,commdev-image-keyboard-response,61,278942,learnblock1,655.0999999642372,img/planet1_left.png,1,Community 3,NA,TRUE,f,f,NA,NA,NA,2,6,"6,3,15,4,10,14,9,13,12,5,11,8,7,1,2"
14481,commdev-image-keyboard-response,62,280198,learnblock1,574.8000000119209,img/planet8_right.png,8,Community 3,NA,TRUE,j,j,NA,NA,NA,2,6,"6,3,15,4,10,14,9,13,12,5,11,8,7,1,2"
14481,commdev-image-keyboard-response,63,281454,learnblock1,481.5,img/planet1_right.png,1,Community 3,NA,TRUE,j,j,NA,NA,NA,2,6,"6,3,15,4,10,14,9,13,12,5,11,8,7,1,2"
14481,commdev-image-keyboard-response,64,282708,learnblock1,477.69999998807907,img/planet7_left.png,7,Community 3,NA,FALSE,j,f,NA,NA,NA,2,6,"6,3,15,4,10,14,9,13,12,5,11,8,7,1,2"
14481,commdev-image-keyboard-response,65,283965,learnblock1,633.1999999880791,img/planet1_right.png,1,Community 3,NA,TRUE,j,j,NA,NA,NA,2,6,"6,3,15,4,10,14,9,13,12,5,11,8,7,1,2"
14481,commdev-image-keyboard-response,66,285217,learnblock1,517.1999999880791,img/planet2_right.png,2,Community 3,NA,TRUE,j,j,NA,NA,NA,2,6,"6,3,15,4,10,14,9,13,12,5,11,8,7,1,2"
14481,commdev-image-keyboard-response,67,286469,learnblock1,480.30000001192093,img/planet11_left.png,11,Community 3,NA,FALSE,j,f,NA,NA,NA,2,6,"6,3,15,4,10,14,9,13,12,5,11,8,7,1,2"
14481,commdev-image-keyboard-response,68,287722,learnblock1,1157.6000000238419,img/planet1_left.png,1,Community 3,NA,TRUE,f,f,NA,NA,NA,2,6,"6,3,15,4,10,14,9,13,12,5,11,8,7,1,2"
14481,commdev-image-keyboard-response,69,288978,learnblock1,723.6999999880791,img/planet2_left.png,2,Community 3,NA,TRUE,f,f,NA,NA,NA,2,6,"6,3,15,4,10,14,9,13,12,5,11,8,7,1,2"
14481,commdev-image-keyboard-response,70,290231,learnblock1,548.3000000119209,img/planet8_left.png,8,Community 3,NA,TRUE,f,f,NA,NA,NA,2,6,"6,3,15,4,10,14,9,13,12,5,11,8,7,1,2"
14481,commdev-image-keyboard-response,71,291488,learnblock1,364.19999998807907,img/planet2_right.png,2,Community 3,NA,FALSE,f,j,NA,NA,NA,2,6,"6,3,15,4,10,14,9,13,12,5,11,8,7,1,2"
14481,commdev-image-keyboard-response,72,292746,learnblock1,665.8000000119209,img/planet1_left.png,1,Community 3,NA,TRUE,f,f,NA,NA,NA,2,6,"6,3,15,4,10,14,9,13,12,5,11,8,7,1,2"
14481,commdev-image-keyboard-response,73,293998,learnblock1,662.1000000238419,img/planet8_left.png,8,Community 3,NA,TRUE,f,f,NA,NA,NA,2,6,"6,3,15,4,10,14,9,13,12,5,11,8,7,1,2"
14481,commdev-image-keyboard-response,74,295255,learnblock1,695.1000000238419,img/planet1_right.png,1,Community 3,NA,TRUE,j,j,NA,NA,NA,2,6,"6,3,15,4,10,14,9,13,12,5,11,8,7,1,2"
14481,commdev-image-keyboard-response,75,296509,learnblock1,692.6999999880791,img/planet7_right.png,7,Community 3,NA,TRUE,j,j,NA,NA,NA,2,6,"6,3,15,4,10,14,9,13,12,5,11,8,7,1,2"
14481,commdev-image-keyboard-response,76,297766,learnblock1,611.1000000238419,img/planet2_right.png,2,Community 3,NA,TRUE,j,j,NA,NA,NA,2,6,"6,3,15,4,10,14,9,13,12,5,11,8,7,1,2"
14481,commdev-image-keyboard-response,77,299020,learnblock1,657.5999999642372,img/planet8_left.png,8,Community 3,NA,TRUE,f,f,NA,NA,NA,2,6,"6,3,15,4,10,14,9,13,12,5,11,8,7,1,2"
14481,commdev-image-keyboard-response,78,300275,learnblock1,546.4000000357628,img/planet2_right.png,2,Community 3,NA,TRUE,j,j,NA,NA,NA,2,6,"6,3,15,4,10,14,9,13,12,5,11,8,7,1,2"
14481,commdev-image-keyboard-response,79,301530,learnblock1,476.0999999642372,img/planet1_left.png,1,Community 3,NA,TRUE,f,f,NA,NA,NA,2,6,"6,3,15,4,10,14,9,13,12,5,11,8,7,1,2"
14481,commdev-image-keyboard-response,80,302786,learnblock1,660.3000000119209,img/planet7_left.png,7,Community 3,NA,TRUE,f,f,NA,NA,NA,2,6,"6,3,15,4,10,14,9,13,12,5,11,8,7,1,2"
14481,commdev-image-keyboard-response,81,304040,learnblock1,617.4000000357628,img/planet8_right.png,8,Community 3,NA,TRUE,j,j,NA,NA,NA,2,6,"6,3,15,4,10,14,9,13,12,5,11,8,7,1,2"
14481,commdev-image-keyboard-response,82,305297,learnblock1,668.6999999880791,img/planet2_right.png,2,Community 3,NA,FALSE,f,j,NA,NA,NA,2,6,"6,3,15,4,10,14,9,13,12,5,11,8,7,1,2"
14481,commdev-image-keyboard-response,83,306549,learnblock1,743.0999999642372,img/planet11_left.png,11,Community 3,NA,TRUE,f,f,NA,NA,NA,2,6,"6,3,15,4,10,14,9,13,12,5,11,8,7,1,2"
14481,commdev-image-keyboard-response,84,307801,learnblock1,611.5,img/planet10_right.png,10,Community 1,NA,TRUE,j,j,NA,NA,NA,2,6,"6,3,15,4,10,14,9,13,12,5,11,8,7,1,2"
14481,commdev-image-keyboard-response,85,309058,learnblock1,902.6000000238419,img/planet6_left.png,6,Community 1,NA,TRUE,f,f,NA,NA,NA,2,6,"6,3,15,4,10,14,9,13,12,5,11,8,7,1,2"
14481,commdev-image-keyboard-response,86,310310,learnblock1,744.8999999761581,img/planet3_right.png,3,Community 1,NA,TRUE,j,j,NA,NA,NA,2,6,"6,3,15,4,10,14,9,13,12,5,11,8,7,1,2"
14481,commdev-image-keyboard-response,87,311564,learnblock1,639.8000000119209,img/planet10_left.png,10,Community 1,NA,TRUE,f,f,NA,NA,NA,2,6,"6,3,15,4,10,14,9,13,12,5,11,8,7,1,2"
14481,commdev-image-keyboard-response,88,312820,learnblock1,638.8000000119209,img/planet11_left.png,11,Community 3,NA,TRUE,f,f,NA,NA,NA,2,6,"6,3,15,4,10,14,9,13,12,5,11,8,7,1,2"
14481,commdev-image-keyboard-response,89,314076,learnblock1,650.5,img/planet7_right.png,7,Community 3,NA,TRUE,j,j,NA,NA,NA,2,6,"6,3,15,4,10,14,9,13,12,5,11,8,7,1,2"
14481,commdev-image-keyboard-response,90,315328,learnblock1,531.6999999880791,img/planet1_left.png,1,Community 3,NA,TRUE,f,f,NA,NA,NA,2,6,"6,3,15,4,10,14,9,13,12,5,11,8,7,1,2"
14481,commdev-image-keyboard-response,91,316582,learnblock1,713.6999999880791,img/planet2_right.png,2,Community 3,NA,TRUE,j,j,NA,NA,NA,2,6,"6,3,15,4,10,14,9,13,12,5,11,8,7,1,2"
14481,commdev-image-keyboard-response,92,317839,learnblock1,519.4000000357628,img/planet1_left.png,1,Community 3,NA,TRUE,f,f,NA,NA,NA,2,6,"6,3,15,4,10,14,9,13,12,5,11,8,7,1,2"
14481,commdev-image-keyboard-response,93,319092,learnblock1,546.5,img/planet8_right.png,8,Community 3,NA,TRUE,j,j,NA,NA,NA,2,6,"6,3,15,4,10,14,9,13,12,5,11,8,7,1,2"
14481,commdev-image-keyboard-response,94,320347,learnblock1,685.1999999880791,img/planet13_left.png,13,Community 2,NA,TRUE,f,f,NA,NA,NA,2,6,"6,3,15,4,10,14,9,13,12,5,11,8,7,1,2"
14481,commdev-image-keyboard-response,95,321601,learnblock1,590.4000000357628,img/planet12_left.png,12,Community 2,NA,TRUE,f,f,NA,NA,NA,2,6,"6,3,15,4,10,14,9,13,12,5,11,8,7,1,2"
14481,commdev-image-keyboard-response,96,322858,learnblock1,570.9000000357628,img/planet14_left.png,14,Community 2,NA,TRUE,f,f,NA,NA,NA,2,6,"6,3,15,4,10,14,9,13,12,5,11,8,7,1,2"
14481,commdev-image-keyboard-response,97,324112,learnblock1,529.1000000238419,img/planet12_right.png,12,Community 2,NA,TRUE,j,j,NA,NA,NA,2,6,"6,3,15,4,10,14,9,13,12,5,11,8,7,1,2"
14481,commdev-image-keyboard-response,98,325369,learnblock1,712.1999999880791,img/planet9_right.png,9,Community 2,NA,FALSE,f,j,NA,NA,NA,2,6,"6,3,15,4,10,14,9,13,12,5,11,8,7,1,2"
14481,commdev-image-keyboard-response,99,326622,learnblock1,819.8000000119209,img/planet13_right.png,13,Community 2,NA,TRUE,j,j,NA,NA,NA,2,6,"6,3,15,4,10,14,9,13,12,5,11,8,7,1,2"
14481,commdev-image-keyboard-response,100,327878,learnblock1,638.8000000119209,img/planet12_left.png,12,Community 2,NA,TRUE,f,f,NA,NA,NA,2,6,"6,3,15,4,10,14,9,13,12,5,11,8,7,1,2"
14481,commdev-image-keyboard-response,101,329135,learnblock1,539.5,img/planet9_left.png,9,Community 2,NA,TRUE,f,f,NA,NA,NA,2,6,"6,3,15,4,10,14,9,13,12,5,11,8,7,1,2"
14481,commdev-image-keyboard-response,102,330387,learnblock1,486,img/planet14_left.png,14,Community 2,NA,TRUE,f,f,NA,NA,NA,2,6,"6,3,15,4,10,14,9,13,12,5,11,8,7,1,2"
14481,commdev-image-keyboard-response,103,331643,learnblock1,611,img/planet9_right.png,9,Community 2,NA,TRUE,j,j,NA,NA,NA,2,6,"6,3,15,4,10,14,9,13,12,5,11,8,7,1,2"
14481,commdev-image-keyboard-response,104,332896,learnblock1,517.9000000357628,img/planet5_right.png,5,Community 2,NA,TRUE,j,j,NA,NA,NA,2,6,"6,3,15,4,10,14,9,13,12,5,11,8,7,1,2"
14481,commdev-image-keyboard-response,105,334150,learnblock1,646.6000000238419,img/planet9_right.png,9,Community 2,NA,TRUE,j,j,NA,NA,NA,2,6,"6,3,15,4,10,14,9,13,12,5,11,8,7,1,2"
14481,commdev-image-keyboard-response,106,335407,learnblock1,521.5999999642372,img/planet12_left.png,12,Community 2,NA,TRUE,f,f,NA,NA,NA,2,6,"6,3,15,4,10,14,9,13,12,5,11,8,7,1,2"
14481,commdev-image-keyboard-response,107,336660,learnblock1,553.3000000119209,img/planet5_left.png,5,Community 2,NA,TRUE,f,f,NA,NA,NA,2,6,"6,3,15,4,10,14,9,13,12,5,11,8,7,1,2"
14481,commdev-image-keyboard-response,108,337916,learnblock1,752.5999999642372,img/planet14_right.png,14,Community 2,NA,TRUE,j,j,NA,NA,NA,2,6,"6,3,15,4,10,14,9,13,12,5,11,8,7,1,2"
14481,commdev-image-keyboard-response,109,339172,learnblock1,636.2000000476837,img/planet9_left.png,9,Community 2,NA,TRUE,f,f,NA,NA,NA,2,6,"6,3,15,4,10,14,9,13,12,5,11,8,7,1,2"
14481,commdev-image-keyboard-response,110,340428,learnblock1,711.3000000119209,img/planet13_right.png,13,Community 2,NA,TRUE,j,j,NA,NA,NA,2,6,"6,3,15,4,10,14,9,13,12,5,11,8,7,1,2"
14481,commdev-image-keyboard-response,111,341683,learnblock1,716.8999999761581,img/planet9_left.png,9,Community 2,NA,TRUE,f,f,NA,NA,NA,2,6,"6,3,15,4,10,14,9,13,12,5,11,8,7,1,2"
14481,commdev-image-keyboard-response,112,342939,learnblock1,659.4000000357628,img/planet13_right.png,13,Community 2,NA,TRUE,j,j,NA,NA,NA,2,6,"6,3,15,4,10,14,9,13,12,5,11,8,7,1,2"
14481,commdev-image-keyboard-response,113,344193,learnblock1,953.6999999880791,img/planet8_right.png,8,Community 3,NA,TRUE,j,j,NA,NA,NA,2,6,"6,3,15,4,10,14,9,13,12,5,11,8,7,1,2"
14481,commdev-image-keyboard-response,114,345450,learnblock1,650.8000000119209,img/planet1_right.png,1,Community 3,NA,TRUE,j,j,NA,NA,NA,2,6,"6,3,15,4,10,14,9,13,12,5,11,8,7,1,2"
14481,commdev-image-keyboard-response,115,346707,learnblock1,587.6999999880791,img/planet2_right.png,2,Community 3,NA,TRUE,j,j,NA,NA,NA,2,6,"6,3,15,4,10,14,9,13,12,5,11,8,7,1,2"
14481,commdev-image-keyboard-response,116,347962,learnblock1,722.6999999880791,img/planet1_right.png,1,Community 3,NA,TRUE,j,j,NA,NA,NA,2,6,"6,3,15,4,10,14,9,13,12,5,11,8,7,1,2"
14481,commdev-image-keyboard-response,117,349215,learnblock1,569.0999999642372,img/planet2_right.png,2,Community 3,NA,TRUE,j,j,NA,NA,NA,2,6,"6,3,15,4,10,14,9,13,12,5,11,8,7,1,2"
14481,commdev-image-keyboard-response,118,350469,learnblock1,734.8999999761581,img/planet7_right.png,7,Community 3,NA,TRUE,j,j,NA,NA,NA,2,6,"6,3,15,4,10,14,9,13,12,5,11,8,7,1,2"
14481,commdev-image-keyboard-response,119,351727,learnblock1,533.7000000476837,img/planet1_left.png,1,Community 3,NA,FALSE,j,f,NA,NA,NA,2,6,"6,3,15,4,10,14,9,13,12,5,11,8,7,1,2"
14481,commdev-image-keyboard-response,120,352981,learnblock1,887.1999999880791,img/planet8_left.png,8,Community 3,NA,TRUE,f,f,NA,NA,NA,2,6,"6,3,15,4,10,14,9,13,12,5,11,8,7,1,2"
14481,commdev-image-keyboard-response,121,354234,learnblock1,659.5,img/planet1_right.png,1,Community 3,NA,TRUE,j,j,NA,NA,NA,2,6,"6,3,15,4,10,14,9,13,12,5,11,8,7,1,2"
14481,commdev-image-keyboard-response,122,355491,learnblock1,703.1000000238419,img/planet8_right.png,8,Community 3,NA,TRUE,j,j,NA,NA,NA,2,6,"6,3,15,4,10,14,9,13,12,5,11,8,7,1,2"
14481,commdev-image-keyboard-response,123,356743,learnblock1,667.6999999880791,img/planet7_right.png,7,Community 3,NA,TRUE,j,j,NA,NA,NA,2,6,"6,3,15,4,10,14,9,13,12,5,11,8,7,1,2"
14481,commdev-image-keyboard-response,124,357997,learnblock1,502.19999998807907,img/planet8_right.png,8,Community 3,NA,TRUE,j,j,NA,NA,NA,2,6,"6,3,15,4,10,14,9,13,12,5,11,8,7,1,2"
14481,commdev-image-keyboard-response,125,359253,learnblock1,545,img/planet13_right.png,13,Community 2,NA,TRUE,j,j,NA,NA,NA,2,6,"6,3,15,4,10,14,9,13,12,5,11,8,7,1,2"
14481,commdev-image-keyboard-response,126,360511,learnblock1,479.69999998807907,img/planet9_right.png,9,Community 2,NA,TRUE,j,j,NA,NA,NA,2,6,"6,3,15,4,10,14,9,13,12,5,11,8,7,1,2"
14481,commdev-image-keyboard-response,127,361768,learnblock1,577.2999999523163,img/planet14_left.png,14,Community 2,NA,TRUE,f,f,NA,NA,NA,2,6,"6,3,15,4,10,14,9,13,12,5,11,8,7,1,2"
14481,commdev-image-keyboard-response,128,363024,learnblock1,536.7000000476837,img/planet4_right.png,4,Community 1,NA,TRUE,j,j,NA,NA,NA,2,6,"6,3,15,4,10,14,9,13,12,5,11,8,7,1,2"
14481,commdev-image-keyboard-response,129,364278,learnblock1,501.9000000357628,img/planet6_left.png,6,Community 1,NA,TRUE,f,f,NA,NA,NA,2,6,"6,3,15,4,10,14,9,13,12,5,11,8,7,1,2"
14481,commdev-image-keyboard-response,130,365531,learnblock1,539.6999999880791,img/planet3_right.png,3,Community 1,NA,TRUE,j,j,NA,NA,NA,2,6,"6,3,15,4,10,14,9,13,12,5,11,8,7,1,2"
14481,commdev-image-keyboard-response,131,366788,learnblock1,572.1999999880791,img/planet6_right.png,6,Community 1,NA,TRUE,j,j,NA,NA,NA,2,6,"6,3,15,4,10,14,9,13,12,5,11,8,7,1,2"
14481,commdev-image-keyboard-response,132,368045,learnblock1,545,img/planet3_left.png,3,Community 1,NA,TRUE,f,f,NA,NA,NA,2,6,"6,3,15,4,10,14,9,13,12,5,11,8,7,1,2"
14481,commdev-image-keyboard-response,133,369301,learnblock1,448.19999998807907,img/planet10_left.png,10,Community 1,NA,TRUE,f,f,NA,NA,NA,2,6,"6,3,15,4,10,14,9,13,12,5,11,8,7,1,2"
14481,commdev-image-keyboard-response,134,370556,learnblock1,468.7000000476837,img/planet6_right.png,6,Community 1,NA,FALSE,f,j,NA,NA,NA,2,6,"6,3,15,4,10,14,9,13,12,5,11,8,7,1,2"
14481,commdev-image-keyboard-response,135,371813,learnblock1,588.3000000119209,img/planet10_right.png,10,Community 1,NA,TRUE,j,j,NA,NA,NA,2,6,"6,3,15,4,10,14,9,13,12,5,11,8,7,1,2"
14481,commdev-image-keyboard-response,136,373069,learnblock1,513.4000000357628,img/planet11_left.png,11,Community 3,NA,TRUE,f,f,NA,NA,NA,2,6,"6,3,15,4,10,14,9,13,12,5,11,8,7,1,2"
14481,commdev-image-keyboard-response,137,374323,learnblock1,572.3999999761581,img/planet7_right.png,7,Community 3,NA,TRUE,j,j,NA,NA,NA,2,6,"6,3,15,4,10,14,9,13,12,5,11,8,7,1,2"
14481,commdev-image-keyboard-response,138,375580,learnblock1,497.89999997615814,img/planet2_right.png,2,Community 3,NA,TRUE,j,j,NA,NA,NA,2,6,"6,3,15,4,10,14,9,13,12,5,11,8,7,1,2"
14481,commdev-image-keyboard-response,139,376833,learnblock1,499.89999997615814,img/planet11_left.png,11,Community 3,NA,TRUE,f,f,NA,NA,NA,2,6,"6,3,15,4,10,14,9,13,12,5,11,8,7,1,2"
14481,commdev-image-keyboard-response,140,378087,learnblock1,497.5999999642372,img/planet7_right.png,7,Community 3,NA,TRUE,j,j,NA,NA,NA,2,6,"6,3,15,4,10,14,9,13,12,5,11,8,7,1,2"
14481,commdev-image-keyboard-response,141,379340,learnblock1,548.6000000238419,img/planet8_left.png,8,Community 3,NA,FALSE,j,f,NA,NA,NA,2,6,"6,3,15,4,10,14,9,13,12,5,11,8,7,1,2"
14481,commdev-image-keyboard-response,142,380597,learnblock1,800.2000000476837,img/planet7_left.png,7,Community 3,NA,TRUE,f,f,NA,NA,NA,2,6,"6,3,15,4,10,14,9,13,12,5,11,8,7,1,2"
14481,commdev-image-keyboard-response,143,381854,learnblock1,809.6000000238419,img/planet2_left.png,2,Community 3,NA,TRUE,f,f,NA,NA,NA,2,6,"6,3,15,4,10,14,9,13,12,5,11,8,7,1,2"
14481,commdev-image-keyboard-response,144,383110,learnblock1,653.5,img/planet1_left.png,1,Community 3,NA,TRUE,f,f,NA,NA,NA,2,6,"6,3,15,4,10,14,9,13,12,5,11,8,7,1,2"
14481,commdev-image-keyboard-response,145,384361,learnblock1,690.1000000238419,img/planet7_left.png,7,Community 3,NA,TRUE,f,f,NA,NA,NA,2,6,"6,3,15,4,10,14,9,13,12,5,11,8,7,1,2"
14481,commdev-image-keyboard-response,146,385614,learnblock1,604.5,img/planet1_left.png,1,Community 3,NA,TRUE,f,f,NA,NA,NA,2,6,"6,3,15,4,10,14,9,13,12,5,11,8,7,1,2"
14481,commdev-image-keyboard-response,147,386869,learnblock1,569.8000000119209,img/planet8_left.png,8,Community 3,NA,TRUE,f,f,NA,NA,NA,2,6,"6,3,15,4,10,14,9,13,12,5,11,8,7,1,2"
14481,commdev-image-keyboard-response,148,388124,learnblock1,580.6000000238419,img/planet13_right.png,13,Community 2,NA,TRUE,j,j,NA,NA,NA,2,6,"6,3,15,4,10,14,9,13,12,5,11,8,7,1,2"
14481,commdev-image-keyboard-response,149,389378,learnblock1,516.8000000119209,img/planet9_right.png,9,Community 2,NA,TRUE,j,j,NA,NA,NA,2,6,"6,3,15,4,10,14,9,13,12,5,11,8,7,1,2"
14481,commdev-image-keyboard-response,150,390632,learnblock1,782,img/planet14_left.png,14,Community 2,NA,TRUE,f,f,NA,NA,NA,2,6,"6,3,15,4,10,14,9,13,12,5,11,8,7,1,2"
14481,commdev-image-keyboard-response,151,391889,learnblock1,500.7999999523163,img/planet9_left.png,9,Community 2,NA,TRUE,f,f,NA,NA,NA,2,6,"6,3,15,4,10,14,9,13,12,5,11,8,7,1,2"
14481,commdev-image-keyboard-response,152,393145,learnblock1,833.6999999880791,img/planet5_left.png,5,Community 2,NA,TRUE,f,f,NA,NA,NA,2,6,"6,3,15,4,10,14,9,13,12,5,11,8,7,1,2"
14481,commdev-image-keyboard-response,153,394402,learnblock1,799.8999999761581,img/planet14_left.png,14,Community 2,NA,TRUE,f,f,NA,NA,NA,2,6,"6,3,15,4,10,14,9,13,12,5,11,8,7,1,2"
14481,commdev-image-keyboard-response,154,395654,learnblock1,719.9000000357628,img/planet4_left.png,4,Community 1,NA,TRUE,f,f,NA,NA,NA,2,6,"6,3,15,4,10,14,9,13,12,5,11,8,7,1,2"
14481,commdev-image-keyboard-response,155,396912,learnblock1,632.6000000238419,img/planet3_right.png,3,Community 1,NA,TRUE,j,j,NA,NA,NA,2,6,"6,3,15,4,10,14,9,13,12,5,11,8,7,1,2"
14481,commdev-image-keyboard-response,156,398166,learnblock1,492.19999998807907,img/planet10_right.png,10,Community 1,NA,TRUE,j,j,NA,NA,NA,2,6,"6,3,15,4,10,14,9,13,12,5,11,8,7,1,2"
14481,commdev-image-keyboard-response,157,399423,learnblock1,551.1999999880791,img/planet3_left.png,3,Community 1,NA,TRUE,f,f,NA,NA,NA,2,6,"6,3,15,4,10,14,9,13,12,5,11,8,7,1,2"
14481,commdev-image-keyboard-response,158,400676,learnblock1,484.19999998807907,img/planet6_left.png,6,Community 1,NA,TRUE,f,f,NA,NA,NA,2,6,"6,3,15,4,10,14,9,13,12,5,11,8,7,1,2"
14481,commdev-image-keyboard-response,159,401933,learnblock1,418.7999999523163,img/planet4_right.png,4,Community 1,NA,FALSE,f,j,NA,NA,NA,2,6,"6,3,15,4,10,14,9,13,12,5,11,8,7,1,2"
14481,commdev-image-keyboard-response,160,403188,learnblock1,424.60000002384186,img/planet6_right.png,6,Community 1,NA,FALSE,f,j,NA,NA,NA,2,6,"6,3,15,4,10,14,9,13,12,5,11,8,7,1,2"
14481,commdev-image-keyboard-response,161,404445,learnblock1,638.5,img/planet4_left.png,4,Community 1,NA,TRUE,f,f,NA,NA,NA,2,6,"6,3,15,4,10,14,9,13,12,5,11,8,7,1,2"
14481,commdev-image-keyboard-response,162,405700,learnblock1,622.3999999761581,img/planet14_left.png,14,Community 2,NA,TRUE,f,f,NA,NA,NA,2,6,"6,3,15,4,10,14,9,13,12,5,11,8,7,1,2"
14481,commdev-image-keyboard-response,163,406955,learnblock1,553.6999999880791,img/planet5_left.png,5,Community 2,NA,TRUE,f,f,NA,NA,NA,2,6,"6,3,15,4,10,14,9,13,12,5,11,8,7,1,2"
14481,commdev-image-keyboard-response,164,408210,learnblock1,450.5999999642372,img/planet9_left.png,9,Community 2,NA,TRUE,f,f,NA,NA,NA,2,6,"6,3,15,4,10,14,9,13,12,5,11,8,7,1,2"
14481,commdev-image-keyboard-response,165,409466,learnblock1,501.89999997615814,img/planet14_left.png,14,Community 2,NA,TRUE,f,f,NA,NA,NA,2,6,"6,3,15,4,10,14,9,13,12,5,11,8,7,1,2"
14481,commdev-image-keyboard-response,166,410723,learnblock1,613.3000000119209,img/planet9_right.png,9,Community 2,NA,TRUE,j,j,NA,NA,NA,2,6,"6,3,15,4,10,14,9,13,12,5,11,8,7,1,2"
14481,commdev-image-keyboard-response,167,411981,learnblock1,678.4000000357628,img/planet12_left.png,12,Community 2,NA,TRUE,f,f,NA,NA,NA,2,6,"6,3,15,4,10,14,9,13,12,5,11,8,7,1,2"
14481,commdev-image-keyboard-response,168,413236,learnblock1,597.0999999642372,img/planet14_right.png,14,Community 2,NA,TRUE,j,j,NA,NA,NA,2,6,"6,3,15,4,10,14,9,13,12,5,11,8,7,1,2"
14481,commdev-image-keyboard-response,169,414493,learnblock1,603.1999999880791,img/planet9_right.png,9,Community 2,NA,TRUE,j,j,NA,NA,NA,2,6,"6,3,15,4,10,14,9,13,12,5,11,8,7,1,2"
14481,commdev-image-keyboard-response,170,415751,learnblock1,626.6999999880791,img/planet13_right.png,13,Community 2,NA,TRUE,j,j,NA,NA,NA,2,6,"6,3,15,4,10,14,9,13,12,5,11,8,7,1,2"
14481,commdev-image-keyboard-response,171,417008,learnblock1,526.5,img/planet8_left.png,8,Community 3,NA,TRUE,f,f,NA,NA,NA,2,6,"6,3,15,4,10,14,9,13,12,5,11,8,7,1,2"
14481,commdev-image-keyboard-response,172,418265,learnblock1,593.1999999880791,img/planet2_right.png,2,Community 3,NA,TRUE,j,j,NA,NA,NA,2,6,"6,3,15,4,10,14,9,13,12,5,11,8,7,1,2"
14481,commdev-image-keyboard-response,173,419516,learnblock1,683.6000000238419,img/planet7_left.png,7,Community 3,NA,TRUE,f,f,NA,NA,NA,2,6,"6,3,15,4,10,14,9,13,12,5,11,8,7,1,2"
14481,commdev-image-keyboard-response,174,420773,learnblock1,635.3000000119209,img/planet8_right.png,8,Community 3,NA,TRUE,j,j,NA,NA,NA,2,6,"6,3,15,4,10,14,9,13,12,5,11,8,7,1,2"
14481,commdev-image-keyboard-response,175,422030,learnblock1,950.3000000119209,img/planet7_right.png,7,Community 3,NA,TRUE,j,j,NA,NA,NA,2,6,"6,3,15,4,10,14,9,13,12,5,11,8,7,1,2"
14481,commdev-image-keyboard-response,176,423281,learnblock1,697.8000000119209,img/planet11_right.png,11,Community 3,NA,TRUE,j,j,NA,NA,NA,2,6,"6,3,15,4,10,14,9,13,12,5,11,8,7,1,2"
14481,commdev-image-keyboard-response,177,424535,learnblock1,712.3000000119209,img/planet10_right.png,10,Community 1,NA,TRUE,j,j,NA,NA,NA,2,6,"6,3,15,4,10,14,9,13,12,5,11,8,7,1,2"
14481,commdev-image-keyboard-response,178,425792,learnblock1,702.6000000238419,img/planet15_right.png,15,Community 1,NA,TRUE,j,j,NA,NA,NA,2,6,"6,3,15,4,10,14,9,13,12,5,11,8,7,1,2"
14481,commdev-image-keyboard-response,179,427049,learnblock1,559.8000000119209,img/planet10_right.png,10,Community 1,NA,TRUE,j,j,NA,NA,NA,2,6,"6,3,15,4,10,14,9,13,12,5,11,8,7,1,2"
14481,commdev-image-keyboard-response,180,428305,learnblock1,461.39999997615814,img/planet3_left.png,3,Community 1,NA,FALSE,j,f,NA,NA,NA,2,6,"6,3,15,4,10,14,9,13,12,5,11,8,7,1,2"
14481,commdev-image-keyboard-response,181,429561,learnblock1,452.30000001192093,img/planet6_right.png,6,Community 1,NA,TRUE,j,j,NA,NA,NA,2,6,"6,3,15,4,10,14,9,13,12,5,11,8,7,1,2"
14481,commdev-image-keyboard-response,182,430816,learnblock1,678,img/planet15_right.png,15,Community 1,NA,TRUE,j,j,NA,NA,NA,2,6,"6,3,15,4,10,14,9,13,12,5,11,8,7,1,2"
14481,commdev-image-keyboard-response,183,432073,learnblock1,625.5,img/planet3_left.png,3,Community 1,NA,TRUE,f,f,NA,NA,NA,2,6,"6,3,15,4,10,14,9,13,12,5,11,8,7,1,2"
14481,commdev-image-keyboard-response,184,433325,learnblock1,499.5999999642372,img/planet15_right.png,15,Community 1,NA,TRUE,j,j,NA,NA,NA,2,6,"6,3,15,4,10,14,9,13,12,5,11,8,7,1,2"
14481,commdev-image-keyboard-response,185,434582,learnblock1,580.3999999761581,img/planet6_right.png,6,Community 1,NA,TRUE,j,j,NA,NA,NA,2,6,"6,3,15,4,10,14,9,13,12,5,11,8,7,1,2"
14481,commdev-image-keyboard-response,186,435839,learnblock1,584.3000000119209,img/planet3_left.png,3,Community 1,NA,TRUE,f,f,NA,NA,NA,2,6,"6,3,15,4,10,14,9,13,12,5,11,8,7,1,2"
14481,commdev-image-keyboard-response,187,437095,learnblock1,677.5,img/planet10_left.png,10,Community 1,NA,TRUE,f,f,NA,NA,NA,2,6,"6,3,15,4,10,14,9,13,12,5,11,8,7,1,2"
14481,commdev-image-keyboard-response,188,438352,learnblock1,572.3999999761581,img/planet15_left.png,15,Community 1,NA,TRUE,f,f,NA,NA,NA,2,6,"6,3,15,4,10,14,9,13,12,5,11,8,7,1,2"
14481,commdev-image-keyboard-response,189,439609,learnblock1,595.0999999642372,img/planet10_right.png,10,Community 1,NA,TRUE,j,j,NA,NA,NA,2,6,"6,3,15,4,10,14,9,13,12,5,11,8,7,1,2"
14481,commdev-image-keyboard-response,190,440866,learnblock1,540.2999999523163,img/planet11_left.png,11,Community 3,NA,FALSE,j,f,NA,NA,NA,2,6,"6,3,15,4,10,14,9,13,12,5,11,8,7,1,2"
14481,commdev-image-keyboard-response,191,442123,learnblock1,942.3000000119209,img/planet7_left.png,7,Community 3,NA,TRUE,f,f,NA,NA,NA,2,6,"6,3,15,4,10,14,9,13,12,5,11,8,7,1,2"
14481,commdev-image-keyboard-response,192,443380,learnblock1,646.5999999642372,img/planet11_left.png,11,Community 3,NA,TRUE,f,f,NA,NA,NA,2,6,"6,3,15,4,10,14,9,13,12,5,11,8,7,1,2"
14481,commdev-image-keyboard-response,193,444634,learnblock1,516.5,img/planet10_left.png,10,Community 1,NA,TRUE,f,f,NA,NA,NA,2,6,"6,3,15,4,10,14,9,13,12,5,11,8,7,1,2"
14481,commdev-image-keyboard-response,194,445891,learnblock1,510.30000001192093,img/planet3_right.png,3,Community 1,NA,TRUE,j,j,NA,NA,NA,2,6,"6,3,15,4,10,14,9,13,12,5,11,8,7,1,2"
14481,commdev-image-keyboard-response,195,447144,learnblock1,466.39999997615814,img/planet10_left.png,10,Community 1,NA,FALSE,j,f,NA,NA,NA,2,6,"6,3,15,4,10,14,9,13,12,5,11,8,7,1,2"
14481,commdev-image-keyboard-response,196,448399,learnblock1,741.2999999523163,img/planet15_right.png,15,Community 1,NA,TRUE,j,j,NA,NA,NA,2,6,"6,3,15,4,10,14,9,13,12,5,11,8,7,1,2"
14481,commdev-image-keyboard-response,197,449655,learnblock1,582.1999999880791,img/planet10_left.png,10,Community 1,NA,TRUE,f,f,NA,NA,NA,2,6,"6,3,15,4,10,14,9,13,12,5,11,8,7,1,2"
14481,commdev-image-keyboard-response,198,450912,learnblock1,533.6999999880791,img/planet6_right.png,6,Community 1,NA,FALSE,f,j,NA,NA,NA,2,6,"6,3,15,4,10,14,9,13,12,5,11,8,7,1,2"
14481,commdev-image-keyboard-response,199,452169,learnblock1,702.7999999523163,img/planet15_left.png,15,Community 1,NA,TRUE,f,f,NA,NA,NA,2,6,"6,3,15,4,10,14,9,13,12,5,11,8,7,1,2"
14481,commdev-image-keyboard-response,200,453426,learnblock1,570.8000000119209,img/planet4_right.png,4,Community 1,NA,TRUE,j,j,NA,NA,NA,2,6,"6,3,15,4,10,14,9,13,12,5,11,8,7,1,2"
14481,commdev-image-keyboard-response,201,454683,learnblock1,640.6000000238419,img/planet15_right.png,15,Community 1,NA,TRUE,j,j,NA,NA,NA,2,6,"6,3,15,4,10,14,9,13,12,5,11,8,7,1,2"
14481,commdev-image-keyboard-response,202,455940,learnblock1,504.10000002384186,img/planet3_left.png,3,Community 1,NA,FALSE,j,f,NA,NA,NA,2,6,"6,3,15,4,10,14,9,13,12,5,11,8,7,1,2"
14481,commdev-image-keyboard-response,203,457192,learnblock1,860.6999999880791,img/planet15_left.png,15,Community 1,NA,TRUE,f,f,NA,NA,NA,2,6,"6,3,15,4,10,14,9,13,12,5,11,8,7,1,2"
14481,commdev-image-keyboard-response,204,458450,learnblock1,517.8999999761581,img/planet6_right.png,6,Community 1,NA,TRUE,j,j,NA,NA,NA,2,6,"6,3,15,4,10,14,9,13,12,5,11,8,7,1,2"
14481,commdev-image-keyboard-response,205,459704,learnblock1,559.1000000238419,img/planet3_right.png,3,Community 1,NA,TRUE,j,j,NA,NA,NA,2,6,"6,3,15,4,10,14,9,13,12,5,11,8,7,1,2"
14481,commdev-image-keyboard-response,206,460961,learnblock1,575.8000000119209,img/planet4_right.png,4,Community 1,NA,TRUE,j,j,NA,NA,NA,2,6,"6,3,15,4,10,14,9,13,12,5,11,8,7,1,2"
14481,commdev-image-keyboard-response,207,462217,learnblock1,649.5999999642372,img/planet15_right.png,15,Community 1,NA,TRUE,j,j,NA,NA,NA,2,6,"6,3,15,4,10,14,9,13,12,5,11,8,7,1,2"
14481,commdev-image-keyboard-response,208,463475,learnblock1,551.0999999642372,img/planet4_right.png,4,Community 1,NA,FALSE,f,j,NA,NA,NA,2,6,"6,3,15,4,10,14,9,13,12,5,11,8,7,1,2"
14481,commdev-image-keyboard-response,209,464732,learnblock1,576,img/planet3_right.png,3,Community 1,NA,TRUE,j,j,NA,NA,NA,2,6,"6,3,15,4,10,14,9,13,12,5,11,8,7,1,2"
14481,commdev-image-keyboard-response,210,465989,learnblock1,655.6999999880791,img/planet4_right.png,4,Community 1,NA,TRUE,j,j,NA,NA,NA,2,6,"6,3,15,4,10,14,9,13,12,5,11,8,7,1,2"
14481,commdev-image-keyboard-response,211,467243,learnblock1,614.6999999880791,img/planet3_right.png,3,Community 1,NA,TRUE,j,j,NA,NA,NA,2,6,"6,3,15,4,10,14,9,13,12,5,11,8,7,1,2"
14481,commdev-image-keyboard-response,212,468500,learnblock1,482.60000002384186,img/planet6_right.png,6,Community 1,NA,TRUE,j,j,NA,NA,NA,2,6,"6,3,15,4,10,14,9,13,12,5,11,8,7,1,2"
14481,commdev-image-keyboard-response,213,469757,learnblock1,628.1000000238419,img/planet15_left.png,15,Community 1,NA,TRUE,f,f,NA,NA,NA,2,6,"6,3,15,4,10,14,9,13,12,5,11,8,7,1,2"
14481,commdev-image-keyboard-response,214,471011,learnblock1,500.60000002384186,img/planet4_left.png,4,Community 1,NA,TRUE,f,f,NA,NA,NA,2,6,"6,3,15,4,10,14,9,13,12,5,11,8,7,1,2"
14481,commdev-image-keyboard-response,215,472265,learnblock1,575.5,img/planet15_right.png,15,Community 1,NA,TRUE,j,j,NA,NA,NA,2,6,"6,3,15,4,10,14,9,13,12,5,11,8,7,1,2"
14481,commdev-image-keyboard-response,216,473521,learnblock1,506.69999998807907,img/planet4_right.png,4,Community 1,NA,TRUE,j,j,NA,NA,NA,2,6,"6,3,15,4,10,14,9,13,12,5,11,8,7,1,2"
14481,commdev-image-keyboard-response,217,474774,learnblock1,462.0999999642372,img/planet3_right.png,3,Community 1,NA,TRUE,j,j,NA,NA,NA,2,6,"6,3,15,4,10,14,9,13,12,5,11,8,7,1,2"
14481,commdev-image-keyboard-response,218,476032,learnblock1,629.6999999880791,img/planet15_left.png,15,Community 1,NA,TRUE,f,f,NA,NA,NA,2,6,"6,3,15,4,10,14,9,13,12,5,11,8,7,1,2"
14481,commdev-image-keyboard-response,219,477289,learnblock1,525.8999999761581,img/planet4_left.png,4,Community 1,NA,TRUE,f,f,NA,NA,NA,2,6,"6,3,15,4,10,14,9,13,12,5,11,8,7,1,2"
14481,commdev-image-keyboard-response,220,478546,learnblock1,559.7000000476837,img/planet14_right.png,14,Community 2,NA,TRUE,j,j,NA,NA,NA,2,6,"6,3,15,4,10,14,9,13,12,5,11,8,7,1,2"
14481,commdev-image-keyboard-response,221,479799,learnblock1,566.1000000238419,img/planet4_right.png,4,Community 1,NA,TRUE,j,j,NA,NA,NA,2,6,"6,3,15,4,10,14,9,13,12,5,11,8,7,1,2"
14481,commdev-image-keyboard-response,222,481054,learnblock1,548.3999999761581,img/planet3_right.png,3,Community 1,NA,TRUE,j,j,NA,NA,NA,2,6,"6,3,15,4,10,14,9,13,12,5,11,8,7,1,2"
14481,commdev-image-keyboard-response,223,482310,learnblock1,410.2999999523163,img/planet4_right.png,4,Community 1,NA,TRUE,j,j,NA,NA,NA,2,6,"6,3,15,4,10,14,9,13,12,5,11,8,7,1,2"
14481,commdev-image-keyboard-response,224,483567,learnblock1,559.6000000238419,img/planet3_left.png,3,Community 1,NA,TRUE,f,f,NA,NA,NA,2,6,"6,3,15,4,10,14,9,13,12,5,11,8,7,1,2"
14481,commdev-image-keyboard-response,225,484824,learnblock1,460.10000002384186,img/planet4_left.png,4,Community 1,NA,TRUE,f,f,NA,NA,NA,2,6,"6,3,15,4,10,14,9,13,12,5,11,8,7,1,2"
14481,commdev-image-keyboard-response,226,486081,learnblock1,512.1999999880791,img/planet6_left.png,6,Community 1,NA,TRUE,f,f,NA,NA,NA,2,6,"6,3,15,4,10,14,9,13,12,5,11,8,7,1,2"
14481,commdev-image-keyboard-response,227,487336,learnblock1,516.8000000119209,img/planet15_left.png,15,Community 1,NA,TRUE,f,f,NA,NA,NA,2,6,"6,3,15,4,10,14,9,13,12,5,11,8,7,1,2"
14481,commdev-image-keyboard-response,228,488590,learnblock1,532.6000000238419,img/planet4_right.png,4,Community 1,NA,TRUE,j,j,NA,NA,NA,2,6,"6,3,15,4,10,14,9,13,12,5,11,8,7,1,2"
14481,commdev-image-keyboard-response,229,489847,learnblock1,555.3000000119209,img/planet14_right.png,14,Community 2,NA,TRUE,j,j,NA,NA,NA,2,6,"6,3,15,4,10,14,9,13,12,5,11,8,7,1,2"
14481,commdev-image-keyboard-response,230,491104,learnblock1,619.6999999880791,img/planet5_left.png,5,Community 2,NA,TRUE,f,f,NA,NA,NA,2,6,"6,3,15,4,10,14,9,13,12,5,11,8,7,1,2"
14481,commdev-image-keyboard-response,231,492361,learnblock1,554.6000000238419,img/planet12_right.png,12,Community 2,NA,TRUE,j,j,NA,NA,NA,2,6,"6,3,15,4,10,14,9,13,12,5,11,8,7,1,2"
14481,commdev-image-keyboard-response,232,493617,learnblock1,560.2999999523163,img/planet5_left.png,5,Community 2,NA,TRUE,f,f,NA,NA,NA,2,6,"6,3,15,4,10,14,9,13,12,5,11,8,7,1,2"
14481,commdev-image-keyboard-response,233,494875,learnblock1,496.5,img/planet9_left.png,9,Community 2,NA,TRUE,f,f,NA,NA,NA,2,6,"6,3,15,4,10,14,9,13,12,5,11,8,7,1,2"
14481,commdev-image-keyboard-response,234,496131,learnblock1,438.5,img/planet5_left.png,5,Community 2,NA,TRUE,f,f,NA,NA,NA,2,6,"6,3,15,4,10,14,9,13,12,5,11,8,7,1,2"
14481,commdev-image-keyboard-response,235,497387,learnblock1,476.30000001192093,img/planet13_left.png,13,Community 2,NA,TRUE,f,f,NA,NA,NA,2,6,"6,3,15,4,10,14,9,13,12,5,11,8,7,1,2"
14481,commdev-image-keyboard-response,236,498643,learnblock1,475.89999997615814,img/planet9_right.png,9,Community 2,NA,TRUE,j,j,NA,NA,NA,2,6,"6,3,15,4,10,14,9,13,12,5,11,8,7,1,2"
14481,commdev-image-keyboard-response,237,499900,learnblock1,484.80000001192093,img/planet5_left.png,5,Community 2,NA,TRUE,f,f,NA,NA,NA,2,6,"6,3,15,4,10,14,9,13,12,5,11,8,7,1,2"
14481,commdev-image-keyboard-response,238,501157,learnblock1,547.5,img/planet13_left.png,13,Community 2,NA,TRUE,f,f,NA,NA,NA,2,6,"6,3,15,4,10,14,9,13,12,5,11,8,7,1,2"
14481,commdev-image-keyboard-response,239,502413,learnblock1,508.19999998807907,img/planet12_right.png,12,Community 2,NA,TRUE,j,j,NA,NA,NA,2,6,"6,3,15,4,10,14,9,13,12,5,11,8,7,1,2"
14481,commdev-image-keyboard-response,240,503670,learnblock1,672.7999999523163,img/planet14_left.png,14,Community 2,NA,TRUE,f,f,NA,NA,NA,2,6,"6,3,15,4,10,14,9,13,12,5,11,8,7,1,2"
14481,commdev-image-keyboard-response,241,504923,learnblock1,537.6000000238419,img/planet5_right.png,5,Community 2,NA,TRUE,j,j,NA,NA,NA,2,6,"6,3,15,4,10,14,9,13,12,5,11,8,7,1,2"
14481,commdev-image-keyboard-response,242,506181,learnblock1,472,img/planet13_left.png,13,Community 2,NA,TRUE,f,f,NA,NA,NA,2,6,"6,3,15,4,10,14,9,13,12,5,11,8,7,1,2"
14481,commdev-image-keyboard-response,243,507438,learnblock1,554.8999999761581,img/planet12_left.png,12,Community 2,NA,TRUE,f,f,NA,NA,NA,2,6,"6,3,15,4,10,14,9,13,12,5,11,8,7,1,2"
14481,commdev-image-keyboard-response,244,508695,learnblock1,561.6999999880791,img/planet9_right.png,9,Community 2,NA,FALSE,f,j,NA,NA,NA,2,6,"6,3,15,4,10,14,9,13,12,5,11,8,7,1,2"
14481,commdev-image-keyboard-response,245,509949,learnblock1,841.0999999642372,img/planet12_left.png,12,Community 2,NA,TRUE,f,f,NA,NA,NA,2,6,"6,3,15,4,10,14,9,13,12,5,11,8,7,1,2"
14481,commdev-image-keyboard-response,246,511207,learnblock1,822.8000000119209,img/planet9_left.png,9,Community 2,NA,TRUE,f,f,NA,NA,NA,2,6,"6,3,15,4,10,14,9,13,12,5,11,8,7,1,2"
14481,commdev-image-keyboard-response,247,512462,learnblock1,831.5,img/planet12_left.png,12,Community 2,NA,TRUE,f,f,NA,NA,NA,2,6,"6,3,15,4,10,14,9,13,12,5,11,8,7,1,2"
14481,commdev-image-keyboard-response,248,513719,learnblock1,600.5999999642372,img/planet13_right.png,13,Community 2,NA,TRUE,j,j,NA,NA,NA,2,6,"6,3,15,4,10,14,9,13,12,5,11,8,7,1,2"
14481,commdev-image-keyboard-response,249,514975,learnblock1,494.5999999642372,img/planet8_left.png,8,Community 3,NA,TRUE,f,f,NA,NA,NA,2,6,"6,3,15,4,10,14,9,13,12,5,11,8,7,1,2"
14481,commdev-image-keyboard-response,250,516231,learnblock1,487.0999999642372,img/planet1_right.png,1,Community 3,NA,TRUE,j,j,NA,NA,NA,2,6,"6,3,15,4,10,14,9,13,12,5,11,8,7,1,2"
14481,commdev-image-keyboard-response,251,517486,learnblock1,627.3000000119209,img/planet7_right.png,7,Community 3,NA,TRUE,j,j,NA,NA,NA,2,6,"6,3,15,4,10,14,9,13,12,5,11,8,7,1,2"
14481,commdev-image-keyboard-response,252,518739,learnblock1,555.9000000357628,img/planet11_right.png,11,Community 3,NA,TRUE,j,j,NA,NA,NA,2,6,"6,3,15,4,10,14,9,13,12,5,11,8,7,1,2"
14481,commdev-image-keyboard-response,253,519993,learnblock1,602.3000000119209,img/planet10_right.png,10,Community 1,NA,TRUE,j,j,NA,NA,NA,2,6,"6,3,15,4,10,14,9,13,12,5,11,8,7,1,2"
14481,commdev-image-keyboard-response,254,521250,learnblock1,726.3999999761581,img/planet15_right.png,15,Community 1,NA,TRUE,j,j,NA,NA,NA,2,6,"6,3,15,4,10,14,9,13,12,5,11,8,7,1,2"
14481,commdev-image-keyboard-response,255,522507,learnblock1,572.1000000238419,img/planet6_left.png,6,Community 1,NA,FALSE,j,f,NA,NA,NA,2,6,"6,3,15,4,10,14,9,13,12,5,11,8,7,1,2"
14481,commdev-image-keyboard-response,256,523763,learnblock1,635.9000000357628,img/planet15_left.png,15,Community 1,NA,TRUE,f,f,NA,NA,NA,2,6,"6,3,15,4,10,14,9,13,12,5,11,8,7,1,2"
14481,commdev-image-keyboard-response,257,525018,learnblock1,532.7000000476837,img/planet10_right.png,10,Community 1,NA,TRUE,j,j,NA,NA,NA,2,6,"6,3,15,4,10,14,9,13,12,5,11,8,7,1,2"
14481,commdev-image-keyboard-response,258,526275,learnblock1,490.80000001192093,img/planet11_right.png,11,Community 3,NA,TRUE,j,j,NA,NA,NA,2,6,"6,3,15,4,10,14,9,13,12,5,11,8,7,1,2"
14481,commdev-image-keyboard-response,259,527532,learnblock1,690.3999999761581,img/planet7_right.png,7,Community 3,NA,TRUE,j,j,NA,NA,NA,2,6,"6,3,15,4,10,14,9,13,12,5,11,8,7,1,2"
14481,commdev-image-keyboard-response,260,528784,learnblock1,611,img/planet11_right.png,11,Community 3,NA,TRUE,j,j,NA,NA,NA,2,6,"6,3,15,4,10,14,9,13,12,5,11,8,7,1,2"
14481,commdev-image-keyboard-response,261,530041,learnblock1,573,img/planet7_right.png,7,Community 3,NA,TRUE,j,j,NA,NA,NA,2,6,"6,3,15,4,10,14,9,13,12,5,11,8,7,1,2"
14481,commdev-image-keyboard-response,262,531298,learnblock1,523.3000000119209,img/planet1_right.png,1,Community 3,NA,TRUE,j,j,NA,NA,NA,2,6,"6,3,15,4,10,14,9,13,12,5,11,8,7,1,2"
14481,commdev-image-keyboard-response,263,532556,learnblock1,489.60000002384186,img/planet11_right.png,11,Community 3,NA,TRUE,j,j,NA,NA,NA,2,6,"6,3,15,4,10,14,9,13,12,5,11,8,7,1,2"
14481,commdev-image-keyboard-response,264,533809,learnblock1,608.1999999880791,img/planet7_right.png,7,Community 3,NA,TRUE,j,j,NA,NA,NA,2,6,"6,3,15,4,10,14,9,13,12,5,11,8,7,1,2"
14481,commdev-image-keyboard-response,265,535066,learnblock1,551.5,img/planet2_left.png,2,Community 3,NA,TRUE,f,f,NA,NA,NA,2,6,"6,3,15,4,10,14,9,13,12,5,11,8,7,1,2"
14481,commdev-image-keyboard-response,266,536321,learnblock1,542.8999999761581,img/planet1_right.png,1,Community 3,NA,TRUE,j,j,NA,NA,NA,2,6,"6,3,15,4,10,14,9,13,12,5,11,8,7,1,2"
14481,commdev-image-keyboard-response,267,537578,learnblock1,472.89999997615814,img/planet11_right.png,11,Community 3,NA,TRUE,j,j,NA,NA,NA,2,6,"6,3,15,4,10,14,9,13,12,5,11,8,7,1,2"
14481,commdev-image-keyboard-response,268,538830,learnblock1,537.1999999880791,img/planet1_left.png,1,Community 3,NA,TRUE,f,f,NA,NA,NA,2,6,"6,3,15,4,10,14,9,13,12,5,11,8,7,1,2"
14481,commdev-image-keyboard-response,269,540087,learnblock1,487.80000001192093,img/planet7_right.png,7,Community 3,NA,TRUE,j,j,NA,NA,NA,2,6,"6,3,15,4,10,14,9,13,12,5,11,8,7,1,2"
14481,commdev-image-keyboard-response,270,541343,learnblock1,479.69999998807907,img/planet1_left.png,1,Community 3,NA,TRUE,f,f,NA,NA,NA,2,6,"6,3,15,4,10,14,9,13,12,5,11,8,7,1,2"
14481,commdev-image-keyboard-response,271,542597,learnblock1,447.5,img/planet7_right.png,7,Community 3,NA,TRUE,j,j,NA,NA,NA,2,6,"6,3,15,4,10,14,9,13,12,5,11,8,7,1,2"
14481,commdev-image-keyboard-response,272,543851,learnblock1,542.3000000119209,img/planet1_left.png,1,Community 3,NA,TRUE,f,f,NA,NA,NA,2,6,"6,3,15,4,10,14,9,13,12,5,11,8,7,1,2"
14481,commdev-image-keyboard-response,273,545108,learnblock1,558,img/planet11_right.png,11,Community 3,NA,TRUE,j,j,NA,NA,NA,2,6,"6,3,15,4,10,14,9,13,12,5,11,8,7,1,2"
14481,commdev-image-keyboard-response,274,546362,learnblock1,474.5,img/planet2_left.png,2,Community 3,NA,TRUE,f,f,NA,NA,NA,2,6,"6,3,15,4,10,14,9,13,12,5,11,8,7,1,2"
14481,commdev-image-keyboard-response,275,547619,learnblock1,498.10000002384186,img/planet7_right.png,7,Community 3,NA,TRUE,j,j,NA,NA,NA,2,6,"6,3,15,4,10,14,9,13,12,5,11,8,7,1,2"
14481,commdev-image-keyboard-response,276,548873,learnblock1,467.89999997615814,img/planet1_left.png,1,Community 3,NA,TRUE,f,f,NA,NA,NA,2,6,"6,3,15,4,10,14,9,13,12,5,11,8,7,1,2"
14481,commdev-image-keyboard-response,277,550130,learnblock1,503.60000002384186,img/planet11_right.png,11,Community 3,NA,TRUE,j,j,NA,NA,NA,2,6,"6,3,15,4,10,14,9,13,12,5,11,8,7,1,2"
14481,commdev-image-keyboard-response,278,551385,learnblock1,527.3000000119209,img/planet7_right.png,7,Community 3,NA,TRUE,j,j,NA,NA,NA,2,6,"6,3,15,4,10,14,9,13,12,5,11,8,7,1,2"
14481,commdev-image-keyboard-response,279,552642,learnblock1,537.1000000238419,img/planet8_left.png,8,Community 3,NA,TRUE,f,f,NA,NA,NA,2,6,"6,3,15,4,10,14,9,13,12,5,11,8,7,1,2"
14481,commdev-image-keyboard-response,280,553899,learnblock1,622.3999999761581,img/planet13_right.png,13,Community 2,NA,TRUE,j,j,NA,NA,NA,2,6,"6,3,15,4,10,14,9,13,12,5,11,8,7,1,2"
14481,commdev-image-keyboard-response,281,555156,learnblock1,586.4000000357628,img/planet8_right.png,8,Community 3,NA,TRUE,j,j,NA,NA,NA,2,6,"6,3,15,4,10,14,9,13,12,5,11,8,7,1,2"
14481,commdev-image-keyboard-response,282,556412,learnblock1,522.1000000238419,img/planet13_right.png,13,Community 2,NA,TRUE,j,j,NA,NA,NA,2,6,"6,3,15,4,10,14,9,13,12,5,11,8,7,1,2"
14481,commdev-image-keyboard-response,283,557669,learnblock1,524,img/planet12_right.png,12,Community 2,NA,TRUE,j,j,NA,NA,NA,2,6,"6,3,15,4,10,14,9,13,12,5,11,8,7,1,2"
14481,commdev-image-keyboard-response,284,558926,learnblock1,435.10000002384186,img/planet9_left.png,9,Community 2,NA,TRUE,f,f,NA,NA,NA,2,6,"6,3,15,4,10,14,9,13,12,5,11,8,7,1,2"
14481,commdev-image-keyboard-response,285,560183,learnblock1,418.5999999642372,img/planet5_right.png,5,Community 2,NA,TRUE,j,j,NA,NA,NA,2,6,"6,3,15,4,10,14,9,13,12,5,11,8,7,1,2"
14481,commdev-image-keyboard-response,286,561441,learnblock1,807.6999999880791,img/planet9_right.png,9,Community 2,NA,TRUE,j,j,NA,NA,NA,2,6,"6,3,15,4,10,14,9,13,12,5,11,8,7,1,2"
14481,commdev-image-keyboard-response,287,562693,learnblock1,645.3999999761581,img/planet5_left.png,5,Community 2,NA,TRUE,f,f,NA,NA,NA,2,6,"6,3,15,4,10,14,9,13,12,5,11,8,7,1,2"
14481,commdev-image-keyboard-response,288,563950,learnblock1,540.8999999761581,img/planet14_right.png,14,Community 2,NA,TRUE,j,j,NA,NA,NA,2,6,"6,3,15,4,10,14,9,13,12,5,11,8,7,1,2"
14481,commdev-image-keyboard-response,289,565207,learnblock1,580.8000000119209,img/planet12_right.png,12,Community 2,NA,FALSE,f,j,NA,NA,NA,2,6,"6,3,15,4,10,14,9,13,12,5,11,8,7,1,2"
14481,commdev-image-keyboard-response,290,566463,learnblock1,602.8000000119209,img/planet13_right.png,13,Community 2,NA,TRUE,j,j,NA,NA,NA,2,6,"6,3,15,4,10,14,9,13,12,5,11,8,7,1,2"
14481,commdev-image-keyboard-response,291,567720,learnblock1,463.5,img/planet12_right.png,12,Community 2,NA,TRUE,j,j,NA,NA,NA,2,6,"6,3,15,4,10,14,9,13,12,5,11,8,7,1,2"
14481,commdev-image-keyboard-response,292,568973,learnblock1,527.8999999761581,img/planet9_left.png,9,Community 2,NA,TRUE,f,f,NA,NA,NA,2,6,"6,3,15,4,10,14,9,13,12,5,11,8,7,1,2"
14481,commdev-image-keyboard-response,293,570228,learnblock1,508.89999997615814,img/planet13_right.png,13,Community 2,NA,FALSE,f,j,NA,NA,NA,2,6,"6,3,15,4,10,14,9,13,12,5,11,8,7,1,2"
14481,commdev-image-keyboard-response,294,571481,learnblock1,560.4000000357628,img/planet5_right.png,5,Community 2,NA,TRUE,j,j,NA,NA,NA,2,6,"6,3,15,4,10,14,9,13,12,5,11,8,7,1,2"
14481,commdev-image-keyboard-response,295,572738,learnblock1,579.7000000476837,img/planet12_left.png,12,Community 2,NA,TRUE,f,f,NA,NA,NA,2,6,"6,3,15,4,10,14,9,13,12,5,11,8,7,1,2"
14481,commdev-image-keyboard-response,296,573994,learnblock1,461.80000001192093,img/planet13_right.png,13,Community 2,NA,TRUE,j,j,NA,NA,NA,2,6,"6,3,15,4,10,14,9,13,12,5,11,8,7,1,2"
14481,commdev-image-keyboard-response,297,575249,learnblock1,516.5,img/planet8_left.png,8,Community 3,NA,TRUE,f,f,NA,NA,NA,2,6,"6,3,15,4,10,14,9,13,12,5,11,8,7,1,2"
14481,commdev-image-keyboard-response,298,576506,learnblock1,531.8999999761581,img/planet1_left.png,1,Community 3,NA,TRUE,f,f,NA,NA,NA,2,6,"6,3,15,4,10,14,9,13,12,5,11,8,7,1,2"
14481,commdev-image-keyboard-response,299,577760,learnblock1,557,img/planet2_left.png,2,Community 3,NA,TRUE,f,f,NA,NA,NA,2,6,"6,3,15,4,10,14,9,13,12,5,11,8,7,1,2"
14481,commdev-image-keyboard-response,300,579017,learnblock1,469.69999998807907,img/planet7_right.png,7,Community 3,NA,FALSE,f,j,NA,NA,NA,2,6,"6,3,15,4,10,14,9,13,12,5,11,8,7,1,2"
14481,commdev-image-keyboard-response,301,580274,learnblock1,473.80000001192093,img/planet2_right.png,2,Community 3,NA,TRUE,j,j,NA,NA,NA,2,6,"6,3,15,4,10,14,9,13,12,5,11,8,7,1,2"
14481,commdev-image-keyboard-response,302,581532,learnblock1,620.9000000357628,img/planet11_right.png,11,Community 3,NA,TRUE,j,j,NA,NA,NA,2,6,"6,3,15,4,10,14,9,13,12,5,11,8,7,1,2"
14481,commdev-image-keyboard-response,303,582789,learnblock1,417.30000001192093,img/planet2_right.png,2,Community 3,NA,TRUE,j,j,NA,NA,NA,2,6,"6,3,15,4,10,14,9,13,12,5,11,8,7,1,2"
14481,commdev-image-keyboard-response,304,584046,learnblock1,533.5,img/planet1_right.png,1,Community 3,NA,TRUE,j,j,NA,NA,NA,2,6,"6,3,15,4,10,14,9,13,12,5,11,8,7,1,2"
14481,commdev-image-keyboard-response,305,585303,learnblock1,394.5,img/planet11_right.png,11,Community 3,NA,TRUE,j,j,NA,NA,NA,2,6,"6,3,15,4,10,14,9,13,12,5,11,8,7,1,2"
14481,commdev-image-keyboard-response,306,586557,learnblock1,338.89999997615814,img/planet2_left.png,2,Community 3,NA,FALSE,j,f,NA,NA,NA,2,6,"6,3,15,4,10,14,9,13,12,5,11,8,7,1,2"
14481,commdev-image-keyboard-response,307,587814,learnblock1,476.5,img/planet11_right.png,11,Community 3,NA,TRUE,j,j,NA,NA,NA,2,6,"6,3,15,4,10,14,9,13,12,5,11,8,7,1,2"
14481,commdev-image-keyboard-response,308,589071,learnblock1,445.60000002384186,img/planet1_right.png,1,Community 3,NA,TRUE,j,j,NA,NA,NA,2,6,"6,3,15,4,10,14,9,13,12,5,11,8,7,1,2"
14481,commdev-image-keyboard-response,309,590324,learnblock1,488.60000002384186,img/planet11_right.png,11,Community 3,NA,TRUE,j,j,NA,NA,NA,2,6,"6,3,15,4,10,14,9,13,12,5,11,8,7,1,2"
14481,commdev-image-keyboard-response,310,591582,learnblock1,440.10000002384186,img/planet1_right.png,1,Community 3,NA,TRUE,j,j,NA,NA,NA,2,6,"6,3,15,4,10,14,9,13,12,5,11,8,7,1,2"
14481,commdev-image-keyboard-response,311,592838,learnblock1,392.30000001192093,img/planet2_left.png,2,Community 3,NA,FALSE,j,f,NA,NA,NA,2,6,"6,3,15,4,10,14,9,13,12,5,11,8,7,1,2"
14481,commdev-image-keyboard-response,312,594092,learnblock1,469.89999997615814,img/planet8_right.png,8,Community 3,NA,TRUE,j,j,NA,NA,NA,2,6,"6,3,15,4,10,14,9,13,12,5,11,8,7,1,2"
14481,commdev-image-keyboard-response,313,595345,learnblock1,525.8000000119209,img/planet1_right.png,1,Community 3,NA,TRUE,j,j,NA,NA,NA,2,6,"6,3,15,4,10,14,9,13,12,5,11,8,7,1,2"
14481,commdev-image-keyboard-response,314,596599,learnblock1,540.5,img/planet11_left.png,11,Community 3,NA,TRUE,f,f,NA,NA,NA,2,6,"6,3,15,4,10,14,9,13,12,5,11,8,7,1,2"
14481,commdev-image-keyboard-response,315,597857,learnblock1,558.8000000119209,img/planet2_left.png,2,Community 3,NA,TRUE,f,f,NA,NA,NA,2,6,"6,3,15,4,10,14,9,13,12,5,11,8,7,1,2"
14481,commdev-image-keyboard-response,316,599113,learnblock1,500.80000001192093,img/planet11_left.png,11,Community 3,NA,TRUE,f,f,NA,NA,NA,2,6,"6,3,15,4,10,14,9,13,12,5,11,8,7,1,2"
14481,commdev-image-keyboard-response,317,600371,learnblock1,469.2000000476837,img/planet2_left.png,2,Community 3,NA,TRUE,f,f,NA,NA,NA,2,6,"6,3,15,4,10,14,9,13,12,5,11,8,7,1,2"
14481,commdev-image-keyboard-response,318,601627,learnblock1,487,img/planet11_left.png,11,Community 3,NA,TRUE,f,f,NA,NA,NA,2,6,"6,3,15,4,10,14,9,13,12,5,11,8,7,1,2"
14481,commdev-image-keyboard-response,319,602884,learnblock1,449.89999997615814,img/planet2_left.png,2,Community 3,NA,TRUE,f,f,NA,NA,NA,2,6,"6,3,15,4,10,14,9,13,12,5,11,8,7,1,2"
14481,commdev-image-keyboard-response,320,604137,learnblock1,469.39999997615814,img/planet7_right.png,7,Community 3,NA,TRUE,j,j,NA,NA,NA,2,6,"6,3,15,4,10,14,9,13,12,5,11,8,7,1,2"
14481,commdev-image-keyboard-response,321,605395,learnblock1,629.6000000238419,img/planet8_right.png,8,Community 3,NA,TRUE,j,j,NA,NA,NA,2,6,"6,3,15,4,10,14,9,13,12,5,11,8,7,1,2"
14481,commdev-image-keyboard-response,322,606652,learnblock1,668.6000000238419,img/planet7_right.png,7,Community 3,NA,TRUE,j,j,NA,NA,NA,2,6,"6,3,15,4,10,14,9,13,12,5,11,8,7,1,2"
14481,commdev-image-keyboard-response,323,607907,learnblock1,455.89999997615814,img/planet2_right.png,2,Community 3,NA,TRUE,j,j,NA,NA,NA,2,6,"6,3,15,4,10,14,9,13,12,5,11,8,7,1,2"
14481,commdev-image-keyboard-response,324,609161,learnblock1,605.3999999761581,img/planet7_right.png,7,Community 3,NA,TRUE,j,j,NA,NA,NA,2,6,"6,3,15,4,10,14,9,13,12,5,11,8,7,1,2"
14481,commdev-image-keyboard-response,325,610417,learnblock1,418.0999999642372,img/planet1_right.png,1,Community 3,NA,TRUE,j,j,NA,NA,NA,2,6,"6,3,15,4,10,14,9,13,12,5,11,8,7,1,2"
14481,commdev-image-keyboard-response,326,611674,learnblock1,654.2999999523163,img/planet2_left.png,2,Community 3,NA,TRUE,f,f,NA,NA,NA,2,6,"6,3,15,4,10,14,9,13,12,5,11,8,7,1,2"
14481,commdev-image-keyboard-response,327,612930,learnblock1,579,img/planet8_right.png,8,Community 3,NA,TRUE,j,j,NA,NA,NA,2,6,"6,3,15,4,10,14,9,13,12,5,11,8,7,1,2"
14481,commdev-image-keyboard-response,328,614184,learnblock1,500.4000000357628,img/planet13_left.png,13,Community 2,NA,TRUE,f,f,NA,NA,NA,2,6,"6,3,15,4,10,14,9,13,12,5,11,8,7,1,2"
14481,commdev-image-keyboard-response,329,615437,learnblock1,452.10000002384186,img/planet5_right.png,5,Community 2,NA,TRUE,j,j,NA,NA,NA,2,6,"6,3,15,4,10,14,9,13,12,5,11,8,7,1,2"
14481,commdev-image-keyboard-response,330,616694,learnblock1,475.0999999642372,img/planet9_right.png,9,Community 2,NA,TRUE,j,j,NA,NA,NA,2,6,"6,3,15,4,10,14,9,13,12,5,11,8,7,1,2"
14481,commdev-image-keyboard-response,331,617950,learnblock1,472.69999998807907,img/planet13_left.png,13,Community 2,NA,TRUE,f,f,NA,NA,NA,2,6,"6,3,15,4,10,14,9,13,12,5,11,8,7,1,2"
14481,commdev-image-keyboard-response,332,619206,learnblock1,481.5,img/planet12_right.png,12,Community 2,NA,TRUE,j,j,NA,NA,NA,2,6,"6,3,15,4,10,14,9,13,12,5,11,8,7,1,2"
14481,commdev-image-keyboard-response,333,620457,learnblock1,548.3999999761581,img/planet5_right.png,5,Community 2,NA,TRUE,j,j,NA,NA,NA,2,6,"6,3,15,4,10,14,9,13,12,5,11,8,7,1,2"
14481,commdev-image-keyboard-response,334,621713,learnblock1,522.5,img/planet9_right.png,9,Community 2,NA,TRUE,j,j,NA,NA,NA,2,6,"6,3,15,4,10,14,9,13,12,5,11,8,7,1,2"
14481,commdev-image-keyboard-response,335,622970,learnblock1,596.3999999761581,img/planet13_left.png,13,Community 2,NA,TRUE,f,f,NA,NA,NA,2,6,"6,3,15,4,10,14,9,13,12,5,11,8,7,1,2"
14481,commdev-image-keyboard-response,336,624223,learnblock1,993.8000000119209,img/planet8_left.png,8,Community 3,NA,FALSE,j,f,NA,NA,NA,2,6,"6,3,15,4,10,14,9,13,12,5,11,8,7,1,2"
14481,commdev-image-keyboard-response,337,625479,learnblock1,630.0999999642372,img/planet13_right.png,13,Community 2,NA,TRUE,j,j,NA,NA,NA,2,6,"6,3,15,4,10,14,9,13,12,5,11,8,7,1,2"
14481,commdev-image-keyboard-response,338,626732,learnblock1,482,img/planet12_left.png,12,Community 2,NA,TRUE,f,f,NA,NA,NA,2,6,"6,3,15,4,10,14,9,13,12,5,11,8,7,1,2"
14481,commdev-image-keyboard-response,339,627986,learnblock1,663.6000000238419,img/planet14_right.png,14,Community 2,NA,TRUE,j,j,NA,NA,NA,2,6,"6,3,15,4,10,14,9,13,12,5,11,8,7,1,2"
14481,commdev-image-keyboard-response,340,629238,learnblock1,569.5,img/planet5_left.png,5,Community 2,NA,TRUE,f,f,NA,NA,NA,2,6,"6,3,15,4,10,14,9,13,12,5,11,8,7,1,2"
14481,commdev-image-keyboard-response,341,630494,learnblock1,394.39999997615814,img/planet12_right.png,12,Community 2,NA,TRUE,j,j,NA,NA,NA,2,6,"6,3,15,4,10,14,9,13,12,5,11,8,7,1,2"
14481,commdev-image-keyboard-response,342,631745,learnblock1,882.6000000238419,img/planet9_right.png,9,Community 2,NA,FALSE,f,j,NA,NA,NA,2,6,"6,3,15,4,10,14,9,13,12,5,11,8,7,1,2"
14481,commdev-image-keyboard-response,343,633002,learnblock1,628.8999999761581,img/planet14_right.png,14,Community 2,NA,TRUE,j,j,NA,NA,NA,2,6,"6,3,15,4,10,14,9,13,12,5,11,8,7,1,2"
14481,commdev-image-keyboard-response,344,634256,learnblock1,804.5999999642372,img/planet9_right.png,9,Community 2,NA,TRUE,j,j,NA,NA,NA,2,6,"6,3,15,4,10,14,9,13,12,5,11,8,7,1,2"
14481,commdev-image-keyboard-response,345,635512,learnblock1,950.6000000238419,img/planet5_right.png,5,Community 2,NA,TRUE,j,j,NA,NA,NA,2,6,"6,3,15,4,10,14,9,13,12,5,11,8,7,1,2"
14481,commdev-image-keyboard-response,346,636768,learnblock1,697.1000000238419,img/planet14_right.png,14,Community 2,NA,TRUE,j,j,NA,NA,NA,2,6,"6,3,15,4,10,14,9,13,12,5,11,8,7,1,2"
14481,commdev-image-keyboard-response,347,638022,learnblock1,673.8000000119209,img/planet5_right.png,5,Community 2,NA,TRUE,j,j,NA,NA,NA,2,6,"6,3,15,4,10,14,9,13,12,5,11,8,7,1,2"
14481,commdev-image-keyboard-response,351,1401627,learnblock2,748.3000000119209,img/planet5_left.png,5,Community 2,NA,TRUE,f,f,NA,NA,NA,2,6,"6,3,15,4,10,14,9,13,12,5,11,8,7,1,2"
14481,commdev-image-keyboard-response,352,1402880,learnblock2,541.4000000357628,img/planet9_right.png,9,Community 2,NA,TRUE,j,j,NA,NA,NA,2,6,"6,3,15,4,10,14,9,13,12,5,11,8,7,1,2"
14481,commdev-image-keyboard-response,353,1404134,learnblock2,550.8999999761581,img/planet12_left.png,12,Community 2,NA,TRUE,f,f,NA,NA,NA,2,6,"6,3,15,4,10,14,9,13,12,5,11,8,7,1,2"
14481,commdev-image-keyboard-response,354,1405387,learnblock2,470.30000001192093,img/planet9_right.png,9,Community 2,NA,TRUE,j,j,NA,NA,NA,2,6,"6,3,15,4,10,14,9,13,12,5,11,8,7,1,2"
14481,commdev-image-keyboard-response,355,1406643,learnblock2,546,img/planet12_left.png,12,Community 2,NA,TRUE,f,f,NA,NA,NA,2,6,"6,3,15,4,10,14,9,13,12,5,11,8,7,1,2"
14481,commdev-image-keyboard-response,356,1407895,learnblock2,502.89999997615814,img/planet14_left.png,14,Community 2,NA,TRUE,f,f,NA,NA,NA,2,6,"6,3,15,4,10,14,9,13,12,5,11,8,7,1,2"
14481,commdev-image-keyboard-response,357,1409152,learnblock2,490.10000002384186,img/planet5_right.png,5,Community 2,NA,TRUE,j,j,NA,NA,NA,2,6,"6,3,15,4,10,14,9,13,12,5,11,8,7,1,2"
14481,commdev-image-keyboard-response,358,1410407,learnblock2,558.2000000476837,img/planet13_left.png,13,Community 2,NA,TRUE,f,f,NA,NA,NA,2,6,"6,3,15,4,10,14,9,13,12,5,11,8,7,1,2"
14481,commdev-image-keyboard-response,359,1411662,learnblock2,503.80000001192093,img/planet9_left.png,9,Community 2,NA,TRUE,f,f,NA,NA,NA,2,6,"6,3,15,4,10,14,9,13,12,5,11,8,7,1,2"
14481,commdev-image-keyboard-response,360,1412920,learnblock2,582.3000000119209,img/planet14_left.png,14,Community 2,NA,TRUE,f,f,NA,NA,NA,2,6,"6,3,15,4,10,14,9,13,12,5,11,8,7,1,2"
14481,commdev-image-keyboard-response,361,1414176,learnblock2,511,img/planet9_right.png,9,Community 2,NA,TRUE,j,j,NA,NA,NA,2,6,"6,3,15,4,10,14,9,13,12,5,11,8,7,1,2"
14481,commdev-image-keyboard-response,362,1415433,learnblock2,549.9000000357628,img/planet14_right.png,14,Community 2,NA,FALSE,f,j,NA,NA,NA,2,6,"6,3,15,4,10,14,9,13,12,5,11,8,7,1,2"
14481,commdev-image-keyboard-response,363,1416690,learnblock2,553.3999999761581,img/planet4_left.png,4,Community 1,NA,TRUE,f,f,NA,NA,NA,2,6,"6,3,15,4,10,14,9,13,12,5,11,8,7,1,2"
14481,commdev-image-keyboard-response,364,1417945,learnblock2,520.3999999761581,img/planet14_right.png,14,Community 2,NA,TRUE,j,j,NA,NA,NA,2,6,"6,3,15,4,10,14,9,13,12,5,11,8,7,1,2"
14481,commdev-image-keyboard-response,365,1419203,learnblock2,508.30000001192093,img/planet9_left.png,9,Community 2,NA,TRUE,f,f,NA,NA,NA,2,6,"6,3,15,4,10,14,9,13,12,5,11,8,7,1,2"
14481,commdev-image-keyboard-response,366,1420456,learnblock2,526.8000000119209,img/planet5_left.png,5,Community 2,NA,TRUE,f,f,NA,NA,NA,2,6,"6,3,15,4,10,14,9,13,12,5,11,8,7,1,2"
14481,commdev-image-keyboard-response,367,1421714,learnblock2,520.6999999880791,img/planet14_left.png,14,Community 2,NA,FALSE,j,f,NA,NA,NA,2,6,"6,3,15,4,10,14,9,13,12,5,11,8,7,1,2"
14481,commdev-image-keyboard-response,368,1422969,learnblock2,589.5,img/planet4_right.png,4,Community 1,NA,TRUE,j,j,NA,NA,NA,2,6,"6,3,15,4,10,14,9,13,12,5,11,8,7,1,2"
14481,commdev-image-keyboard-response,369,1424226,learnblock2,557.8000000119209,img/planet15_left.png,15,Community 1,NA,TRUE,f,f,NA,NA,NA,2,6,"6,3,15,4,10,14,9,13,12,5,11,8,7,1,2"
14481,commdev-image-keyboard-response,370,1425481,learnblock2,591.5999999642372,img/planet6_left.png,6,Community 1,NA,TRUE,f,f,NA,NA,NA,2,6,"6,3,15,4,10,14,9,13,12,5,11,8,7,1,2"
14481,commdev-image-keyboard-response,371,1426737,learnblock2,602.4000000357628,img/planet3_right.png,3,Community 1,NA,TRUE,j,j,NA,NA,NA,2,6,"6,3,15,4,10,14,9,13,12,5,11,8,7,1,2"
14481,commdev-image-keyboard-response,372,1427995,learnblock2,536.1999999880791,img/planet4_right.png,4,Community 1,NA,TRUE,j,j,NA,NA,NA,2,6,"6,3,15,4,10,14,9,13,12,5,11,8,7,1,2"
14481,commdev-image-keyboard-response,373,1429251,learnblock2,549.6000000238419,img/planet3_left.png,3,Community 1,NA,TRUE,f,f,NA,NA,NA,2,6,"6,3,15,4,10,14,9,13,12,5,11,8,7,1,2"
14481,commdev-image-keyboard-response,374,1430504,learnblock2,778.0999999642372,img/planet15_right.png,15,Community 1,NA,FALSE,f,j,NA,NA,NA,2,6,"6,3,15,4,10,14,9,13,12,5,11,8,7,1,2"
14481,commdev-image-keyboard-response,375,1431761,learnblock2,641,img/planet4_left.png,4,Community 1,NA,TRUE,f,f,NA,NA,NA,2,6,"6,3,15,4,10,14,9,13,12,5,11,8,7,1,2"
14481,commdev-image-keyboard-response,376,1433019,learnblock2,585.2999999523163,img/planet3_right.png,3,Community 1,NA,TRUE,j,j,NA,NA,NA,2,6,"6,3,15,4,10,14,9,13,12,5,11,8,7,1,2"
14481,commdev-image-keyboard-response,377,1434272,learnblock2,671.5999999642372,img/planet10_right.png,10,Community 1,NA,FALSE,f,j,NA,NA,NA,2,6,"6,3,15,4,10,14,9,13,12,5,11,8,7,1,2"
14481,commdev-image-keyboard-response,378,1435525,learnblock2,736.9000000357628,img/planet3_right.png,3,Community 1,NA,TRUE,j,j,NA,NA,NA,2,6,"6,3,15,4,10,14,9,13,12,5,11,8,7,1,2"
14481,commdev-image-keyboard-response,379,1436779,learnblock2,601,img/planet10_left.png,10,Community 1,NA,TRUE,f,f,NA,NA,NA,2,6,"6,3,15,4,10,14,9,13,12,5,11,8,7,1,2"
14481,commdev-image-keyboard-response,380,1438036,learnblock2,710.8999999761581,img/planet3_right.png,3,Community 1,NA,TRUE,j,j,NA,NA,NA,2,6,"6,3,15,4,10,14,9,13,12,5,11,8,7,1,2"
14481,commdev-image-keyboard-response,381,1439293,learnblock2,561.7999999523163,img/planet10_right.png,10,Community 1,NA,TRUE,j,j,NA,NA,NA,2,6,"6,3,15,4,10,14,9,13,12,5,11,8,7,1,2"
14481,commdev-image-keyboard-response,382,1440548,learnblock2,706.5999999642372,img/planet6_left.png,6,Community 1,NA,TRUE,f,f,NA,NA,NA,2,6,"6,3,15,4,10,14,9,13,12,5,11,8,7,1,2"
14481,commdev-image-keyboard-response,383,1441801,learnblock2,661.8000000119209,img/planet4_left.png,4,Community 1,NA,TRUE,f,f,NA,NA,NA,2,6,"6,3,15,4,10,14,9,13,12,5,11,8,7,1,2"
14481,commdev-image-keyboard-response,384,1443059,learnblock2,498.69999998807907,img/planet6_left.png,6,Community 1,NA,TRUE,f,f,NA,NA,NA,2,6,"6,3,15,4,10,14,9,13,12,5,11,8,7,1,2"
14481,commdev-image-keyboard-response,385,1444312,learnblock2,465.5,img/planet4_left.png,4,Community 1,NA,TRUE,f,f,NA,NA,NA,2,6,"6,3,15,4,10,14,9,13,12,5,11,8,7,1,2"
14481,commdev-image-keyboard-response,386,1445568,learnblock2,472.60000002384186,img/planet15_right.png,15,Community 1,NA,TRUE,j,j,NA,NA,NA,2,6,"6,3,15,4,10,14,9,13,12,5,11,8,7,1,2"
14481,commdev-image-keyboard-response,387,1446822,learnblock2,539.1999999880791,img/planet6_right.png,6,Community 1,NA,TRUE,j,j,NA,NA,NA,2,6,"6,3,15,4,10,14,9,13,12,5,11,8,7,1,2"
14481,commdev-image-keyboard-response,388,1448076,learnblock2,492.10000002384186,img/planet3_right.png,3,Community 1,NA,TRUE,j,j,NA,NA,NA,2,6,"6,3,15,4,10,14,9,13,12,5,11,8,7,1,2"
14481,commdev-image-keyboard-response,389,1449334,learnblock2,660.0999999642372,img/planet10_left.png,10,Community 1,NA,TRUE,f,f,NA,NA,NA,2,6,"6,3,15,4,10,14,9,13,12,5,11,8,7,1,2"
14481,commdev-image-keyboard-response,390,1450588,learnblock2,624.7000000476837,img/planet3_right.png,3,Community 1,NA,TRUE,j,j,NA,NA,NA,2,6,"6,3,15,4,10,14,9,13,12,5,11,8,7,1,2"
14481,commdev-image-keyboard-response,391,1451840,learnblock2,475.80000001192093,img/planet15_right.png,15,Community 1,NA,TRUE,j,j,NA,NA,NA,2,6,"6,3,15,4,10,14,9,13,12,5,11,8,7,1,2"
14481,commdev-image-keyboard-response,392,1453096,learnblock2,478.30000001192093,img/planet6_left.png,6,Community 1,NA,TRUE,f,f,NA,NA,NA,2,6,"6,3,15,4,10,14,9,13,12,5,11,8,7,1,2"
14481,commdev-image-keyboard-response,393,1454351,learnblock2,423.5999999642372,img/planet4_right.png,4,Community 1,NA,TRUE,j,j,NA,NA,NA,2,6,"6,3,15,4,10,14,9,13,12,5,11,8,7,1,2"
14481,commdev-image-keyboard-response,394,1455607,learnblock2,584.3000000119209,img/planet15_right.png,15,Community 1,NA,TRUE,j,j,NA,NA,NA,2,6,"6,3,15,4,10,14,9,13,12,5,11,8,7,1,2"
14481,commdev-image-keyboard-response,395,1456860,learnblock2,484.39999997615814,img/planet10_left.png,10,Community 1,NA,TRUE,f,f,NA,NA,NA,2,6,"6,3,15,4,10,14,9,13,12,5,11,8,7,1,2"
14481,commdev-image-keyboard-response,396,1458113,learnblock2,518.5999999642372,img/planet6_left.png,6,Community 1,NA,TRUE,f,f,NA,NA,NA,2,6,"6,3,15,4,10,14,9,13,12,5,11,8,7,1,2"
14481,commdev-image-keyboard-response,397,1459370,learnblock2,444.60000002384186,img/planet15_right.png,15,Community 1,NA,TRUE,j,j,NA,NA,NA,2,6,"6,3,15,4,10,14,9,13,12,5,11,8,7,1,2"
14481,commdev-image-keyboard-response,398,1460627,learnblock2,425.9000000357628,img/planet3_left.png,3,Community 1,NA,FALSE,j,f,NA,NA,NA,2,6,"6,3,15,4,10,14,9,13,12,5,11,8,7,1,2"
14481,commdev-image-keyboard-response,399,1461880,learnblock2,508.80000001192093,img/planet6_right.png,6,Community 1,NA,TRUE,j,j,NA,NA,NA,2,6,"6,3,15,4,10,14,9,13,12,5,11,8,7,1,2"
14481,commdev-image-keyboard-response,400,1463134,learnblock2,657.4000000357628,img/planet15_left.png,15,Community 1,NA,TRUE,f,f,NA,NA,NA,2,6,"6,3,15,4,10,14,9,13,12,5,11,8,7,1,2"
14481,commdev-image-keyboard-response,401,1464387,learnblock2,546.1999999880791,img/planet10_left.png,10,Community 1,NA,TRUE,f,f,NA,NA,NA,2,6,"6,3,15,4,10,14,9,13,12,5,11,8,7,1,2"
14481,commdev-image-keyboard-response,402,1465645,learnblock2,589.5,img/planet3_left.png,3,Community 1,NA,TRUE,f,f,NA,NA,NA,2,6,"6,3,15,4,10,14,9,13,12,5,11,8,7,1,2"
14481,commdev-image-keyboard-response,403,1466898,learnblock2,629.2000000476837,img/planet6_right.png,6,Community 1,NA,TRUE,j,j,NA,NA,NA,2,6,"6,3,15,4,10,14,9,13,12,5,11,8,7,1,2"
14481,commdev-image-keyboard-response,404,1468155,learnblock2,579.8000000119209,img/planet15_right.png,15,Community 1,NA,TRUE,j,j,NA,NA,NA,2,6,"6,3,15,4,10,14,9,13,12,5,11,8,7,1,2"
14481,commdev-image-keyboard-response,405,1469409,learnblock2,552.6000000238419,img/planet3_right.png,3,Community 1,NA,TRUE,j,j,NA,NA,NA,2,6,"6,3,15,4,10,14,9,13,12,5,11,8,7,1,2"
14481,commdev-image-keyboard-response,406,1470663,learnblock2,427.69999998807907,img/planet6_right.png,6,Community 1,NA,TRUE,j,j,NA,NA,NA,2,6,"6,3,15,4,10,14,9,13,12,5,11,8,7,1,2"
14481,commdev-image-keyboard-response,407,1471918,learnblock2,427.9000000357628,img/planet3_left.png,3,Community 1,NA,FALSE,j,f,NA,NA,NA,2,6,"6,3,15,4,10,14,9,13,12,5,11,8,7,1,2"
14481,commdev-image-keyboard-response,408,1473175,learnblock2,454.69999998807907,img/planet15_right.png,15,Community 1,NA,TRUE,j,j,NA,NA,NA,2,6,"6,3,15,4,10,14,9,13,12,5,11,8,7,1,2"
14481,commdev-image-keyboard-response,409,1474433,learnblock2,479.5,img/planet4_left.png,4,Community 1,NA,TRUE,f,f,NA,NA,NA,2,6,"6,3,15,4,10,14,9,13,12,5,11,8,7,1,2"
14481,commdev-image-keyboard-response,410,1475690,learnblock2,523.2999999523163,img/planet3_left.png,3,Community 1,NA,TRUE,f,f,NA,NA,NA,2,6,"6,3,15,4,10,14,9,13,12,5,11,8,7,1,2"
14481,commdev-image-keyboard-response,411,1476944,learnblock2,458.19999998807907,img/planet6_left.png,6,Community 1,NA,TRUE,f,f,NA,NA,NA,2,6,"6,3,15,4,10,14,9,13,12,5,11,8,7,1,2"
14481,commdev-image-keyboard-response,412,1478198,learnblock2,482.9000000357628,img/planet15_right.png,15,Community 1,NA,TRUE,j,j,NA,NA,NA,2,6,"6,3,15,4,10,14,9,13,12,5,11,8,7,1,2"
14481,commdev-image-keyboard-response,413,1479452,learnblock2,527.8999999761581,img/planet4_right.png,4,Community 1,NA,TRUE,j,j,NA,NA,NA,2,6,"6,3,15,4,10,14,9,13,12,5,11,8,7,1,2"
14481,commdev-image-keyboard-response,414,1480707,learnblock2,461.5,img/planet6_right.png,6,Community 1,NA,TRUE,j,j,NA,NA,NA,2,6,"6,3,15,4,10,14,9,13,12,5,11,8,7,1,2"
14481,commdev-image-keyboard-response,415,1481963,learnblock2,565.9000000357628,img/planet4_left.png,4,Community 1,NA,TRUE,f,f,NA,NA,NA,2,6,"6,3,15,4,10,14,9,13,12,5,11,8,7,1,2"
14481,commdev-image-keyboard-response,416,1483219,learnblock2,566.0999999642372,img/planet15_left.png,15,Community 1,NA,TRUE,f,f,NA,NA,NA,2,6,"6,3,15,4,10,14,9,13,12,5,11,8,7,1,2"
14481,commdev-image-keyboard-response,417,1484476,learnblock2,468.2999999523163,img/planet4_left.png,4,Community 1,NA,TRUE,f,f,NA,NA,NA,2,6,"6,3,15,4,10,14,9,13,12,5,11,8,7,1,2"
14481,commdev-image-keyboard-response,418,1485732,learnblock2,469.19999998807907,img/planet14_right.png,14,Community 2,NA,TRUE,j,j,NA,NA,NA,2,6,"6,3,15,4,10,14,9,13,12,5,11,8,7,1,2"
14481,commdev-image-keyboard-response,419,1486987,learnblock2,497.10000002384186,img/planet9_left.png,9,Community 2,NA,TRUE,f,f,NA,NA,NA,2,6,"6,3,15,4,10,14,9,13,12,5,11,8,7,1,2"
14481,commdev-image-keyboard-response,420,1488240,learnblock2,490.0999999642372,img/planet5_left.png,5,Community 2,NA,TRUE,f,f,NA,NA,NA,2,6,"6,3,15,4,10,14,9,13,12,5,11,8,7,1,2"
14481,commdev-image-keyboard-response,421,1489497,learnblock2,346.7000000476837,img/planet9_left.png,9,Community 2,NA,TRUE,f,f,NA,NA,NA,2,6,"6,3,15,4,10,14,9,13,12,5,11,8,7,1,2"
14481,commdev-image-keyboard-response,422,1490753,learnblock2,436.39999997615814,img/planet12_left.png,12,Community 2,NA,TRUE,f,f,NA,NA,NA,2,6,"6,3,15,4,10,14,9,13,12,5,11,8,7,1,2"
14481,commdev-image-keyboard-response,423,1492010,learnblock2,367.19999998807907,img/planet9_left.png,9,Community 2,NA,TRUE,f,f,NA,NA,NA,2,6,"6,3,15,4,10,14,9,13,12,5,11,8,7,1,2"
14481,commdev-image-keyboard-response,424,1493262,learnblock2,386.60000002384186,img/planet12_left.png,12,Community 2,NA,TRUE,f,f,NA,NA,NA,2,6,"6,3,15,4,10,14,9,13,12,5,11,8,7,1,2"
14481,commdev-image-keyboard-response,425,1494517,learnblock2,398.69999998807907,img/planet9_left.png,9,Community 2,NA,TRUE,f,f,NA,NA,NA,2,6,"6,3,15,4,10,14,9,13,12,5,11,8,7,1,2"
14481,commdev-image-keyboard-response,426,1495770,learnblock2,495.5,img/planet14_left.png,14,Community 2,NA,TRUE,f,f,NA,NA,NA,2,6,"6,3,15,4,10,14,9,13,12,5,11,8,7,1,2"
14481,commdev-image-keyboard-response,427,1497027,learnblock2,288.0999999642372,img/planet5_left.png,5,Community 2,NA,TRUE,f,f,NA,NA,NA,2,6,"6,3,15,4,10,14,9,13,12,5,11,8,7,1,2"
14481,commdev-image-keyboard-response,428,1498283,learnblock2,315.5999999642372,img/planet13_left.png,13,Community 2,NA,TRUE,f,f,NA,NA,NA,2,6,"6,3,15,4,10,14,9,13,12,5,11,8,7,1,2"
14481,commdev-image-keyboard-response,429,1499541,learnblock2,295.5,img/planet9_left.png,9,Community 2,NA,TRUE,f,f,NA,NA,NA,2,6,"6,3,15,4,10,14,9,13,12,5,11,8,7,1,2"
14481,commdev-image-keyboard-response,430,1500796,learnblock2,350.5,img/planet12_left.png,12,Community 2,NA,TRUE,f,f,NA,NA,NA,2,6,"6,3,15,4,10,14,9,13,12,5,11,8,7,1,2"
14481,commdev-image-keyboard-response,431,1502050,learnblock2,343.10000002384186,img/planet9_left.png,9,Community 2,NA,TRUE,f,f,NA,NA,NA,2,6,"6,3,15,4,10,14,9,13,12,5,11,8,7,1,2"
14481,commdev-image-keyboard-response,432,1503304,learnblock2,315.80000001192093,img/planet12_left.png,12,Community 2,NA,TRUE,f,f,NA,NA,NA,2,6,"6,3,15,4,10,14,9,13,12,5,11,8,7,1,2"
14481,commdev-image-keyboard-response,433,1504560,learnblock2,273.30000001192093,img/planet5_left.png,5,Community 2,NA,TRUE,f,f,NA,NA,NA,2,6,"6,3,15,4,10,14,9,13,12,5,11,8,7,1,2"
14481,commdev-image-keyboard-response,434,1505817,learnblock2,505.5,img/planet9_right.png,9,Community 2,NA,FALSE,f,j,NA,NA,NA,2,6,"6,3,15,4,10,14,9,13,12,5,11,8,7,1,2"
14481,commdev-image-keyboard-response,435,1507072,learnblock2,664,img/planet13_left.png,13,Community 2,NA,TRUE,f,f,NA,NA,NA,2,6,"6,3,15,4,10,14,9,13,12,5,11,8,7,1,2"
14481,commdev-image-keyboard-response,436,1508330,learnblock2,489,img/planet9_right.png,9,Community 2,NA,TRUE,j,j,NA,NA,NA,2,6,"6,3,15,4,10,14,9,13,12,5,11,8,7,1,2"
14481,commdev-image-keyboard-response,437,1509584,learnblock2,495,img/planet13_left.png,13,Community 2,NA,FALSE,j,f,NA,NA,NA,2,6,"6,3,15,4,10,14,9,13,12,5,11,8,7,1,2"
14481,commdev-image-keyboard-response,438,1510842,learnblock2,503.80000001192093,img/planet12_right.png,12,Community 2,NA,TRUE,j,j,NA,NA,NA,2,6,"6,3,15,4,10,14,9,13,12,5,11,8,7,1,2"
14481,commdev-image-keyboard-response,439,1512099,learnblock2,453.5,img/planet5_left.png,5,Community 2,NA,TRUE,f,f,NA,NA,NA,2,6,"6,3,15,4,10,14,9,13,12,5,11,8,7,1,2"
14481,commdev-image-keyboard-response,440,1513351,learnblock2,432.7999999523163,img/planet14_left.png,14,Community 2,NA,TRUE,f,f,NA,NA,NA,2,6,"6,3,15,4,10,14,9,13,12,5,11,8,7,1,2"
14481,commdev-image-keyboard-response,441,1514609,learnblock2,466.9000000357628,img/planet5_right.png,5,Community 2,NA,TRUE,j,j,NA,NA,NA,2,6,"6,3,15,4,10,14,9,13,12,5,11,8,7,1,2"
14481,commdev-image-keyboard-response,442,1515865,learnblock2,668.8000000119209,img/planet14_left.png,14,Community 2,NA,TRUE,f,f,NA,NA,NA,2,6,"6,3,15,4,10,14,9,13,12,5,11,8,7,1,2"
14481,commdev-image-keyboard-response,443,1517119,learnblock2,501.69999998807907,img/planet9_left.png,9,Community 2,NA,TRUE,f,f,NA,NA,NA,2,6,"6,3,15,4,10,14,9,13,12,5,11,8,7,1,2"
14481,commdev-image-keyboard-response,444,1518371,learnblock2,373.0999999642372,img/planet5_left.png,5,Community 2,NA,TRUE,f,f,NA,NA,NA,2,6,"6,3,15,4,10,14,9,13,12,5,11,8,7,1,2"
14481,commdev-image-keyboard-response,445,1519628,learnblock2,515.3999999761581,img/planet12_left.png,12,Community 2,NA,TRUE,f,f,NA,NA,NA,2,6,"6,3,15,4,10,14,9,13,12,5,11,8,7,1,2"
14481,commdev-image-keyboard-response,446,1520881,learnblock2,421.19999998807907,img/planet14_left.png,14,Community 2,NA,TRUE,f,f,NA,NA,NA,2,6,"6,3,15,4,10,14,9,13,12,5,11,8,7,1,2"
14481,commdev-image-keyboard-response,447,1522135,learnblock2,409.89999997615814,img/planet4_left.png,4,Community 1,NA,TRUE,f,f,NA,NA,NA,2,6,"6,3,15,4,10,14,9,13,12,5,11,8,7,1,2"
14481,commdev-image-keyboard-response,448,1523389,learnblock2,496.7000000476837,img/planet3_left.png,3,Community 1,NA,TRUE,f,f,NA,NA,NA,2,6,"6,3,15,4,10,14,9,13,12,5,11,8,7,1,2"
14481,commdev-image-keyboard-response,449,1524646,learnblock2,411,img/planet10_left.png,10,Community 1,NA,TRUE,f,f,NA,NA,NA,2,6,"6,3,15,4,10,14,9,13,12,5,11,8,7,1,2"
14481,commdev-image-keyboard-response,450,1525902,learnblock2,533.9000000357628,img/planet11_left.png,11,Community 3,NA,TRUE,f,f,NA,NA,NA,2,6,"6,3,15,4,10,14,9,13,12,5,11,8,7,1,2"
14481,commdev-image-keyboard-response,451,1527156,learnblock2,361.2000000476837,img/planet2_left.png,2,Community 3,NA,TRUE,f,f,NA,NA,NA,2,6,"6,3,15,4,10,14,9,13,12,5,11,8,7,1,2"
14481,commdev-image-keyboard-response,452,1528413,learnblock2,462.5,img/planet1_right.png,1,Community 3,NA,TRUE,j,j,NA,NA,NA,2,6,"6,3,15,4,10,14,9,13,12,5,11,8,7,1,2"
14481,commdev-image-keyboard-response,453,1529668,learnblock2,567.2000000476837,img/planet7_left.png,7,Community 3,NA,TRUE,f,f,NA,NA,NA,2,6,"6,3,15,4,10,14,9,13,12,5,11,8,7,1,2"
14481,commdev-image-keyboard-response,454,1530925,learnblock2,487.69999998807907,img/planet8_right.png,8,Community 3,NA,TRUE,j,j,NA,NA,NA,2,6,"6,3,15,4,10,14,9,13,12,5,11,8,7,1,2"
14481,commdev-image-keyboard-response,455,1532182,learnblock2,419.2999999523163,img/planet7_right.png,7,Community 3,NA,TRUE,j,j,NA,NA,NA,2,6,"6,3,15,4,10,14,9,13,12,5,11,8,7,1,2"
14481,commdev-image-keyboard-response,456,1533437,learnblock2,465.2999999523163,img/planet1_left.png,1,Community 3,NA,TRUE,f,f,NA,NA,NA,2,6,"6,3,15,4,10,14,9,13,12,5,11,8,7,1,2"
14481,commdev-image-keyboard-response,457,1534692,learnblock2,448.69999998807907,img/planet2_right.png,2,Community 3,NA,TRUE,j,j,NA,NA,NA,2,6,"6,3,15,4,10,14,9,13,12,5,11,8,7,1,2"
14481,commdev-image-keyboard-response,458,1535947,learnblock2,556.8000000119209,img/planet11_left.png,11,Community 3,NA,FALSE,j,f,NA,NA,NA,2,6,"6,3,15,4,10,14,9,13,12,5,11,8,7,1,2"
14481,commdev-image-keyboard-response,459,1537203,learnblock2,553.6999999880791,img/planet10_left.png,10,Community 1,NA,TRUE,f,f,NA,NA,NA,2,6,"6,3,15,4,10,14,9,13,12,5,11,8,7,1,2"
14481,commdev-image-keyboard-response,460,1538459,learnblock2,469.69999998807907,img/planet11_right.png,11,Community 3,NA,TRUE,j,j,NA,NA,NA,2,6,"6,3,15,4,10,14,9,13,12,5,11,8,7,1,2"
14481,commdev-image-keyboard-response,461,1539715,learnblock2,426.7000000476837,img/planet7_right.png,7,Community 3,NA,TRUE,j,j,NA,NA,NA,2,6,"6,3,15,4,10,14,9,13,12,5,11,8,7,1,2"
14481,commdev-image-keyboard-response,462,1540973,learnblock2,462.80000001192093,img/planet2_left.png,2,Community 3,NA,TRUE,f,f,NA,NA,NA,2,6,"6,3,15,4,10,14,9,13,12,5,11,8,7,1,2"
14481,commdev-image-keyboard-response,463,1542231,learnblock2,547.1999999880791,img/planet8_left.png,8,Community 3,NA,TRUE,f,f,NA,NA,NA,2,6,"6,3,15,4,10,14,9,13,12,5,11,8,7,1,2"
14481,commdev-image-keyboard-response,464,1543485,learnblock2,516.2999999523163,img/planet2_right.png,2,Community 3,NA,TRUE,j,j,NA,NA,NA,2,6,"6,3,15,4,10,14,9,13,12,5,11,8,7,1,2"
14481,commdev-image-keyboard-response,465,1544737,learnblock2,479.69999998807907,img/planet8_left.png,8,Community 3,NA,TRUE,f,f,NA,NA,NA,2,6,"6,3,15,4,10,14,9,13,12,5,11,8,7,1,2"
14481,commdev-image-keyboard-response,466,1545995,learnblock2,461,img/planet7_left.png,7,Community 3,NA,TRUE,f,f,NA,NA,NA,2,6,"6,3,15,4,10,14,9,13,12,5,11,8,7,1,2"
14481,commdev-image-keyboard-response,467,1547252,learnblock2,407.60000002384186,img/planet2_left.png,2,Community 3,NA,TRUE,f,f,NA,NA,NA,2,6,"6,3,15,4,10,14,9,13,12,5,11,8,7,1,2"
14481,commdev-image-keyboard-response,468,1548510,learnblock2,595.8999999761581,img/planet8_left.png,8,Community 3,NA,TRUE,f,f,NA,NA,NA,2,6,"6,3,15,4,10,14,9,13,12,5,11,8,7,1,2"
14481,commdev-image-keyboard-response,469,1549764,learnblock2,410.80000001192093,img/planet7_right.png,7,Community 3,NA,FALSE,f,j,NA,NA,NA,2,6,"6,3,15,4,10,14,9,13,12,5,11,8,7,1,2"
14481,commdev-image-keyboard-response,470,1551018,learnblock2,441.5,img/planet2_right.png,2,Community 3,NA,TRUE,j,j,NA,NA,NA,2,6,"6,3,15,4,10,14,9,13,12,5,11,8,7,1,2"
14481,commdev-image-keyboard-response,471,1552275,learnblock2,503.80000001192093,img/planet1_right.png,1,Community 3,NA,TRUE,j,j,NA,NA,NA,2,6,"6,3,15,4,10,14,9,13,12,5,11,8,7,1,2"
14481,commdev-image-keyboard-response,472,1553530,learnblock2,391.80000001192093,img/planet7_right.png,7,Community 3,NA,TRUE,j,j,NA,NA,NA,2,6,"6,3,15,4,10,14,9,13,12,5,11,8,7,1,2"
14481,commdev-image-keyboard-response,473,1554787,learnblock2,411.60000002384186,img/planet1_right.png,1,Community 3,NA,TRUE,j,j,NA,NA,NA,2,6,"6,3,15,4,10,14,9,13,12,5,11,8,7,1,2"
14481,commdev-image-keyboard-response,474,1556044,learnblock2,470.80000001192093,img/planet2_left.png,2,Community 3,NA,TRUE,f,f,NA,NA,NA,2,6,"6,3,15,4,10,14,9,13,12,5,11,8,7,1,2"
14481,commdev-image-keyboard-response,475,1557302,learnblock2,493.9000000357628,img/planet8_left.png,8,Community 3,NA,TRUE,f,f,NA,NA,NA,2,6,"6,3,15,4,10,14,9,13,12,5,11,8,7,1,2"
14481,commdev-image-keyboard-response,476,1558560,learnblock2,380.69999998807907,img/planet13_left.png,13,Community 2,NA,TRUE,f,f,NA,NA,NA,2,6,"6,3,15,4,10,14,9,13,12,5,11,8,7,1,2"
14481,commdev-image-keyboard-response,477,1559814,learnblock2,329.10000002384186,img/planet9_left.png,9,Community 2,NA,TRUE,f,f,NA,NA,NA,2,6,"6,3,15,4,10,14,9,13,12,5,11,8,7,1,2"
14481,commdev-image-keyboard-response,478,1561067,learnblock2,507.19999998807907,img/planet14_right.png,14,Community 2,NA,TRUE,j,j,NA,NA,NA,2,6,"6,3,15,4,10,14,9,13,12,5,11,8,7,1,2"
14481,commdev-image-keyboard-response,479,1562321,learnblock2,485.7000000476837,img/planet12_left.png,12,Community 2,NA,TRUE,f,f,NA,NA,NA,2,6,"6,3,15,4,10,14,9,13,12,5,11,8,7,1,2"
14481,commdev-image-keyboard-response,480,1563578,learnblock2,486.19999998807907,img/planet13_left.png,13,Community 2,NA,TRUE,f,f,NA,NA,NA,2,6,"6,3,15,4,10,14,9,13,12,5,11,8,7,1,2"
14481,commdev-image-keyboard-response,481,1564835,learnblock2,376.5,img/planet5_left.png,5,Community 2,NA,TRUE,f,f,NA,NA,NA,2,6,"6,3,15,4,10,14,9,13,12,5,11,8,7,1,2"
14481,commdev-image-keyboard-response,482,1566088,learnblock2,519.3999999761581,img/planet9_right.png,9,Community 2,NA,TRUE,j,j,NA,NA,NA,2,6,"6,3,15,4,10,14,9,13,12,5,11,8,7,1,2"
14481,commdev-image-keyboard-response,483,1567345,learnblock2,476.5999999642372,img/planet12_right.png,12,Community 2,NA,TRUE,j,j,NA,NA,NA,2,6,"6,3,15,4,10,14,9,13,12,5,11,8,7,1,2"
14481,commdev-image-keyboard-response,484,1568603,learnblock2,461.5,img/planet13_left.png,13,Community 2,NA,TRUE,f,f,NA,NA,NA,2,6,"6,3,15,4,10,14,9,13,12,5,11,8,7,1,2"
14481,commdev-image-keyboard-response,485,1569856,learnblock2,388.4000000357628,img/planet9_left.png,9,Community 2,NA,TRUE,f,f,NA,NA,NA,2,6,"6,3,15,4,10,14,9,13,12,5,11,8,7,1,2"
14481,commdev-image-keyboard-response,486,1571114,learnblock2,474.5,img/planet13_right.png,13,Community 2,NA,TRUE,j,j,NA,NA,NA,2,6,"6,3,15,4,10,14,9,13,12,5,11,8,7,1,2"
14481,commdev-image-keyboard-response,487,1572367,learnblock2,430.0999999642372,img/planet12_left.png,12,Community 2,NA,TRUE,f,f,NA,NA,NA,2,6,"6,3,15,4,10,14,9,13,12,5,11,8,7,1,2"
14481,commdev-image-keyboard-response,488,1573624,learnblock2,410,img/planet13_right.png,13,Community 2,NA,TRUE,j,j,NA,NA,NA,2,6,"6,3,15,4,10,14,9,13,12,5,11,8,7,1,2"
14481,commdev-image-keyboard-response,489,1574878,learnblock2,363.80000001192093,img/planet9_left.png,9,Community 2,NA,FALSE,j,f,NA,NA,NA,2,6,"6,3,15,4,10,14,9,13,12,5,11,8,7,1,2"
14481,commdev-image-keyboard-response,490,1576131,learnblock2,590.0999999642372,img/planet13_right.png,13,Community 2,NA,TRUE,j,j,NA,NA,NA,2,6,"6,3,15,4,10,14,9,13,12,5,11,8,7,1,2"
14481,commdev-image-keyboard-response,491,1577386,learnblock2,526.8999999761581,img/planet5_right.png,5,Community 2,NA,TRUE,j,j,NA,NA,NA,2,6,"6,3,15,4,10,14,9,13,12,5,11,8,7,1,2"
14481,commdev-image-keyboard-response,492,1578639,learnblock2,378.80000001192093,img/planet9_right.png,9,Community 2,NA,TRUE,j,j,NA,NA,NA,2,6,"6,3,15,4,10,14,9,13,12,5,11,8,7,1,2"
14481,commdev-image-keyboard-response,493,1579893,learnblock2,397.30000001192093,img/planet13_left.png,13,Community 2,NA,FALSE,j,f,NA,NA,NA,2,6,"6,3,15,4,10,14,9,13,12,5,11,8,7,1,2"
14481,commdev-image-keyboard-response,494,1581150,learnblock2,554.0999999642372,img/planet8_right.png,8,Community 3,NA,TRUE,j,j,NA,NA,NA,2,6,"6,3,15,4,10,14,9,13,12,5,11,8,7,1,2"
14481,commdev-image-keyboard-response,495,1582408,learnblock2,499.39999997615814,img/planet7_left.png,7,Community 3,NA,TRUE,f,f,NA,NA,NA,2,6,"6,3,15,4,10,14,9,13,12,5,11,8,7,1,2"
14481,commdev-image-keyboard-response,496,1583662,learnblock2,580,img/planet1_left.png,1,Community 3,NA,TRUE,f,f,NA,NA,NA,2,6,"6,3,15,4,10,14,9,13,12,5,11,8,7,1,2"
14481,commdev-image-keyboard-response,497,1584915,learnblock2,491.89999997615814,img/planet8_right.png,8,Community 3,NA,TRUE,j,j,NA,NA,NA,2,6,"6,3,15,4,10,14,9,13,12,5,11,8,7,1,2"
14481,commdev-image-keyboard-response,498,1586173,learnblock2,506.80000001192093,img/planet1_right.png,1,Community 3,NA,TRUE,j,j,NA,NA,NA,2,6,"6,3,15,4,10,14,9,13,12,5,11,8,7,1,2"
14481,commdev-image-keyboard-response,499,1587428,learnblock2,473.5,img/planet8_left.png,8,Community 3,NA,TRUE,f,f,NA,NA,NA,2,6,"6,3,15,4,10,14,9,13,12,5,11,8,7,1,2"
14481,commdev-image-keyboard-response,500,1588683,learnblock2,430.39999997615814,img/planet1_right.png,1,Community 3,NA,FALSE,f,j,NA,NA,NA,2,6,"6,3,15,4,10,14,9,13,12,5,11,8,7,1,2"
14481,commdev-image-keyboard-response,501,1589941,learnblock2,519.3999999761581,img/planet7_left.png,7,Community 3,NA,TRUE,f,f,NA,NA,NA,2,6,"6,3,15,4,10,14,9,13,12,5,11,8,7,1,2"
14481,commdev-image-keyboard-response,502,1591198,learnblock2,433.5999999642372,img/planet2_right.png,2,Community 3,NA,TRUE,j,j,NA,NA,NA,2,6,"6,3,15,4,10,14,9,13,12,5,11,8,7,1,2"
14481,commdev-image-keyboard-response,503,1592452,learnblock2,565,img/planet11_right.png,11,Community 3,NA,TRUE,j,j,NA,NA,NA,2,6,"6,3,15,4,10,14,9,13,12,5,11,8,7,1,2"
14481,commdev-image-keyboard-response,504,1593707,learnblock2,546.3000000119209,img/planet1_left.png,1,Community 3,NA,TRUE,f,f,NA,NA,NA,2,6,"6,3,15,4,10,14,9,13,12,5,11,8,7,1,2"
14481,commdev-image-keyboard-response,505,1594960,learnblock2,410.4000000357628,img/planet11_left.png,11,Community 3,NA,TRUE,f,f,NA,NA,NA,2,6,"6,3,15,4,10,14,9,13,12,5,11,8,7,1,2"
14481,commdev-image-keyboard-response,506,1596216,learnblock2,460,img/planet10_right.png,10,Community 1,NA,TRUE,j,j,NA,NA,NA,2,6,"6,3,15,4,10,14,9,13,12,5,11,8,7,1,2"
14481,commdev-image-keyboard-response,507,1597471,learnblock2,668.9000000357628,img/planet6_left.png,6,Community 1,NA,TRUE,f,f,NA,NA,NA,2,6,"6,3,15,4,10,14,9,13,12,5,11,8,7,1,2"
14481,commdev-image-keyboard-response,508,1598729,learnblock2,472.9000000357628,img/planet4_right.png,4,Community 1,NA,TRUE,j,j,NA,NA,NA,2,6,"6,3,15,4,10,14,9,13,12,5,11,8,7,1,2"
14481,commdev-image-keyboard-response,509,1599986,learnblock2,531.5,img/planet3_right.png,3,Community 1,NA,TRUE,j,j,NA,NA,NA,2,6,"6,3,15,4,10,14,9,13,12,5,11,8,7,1,2"
14481,commdev-image-keyboard-response,510,1601243,learnblock2,462.89999997615814,img/planet10_left.png,10,Community 1,NA,TRUE,f,f,NA,NA,NA,2,6,"6,3,15,4,10,14,9,13,12,5,11,8,7,1,2"
14481,commdev-image-keyboard-response,511,1602501,learnblock2,438.80000001192093,img/planet6_left.png,6,Community 1,NA,TRUE,f,f,NA,NA,NA,2,6,"6,3,15,4,10,14,9,13,12,5,11,8,7,1,2"
14481,commdev-image-keyboard-response,512,1603759,learnblock2,472.7000000476837,img/planet10_left.png,10,Community 1,NA,TRUE,f,f,NA,NA,NA,2,6,"6,3,15,4,10,14,9,13,12,5,11,8,7,1,2"
14481,commdev-image-keyboard-response,513,1605012,learnblock2,546.3000000119209,img/planet11_left.png,11,Community 3,NA,TRUE,f,f,NA,NA,NA,2,6,"6,3,15,4,10,14,9,13,12,5,11,8,7,1,2"
14481,commdev-image-keyboard-response,514,1606266,learnblock2,413.80000001192093,img/planet10_left.png,10,Community 1,NA,TRUE,f,f,NA,NA,NA,2,6,"6,3,15,4,10,14,9,13,12,5,11,8,7,1,2"
14481,commdev-image-keyboard-response,515,1607524,learnblock2,378.60000002384186,img/planet15_right.png,15,Community 1,NA,TRUE,j,j,NA,NA,NA,2,6,"6,3,15,4,10,14,9,13,12,5,11,8,7,1,2"
14481,commdev-image-keyboard-response,516,1608777,learnblock2,454.69999998807907,img/planet6_left.png,6,Community 1,NA,TRUE,f,f,NA,NA,NA,2,6,"6,3,15,4,10,14,9,13,12,5,11,8,7,1,2"
14481,commdev-image-keyboard-response,517,1610032,learnblock2,455.19999998807907,img/planet15_right.png,15,Community 1,NA,TRUE,j,j,NA,NA,NA,2,6,"6,3,15,4,10,14,9,13,12,5,11,8,7,1,2"
14481,commdev-image-keyboard-response,518,1611284,learnblock2,587.1000000238419,img/planet4_right.png,4,Community 1,NA,TRUE,j,j,NA,NA,NA,2,6,"6,3,15,4,10,14,9,13,12,5,11,8,7,1,2"
14481,commdev-image-keyboard-response,519,1612542,learnblock2,477.30000001192093,img/planet3_left.png,3,Community 1,NA,TRUE,f,f,NA,NA,NA,2,6,"6,3,15,4,10,14,9,13,12,5,11,8,7,1,2"
14481,commdev-image-keyboard-response,520,1613799,learnblock2,402,img/planet15_right.png,15,Community 1,NA,TRUE,j,j,NA,NA,NA,2,6,"6,3,15,4,10,14,9,13,12,5,11,8,7,1,2"
14481,commdev-image-keyboard-response,521,1615053,learnblock2,488.80000001192093,img/planet6_left.png,6,Community 1,NA,FALSE,j,f,NA,NA,NA,2,6,"6,3,15,4,10,14,9,13,12,5,11,8,7,1,2"
14481,commdev-image-keyboard-response,522,1616307,learnblock2,532.3000000119209,img/planet10_right.png,10,Community 1,NA,TRUE,j,j,NA,NA,NA,2,6,"6,3,15,4,10,14,9,13,12,5,11,8,7,1,2"
14481,commdev-image-keyboard-response,523,1617560,learnblock2,612.8000000119209,img/planet15_right.png,15,Community 1,NA,TRUE,j,j,NA,NA,NA,2,6,"6,3,15,4,10,14,9,13,12,5,11,8,7,1,2"
14481,commdev-image-keyboard-response,524,1618817,learnblock2,451.69999998807907,img/planet3_right.png,3,Community 1,NA,TRUE,j,j,NA,NA,NA,2,6,"6,3,15,4,10,14,9,13,12,5,11,8,7,1,2"
14481,commdev-image-keyboard-response,525,1620074,learnblock2,378,img/planet10_left.png,10,Community 1,NA,TRUE,f,f,NA,NA,NA,2,6,"6,3,15,4,10,14,9,13,12,5,11,8,7,1,2"
14481,commdev-image-keyboard-response,526,1621328,learnblock2,448.9000000357628,img/planet6_right.png,6,Community 1,NA,FALSE,f,j,NA,NA,NA,2,6,"6,3,15,4,10,14,9,13,12,5,11,8,7,1,2"
14481,commdev-image-keyboard-response,527,1622586,learnblock2,524.1999999880791,img/planet3_right.png,3,Community 1,NA,TRUE,j,j,NA,NA,NA,2,6,"6,3,15,4,10,14,9,13,12,5,11,8,7,1,2"
14481,commdev-image-keyboard-response,528,1623841,learnblock2,426.89999997615814,img/planet6_right.png,6,Community 1,NA,TRUE,j,j,NA,NA,NA,2,6,"6,3,15,4,10,14,9,13,12,5,11,8,7,1,2"
14481,commdev-image-keyboard-response,529,1625095,learnblock2,497.89999997615814,img/planet4_left.png,4,Community 1,NA,TRUE,f,f,NA,NA,NA,2,6,"6,3,15,4,10,14,9,13,12,5,11,8,7,1,2"
14481,commdev-image-keyboard-response,530,1626349,learnblock2,456.69999998807907,img/planet15_right.png,15,Community 1,NA,TRUE,j,j,NA,NA,NA,2,6,"6,3,15,4,10,14,9,13,12,5,11,8,7,1,2"
14481,commdev-image-keyboard-response,531,1627607,learnblock2,599.6000000238419,img/planet10_right.png,10,Community 1,NA,TRUE,j,j,NA,NA,NA,2,6,"6,3,15,4,10,14,9,13,12,5,11,8,7,1,2"
14481,commdev-image-keyboard-response,532,1628864,learnblock2,471.69999998807907,img/planet3_right.png,3,Community 1,NA,TRUE,j,j,NA,NA,NA,2,6,"6,3,15,4,10,14,9,13,12,5,11,8,7,1,2"
14481,commdev-image-keyboard-response,533,1630117,learnblock2,447.60000002384186,img/planet15_left.png,15,Community 1,NA,TRUE,f,f,NA,NA,NA,2,6,"6,3,15,4,10,14,9,13,12,5,11,8,7,1,2"
14481,commdev-image-keyboard-response,534,1631370,learnblock2,676.3000000119209,img/planet10_left.png,10,Community 1,NA,TRUE,f,f,NA,NA,NA,2,6,"6,3,15,4,10,14,9,13,12,5,11,8,7,1,2"
14481,commdev-image-keyboard-response,535,1632628,learnblock2,466.30000001192093,img/planet15_right.png,15,Community 1,NA,TRUE,j,j,NA,NA,NA,2,6,"6,3,15,4,10,14,9,13,12,5,11,8,7,1,2"
14481,commdev-image-keyboard-response,536,1633881,learnblock2,478.60000002384186,img/planet6_right.png,6,Community 1,NA,TRUE,j,j,NA,NA,NA,2,6,"6,3,15,4,10,14,9,13,12,5,11,8,7,1,2"
14481,commdev-image-keyboard-response,537,1635136,learnblock2,609.5,img/planet3_right.png,3,Community 1,NA,TRUE,j,j,NA,NA,NA,2,6,"6,3,15,4,10,14,9,13,12,5,11,8,7,1,2"
14481,commdev-image-keyboard-response,538,1636391,learnblock2,324.30000001192093,img/planet15_right.png,15,Community 1,NA,TRUE,j,j,NA,NA,NA,2,6,"6,3,15,4,10,14,9,13,12,5,11,8,7,1,2"
14481,commdev-image-keyboard-response,539,1637648,learnblock2,417.39999997615814,img/planet4_right.png,4,Community 1,NA,TRUE,j,j,NA,NA,NA,2,6,"6,3,15,4,10,14,9,13,12,5,11,8,7,1,2"
14481,commdev-image-keyboard-response,540,1638905,learnblock2,551.6000000238419,img/planet3_left.png,3,Community 1,NA,TRUE,f,f,NA,NA,NA,2,6,"6,3,15,4,10,14,9,13,12,5,11,8,7,1,2"
14481,commdev-image-keyboard-response,541,1640157,learnblock2,541.2000000476837,img/planet15_left.png,15,Community 1,NA,TRUE,f,f,NA,NA,NA,2,6,"6,3,15,4,10,14,9,13,12,5,11,8,7,1,2"
14481,commdev-image-keyboard-response,542,1641414,learnblock2,514.0999999642372,img/planet6_left.png,6,Community 1,NA,TRUE,f,f,NA,NA,NA,2,6,"6,3,15,4,10,14,9,13,12,5,11,8,7,1,2"
14481,commdev-image-keyboard-response,543,1642671,learnblock2,373.30000001192093,img/planet3_left.png,3,Community 1,NA,TRUE,f,f,NA,NA,NA,2,6,"6,3,15,4,10,14,9,13,12,5,11,8,7,1,2"
14481,commdev-image-keyboard-response,544,1643928,learnblock2,491.19999998807907,img/planet15_right.png,15,Community 1,NA,TRUE,j,j,NA,NA,NA,2,6,"6,3,15,4,10,14,9,13,12,5,11,8,7,1,2"
14481,commdev-image-keyboard-response,545,1645186,learnblock2,523.6000000238419,img/planet10_right.png,10,Community 1,NA,TRUE,j,j,NA,NA,NA,2,6,"6,3,15,4,10,14,9,13,12,5,11,8,7,1,2"
14481,commdev-image-keyboard-response,546,1646442,learnblock2,481,img/planet11_left.png,11,Community 3,NA,TRUE,f,f,NA,NA,NA,2,6,"6,3,15,4,10,14,9,13,12,5,11,8,7,1,2"
14481,commdev-image-keyboard-response,547,1647698,learnblock2,451.60000002384186,img/planet1_right.png,1,Community 3,NA,FALSE,f,j,NA,NA,NA,2,6,"6,3,15,4,10,14,9,13,12,5,11,8,7,1,2"
14481,commdev-image-keyboard-response,548,1648955,learnblock2,622.5,img/planet11_right.png,11,Community 3,NA,FALSE,f,j,NA,NA,NA,2,6,"6,3,15,4,10,14,9,13,12,5,11,8,7,1,2"
14481,commdev-image-keyboard-response,549,1650212,learnblock2,550.6999999880791,img/planet2_left.png,2,Community 3,NA,TRUE,f,f,NA,NA,NA,2,6,"6,3,15,4,10,14,9,13,12,5,11,8,7,1,2"
14481,commdev-image-keyboard-response,550,1651467,learnblock2,434.0999999642372,img/planet11_right.png,11,Community 3,NA,TRUE,j,j,NA,NA,NA,2,6,"6,3,15,4,10,14,9,13,12,5,11,8,7,1,2"
14481,commdev-image-keyboard-response,551,1652723,learnblock2,457.30000001192093,img/planet2_right.png,2,Community 3,NA,TRUE,j,j,NA,NA,NA,2,6,"6,3,15,4,10,14,9,13,12,5,11,8,7,1,2"
14481,commdev-image-keyboard-response,552,1653980,learnblock2,376.10000002384186,img/planet1_right.png,1,Community 3,NA,TRUE,j,j,NA,NA,NA,2,6,"6,3,15,4,10,14,9,13,12,5,11,8,7,1,2"
14481,commdev-image-keyboard-response,553,1655236,learnblock2,486.69999998807907,img/planet8_left.png,8,Community 3,NA,TRUE,f,f,NA,NA,NA,2,6,"6,3,15,4,10,14,9,13,12,5,11,8,7,1,2"
14481,commdev-image-keyboard-response,554,1656488,learnblock2,551.1999999880791,img/planet13_right.png,13,Community 2,NA,TRUE,j,j,NA,NA,NA,2,6,"6,3,15,4,10,14,9,13,12,5,11,8,7,1,2"
14481,commdev-image-keyboard-response,555,1657744,learnblock2,528.3999999761581,img/planet9_right.png,9,Community 2,NA,TRUE,j,j,NA,NA,NA,2,6,"6,3,15,4,10,14,9,13,12,5,11,8,7,1,2"
14481,commdev-image-keyboard-response,556,1659001,learnblock2,491.4000000357628,img/planet14_right.png,14,Community 2,NA,TRUE,j,j,NA,NA,NA,2,6,"6,3,15,4,10,14,9,13,12,5,11,8,7,1,2"
14481,commdev-image-keyboard-response,557,1660256,learnblock2,479.2999999523163,img/planet4_right.png,4,Community 1,NA,TRUE,j,j,NA,NA,NA,2,6,"6,3,15,4,10,14,9,13,12,5,11,8,7,1,2"
14481,commdev-image-keyboard-response,558,1661510,learnblock2,484.19999998807907,img/planet3_right.png,3,Community 1,NA,TRUE,j,j,NA,NA,NA,2,6,"6,3,15,4,10,14,9,13,12,5,11,8,7,1,2"
14481,commdev-image-keyboard-response,559,1662762,learnblock2,460.9000000357628,img/planet6_right.png,6,Community 1,NA,TRUE,j,j,NA,NA,NA,2,6,"6,3,15,4,10,14,9,13,12,5,11,8,7,1,2"
14481,commdev-image-keyboard-response,560,1664017,learnblock2,616.6999999880791,img/planet10_left.png,10,Community 1,NA,TRUE,f,f,NA,NA,NA,2,6,"6,3,15,4,10,14,9,13,12,5,11,8,7,1,2"
14481,commdev-image-keyboard-response,561,1665271,learnblock2,549.6999999880791,img/planet15_left.png,15,Community 1,NA,TRUE,f,f,NA,NA,NA,2,6,"6,3,15,4,10,14,9,13,12,5,11,8,7,1,2"
14481,commdev-image-keyboard-response,562,1666525,learnblock2,586.1000000238419,img/planet3_right.png,3,Community 1,NA,TRUE,j,j,NA,NA,NA,2,6,"6,3,15,4,10,14,9,13,12,5,11,8,7,1,2"
14481,commdev-image-keyboard-response,563,1667782,learnblock2,681.4000000357628,img/planet15_left.png,15,Community 1,NA,TRUE,f,f,NA,NA,NA,2,6,"6,3,15,4,10,14,9,13,12,5,11,8,7,1,2"
14481,commdev-image-keyboard-response,564,1669038,learnblock2,500.30000001192093,img/planet6_right.png,6,Community 1,NA,TRUE,j,j,NA,NA,NA,2,6,"6,3,15,4,10,14,9,13,12,5,11,8,7,1,2"
14481,commdev-image-keyboard-response,565,1670295,learnblock2,589.1999999880791,img/planet15_right.png,15,Community 1,NA,FALSE,f,j,NA,NA,NA,2,6,"6,3,15,4,10,14,9,13,12,5,11,8,7,1,2"
14481,commdev-image-keyboard-response,566,1671547,learnblock2,673.6999999880791,img/planet4_left.png,4,Community 1,NA,TRUE,f,f,NA,NA,NA,2,6,"6,3,15,4,10,14,9,13,12,5,11,8,7,1,2"
14481,commdev-image-keyboard-response,567,1672805,learnblock2,577.5,img/planet3_right.png,3,Community 1,NA,TRUE,j,j,NA,NA,NA,2,6,"6,3,15,4,10,14,9,13,12,5,11,8,7,1,2"
14481,commdev-image-keyboard-response,568,1674062,learnblock2,778.2000000476837,img/planet15_right.png,15,Community 1,NA,TRUE,j,j,NA,NA,NA,2,6,"6,3,15,4,10,14,9,13,12,5,11,8,7,1,2"
14481,commdev-image-keyboard-response,569,1675320,learnblock2,551.8000000119209,img/planet10_right.png,10,Community 1,NA,TRUE,j,j,NA,NA,NA,2,6,"6,3,15,4,10,14,9,13,12,5,11,8,7,1,2"
14481,commdev-image-keyboard-response,570,1676577,learnblock2,438.4000000357628,img/planet15_left.png,15,Community 1,NA,FALSE,j,f,NA,NA,NA,2,6,"6,3,15,4,10,14,9,13,12,5,11,8,7,1,2"
14481,commdev-image-keyboard-response,571,1677835,learnblock2,453.7999999523163,img/planet6_right.png,6,Community 1,NA,TRUE,j,j,NA,NA,NA,2,6,"6,3,15,4,10,14,9,13,12,5,11,8,7,1,2"
14481,commdev-image-keyboard-response,572,1679090,learnblock2,608.6999999880791,img/planet10_left.png,10,Community 1,NA,TRUE,f,f,NA,NA,NA,2,6,"6,3,15,4,10,14,9,13,12,5,11,8,7,1,2"
14481,commdev-image-keyboard-response,573,1680345,learnblock2,463.5,img/planet11_left.png,11,Community 3,NA,TRUE,f,f,NA,NA,NA,2,6,"6,3,15,4,10,14,9,13,12,5,11,8,7,1,2"
14481,commdev-image-keyboard-response,574,1681598,learnblock2,548,img/planet1_right.png,1,Community 3,NA,TRUE,j,j,NA,NA,NA,2,6,"6,3,15,4,10,14,9,13,12,5,11,8,7,1,2"
14481,commdev-image-keyboard-response,575,1682851,learnblock2,499.89999997615814,img/planet2_right.png,2,Community 3,NA,TRUE,j,j,NA,NA,NA,2,6,"6,3,15,4,10,14,9,13,12,5,11,8,7,1,2"
14481,commdev-image-keyboard-response,576,1684105,learnblock2,411.7999999523163,img/planet1_right.png,1,Community 3,NA,TRUE,j,j,NA,NA,NA,2,6,"6,3,15,4,10,14,9,13,12,5,11,8,7,1,2"
14481,commdev-image-keyboard-response,577,1685359,learnblock2,535.8999999761581,img/planet8_left.png,8,Community 3,NA,TRUE,f,f,NA,NA,NA,2,6,"6,3,15,4,10,14,9,13,12,5,11,8,7,1,2"
14481,commdev-image-keyboard-response,578,1686616,learnblock2,530.2999999523163,img/planet7_left.png,7,Community 3,NA,TRUE,f,f,NA,NA,NA,2,6,"6,3,15,4,10,14,9,13,12,5,11,8,7,1,2"
14481,commdev-image-keyboard-response,579,1687873,learnblock2,631.2999999523163,img/planet8_right.png,8,Community 3,NA,TRUE,j,j,NA,NA,NA,2,6,"6,3,15,4,10,14,9,13,12,5,11,8,7,1,2"
14481,commdev-image-keyboard-response,580,1689130,learnblock2,548.0999999642372,img/planet2_left.png,2,Community 3,NA,TRUE,f,f,NA,NA,NA,2,6,"6,3,15,4,10,14,9,13,12,5,11,8,7,1,2"
14481,commdev-image-keyboard-response,581,1690384,learnblock2,445.39999997615814,img/planet1_left.png,1,Community 3,NA,TRUE,f,f,NA,NA,NA,2,6,"6,3,15,4,10,14,9,13,12,5,11,8,7,1,2"
14481,commdev-image-keyboard-response,582,1691636,learnblock2,745.5,img/planet11_left.png,11,Community 3,NA,TRUE,f,f,NA,NA,NA,2,6,"6,3,15,4,10,14,9,13,12,5,11,8,7,1,2"
