subject_id,trial_type,trial_index,time_elapsed,block,rt,stimulus,planet,community,response,correct,key_press,learning_correct_response,parse,init_locations,final_locations,browser_interactions,num_comp,planet_map
14396,commdev-instructions,7,30996,NA,4076.4000000059605,"<p>In this game, you are a scientist on board a space shuttle. </p><p> On each mission, you will visit planets all across the universe.</p><img src=""img/controlroom.jpg"" width=300vw>",NA,NA,NA,NA,NA,NA,NA,NA,NA,1,6,"11,12,7,3,1,8,4,2,14,5,9,13,15,6,10"
14396,commdev-instructions,8,34495,NA,1426.699999988079,"<p>Here are a few planets you might see:</p><img src=""img/practice1.png"" width=200vw><img src=""img/practice2.png"" width=200vw><img src=""img/practice3.png"" width=200vw>",NA,NA,NA,NA,NA,NA,NA,NA,NA,1,6,"11,12,7,3,1,8,4,2,14,5,9,13,15,6,10"
14396,commdev-instructions,9,43013,NA,1117.5,"<p>Your job as a scientist is to record which direction the winds are moving on each planet.</p><p>There are two types of wind directions:</p><img src=""img/practice1_left.png"" width=200vw><img src=""img/practice1_right.png"" width=200vw>",NA,NA,NA,NA,NA,NA,NA,NA,NA,1,6,"11,12,7,3,1,8,4,2,14,5,9,13,15,6,10"
14396,commdev-instructions,10,50596,NA,2700.6000000089407,"<p>If the winds are moving this way, press the letter <strong>F</strong> on the keyboard as fast as you can.</p><img src=""img/leftwind.png"" width=250vw>",NA,NA,NA,NA,NA,NA,NA,NA,NA,1,6,"11,12,7,3,1,8,4,2,14,5,9,13,15,6,10"
14396,commdev-instructions,11,56179,NA,1083.8999999910593,"<p>If the winds are moving this way, press the letter <strong>J</strong> on the keyboard as fast as you can.</p><img src=""img/rightwind.png"" width=350vw>",NA,NA,NA,NA,NA,NA,NA,NA,NA,1,6,"11,12,7,3,1,8,4,2,14,5,9,13,15,6,10"
14396,commdev-instructions,12,62062,NA,1463.5999999940395,<p>You will have 1 second to respond. Try to respond before the time runs out!,NA,NA,NA,NA,NA,NA,NA,NA,NA,1,6,"11,12,7,3,1,8,4,2,14,5,9,13,15,6,10"
14396,commdev-instructions,13,68562,NA,1067.3999999910593,<p>The planets you will visit will look different from each other.</p><p>You should respond <strong>only</strong> based on wind direction.,NA,NA,NA,NA,NA,NA,NA,NA,NA,1,6,"11,12,7,3,1,8,4,2,14,5,9,13,15,6,10"
14396,commdev-instructions,14,75680,NA,1945,"<p> Ready to start the practice round? </p><p> Remember, press <strong>F</strong> or <strong>J</strong> depending on the wind direction.<br><img src=""img/categorize_planet_example.png""",NA,NA,NA,NA,NA,NA,NA,NA,NA,1,6,"11,12,7,3,1,8,4,2,14,5,9,13,15,6,10"
14396,commdev-instructions,26,127111,NA,941.7000000029802,"<p>Great, now try a short practice mission. </p><p> This time, you will have 1 second to respond and you won't know whether you pressed the right or wrong key for each planet.</p>",NA,NA,NA,NA,NA,NA,NA,NA,NA,1,6,"11,12,7,3,1,8,4,2,14,5,9,13,15,6,10"
14396,commdev-image-keyboard-response,27,128475,practice,null,img/practice1_left.png,NA,Number not found in mappings,NA,FALSE,null,f,NA,NA,NA,1,6,"11,12,7,3,1,8,4,2,14,5,9,13,15,6,10"
14396,commdev-image-keyboard-response,28,129732,practice,26.700000002980232,img/practice2_right.png,NA,Number not found in mappings,NA,FALSE,f,j,NA,NA,NA,1,6,"11,12,7,3,1,8,4,2,14,5,9,13,15,6,10"
14396,commdev-image-keyboard-response,29,130985,practice,434.5,img/practice3_left.png,NA,Number not found in mappings,NA,FALSE,j,f,NA,NA,NA,1,6,"11,12,7,3,1,8,4,2,14,5,9,13,15,6,10"
14396,commdev-image-keyboard-response,30,132238,practice,129.6000000089407,img/practice2_left.png,NA,Number not found in mappings,NA,FALSE,j,f,NA,NA,NA,1,6,"11,12,7,3,1,8,4,2,14,5,9,13,15,6,10"
14396,commdev-image-keyboard-response,31,133496,practice,66.6000000089407,img/practice1_left.png,NA,Number not found in mappings,NA,TRUE,f,f,NA,NA,NA,1,6,"11,12,7,3,1,8,4,2,14,5,9,13,15,6,10"
14396,commdev-image-keyboard-response,32,134753,practice,765,img/practice3_right.png,NA,Number not found in mappings,NA,TRUE,j,j,NA,NA,NA,1,6,"11,12,7,3,1,8,4,2,14,5,9,13,15,6,10"
14396,commdev-image-keyboard-response,33,136010,practice,578.8999999910593,img/practice4_left.png,NA,Number not found in mappings,NA,TRUE,f,f,NA,NA,NA,1,6,"11,12,7,3,1,8,4,2,14,5,9,13,15,6,10"
14396,commdev-image-keyboard-response,34,137263,practice,739.5999999940395,img/practice1_left.png,NA,Number not found in mappings,NA,TRUE,f,f,NA,NA,NA,1,6,"11,12,7,3,1,8,4,2,14,5,9,13,15,6,10"
14396,commdev-instructions,35,147578,NA,763.5,"<p>Great job with the practice round.</p><p>During real missions, you won't know whether you pressed the right or wrong key for each planet.</p><p>But between missions, we will tell you how you did overall.</p>",NA,NA,NA,NA,NA,NA,NA,NA,NA,1,6,"11,12,7,3,1,8,4,2,14,5,9,13,15,6,10"
14396,commdev-instructions,36,156895,NA,1072.0999999940395,<p>Try your best! You will be paid a bonus based on how many correct responses you make!</p><p>Responses that are too slow will not count toward your bonus.</p>,NA,NA,NA,NA,NA,NA,NA,NA,NA,1,6,"11,12,7,3,1,8,4,2,14,5,9,13,15,6,10"
14396,commdev-instructions,37,163645,NA,547.7999999970198,"<p>You are almost ready to start the real game.</p><p> First, we are going to ask you some questions about how the game works.</p>",NA,NA,NA,NA,NA,NA,NA,NA,NA,1,6,"11,12,7,3,1,8,4,2,14,5,9,13,15,6,10"
14396,commdev-instructions,46,240628,NA,1930.5999999940395,"<p> Nice work! It is now time to start the real game.<p></p>You will go on two missions to record wind directions of different planets.<p></p>Each one will take about 5 minutes. You will get to take a break between missions.<p><p> Remember, press <strong>F</strong> or <strong>J</strong> depending on the wind direction. Good luck!<br><img src=""img/categorize_planet_example.png""",NA,NA,NA,NA,NA,NA,NA,NA,NA,1,6,"11,12,7,3,1,8,4,2,14,5,9,13,15,6,10"
14396,commdev-image-keyboard-response,48,246423,learnblock1,1000.7000000029802,img/planet9_left.png,9,Community 3,NA,FALSE,j,f,NA,NA,NA,1,6,"11,12,7,3,1,8,4,2,14,5,9,13,15,6,10"
14396,commdev-image-keyboard-response,49,247681,learnblock1,222.40000000596046,img/planet6_right.png,6,Community 3,NA,FALSE,f,j,NA,NA,NA,1,6,"11,12,7,3,1,8,4,2,14,5,9,13,15,6,10"
14396,commdev-image-keyboard-response,50,248934,learnblock1,1115.3999999910593,img/planet9_right.png,9,Community 3,NA,TRUE,j,j,NA,NA,NA,1,6,"11,12,7,3,1,8,4,2,14,5,9,13,15,6,10"
14396,commdev-image-keyboard-response,51,250187,learnblock1,929.7999999970198,img/planet1_left.png,1,Community 1,NA,TRUE,f,f,NA,NA,NA,1,6,"11,12,7,3,1,8,4,2,14,5,9,13,15,6,10"
14396,commdev-image-keyboard-response,52,251444,learnblock1,938,img/planet11_right.png,11,Community 1,NA,TRUE,j,j,NA,NA,NA,1,6,"11,12,7,3,1,8,4,2,14,5,9,13,15,6,10"
14396,commdev-image-keyboard-response,53,252697,learnblock1,764,img/planet7_left.png,7,Community 1,NA,TRUE,f,f,NA,NA,NA,1,6,"11,12,7,3,1,8,4,2,14,5,9,13,15,6,10"
14396,commdev-image-keyboard-response,54,253950,learnblock1,761.7999999970198,img/planet3_left.png,3,Community 1,NA,FALSE,j,f,NA,NA,NA,1,6,"11,12,7,3,1,8,4,2,14,5,9,13,15,6,10"
14396,commdev-image-keyboard-response,55,255207,learnblock1,240.5,img/planet8_left.png,8,Community 2,NA,TRUE,f,f,NA,NA,NA,1,6,"11,12,7,3,1,8,4,2,14,5,9,13,15,6,10"
14396,commdev-image-keyboard-response,56,256459,learnblock1,182.90000000596046,img/planet5_right.png,5,Community 2,NA,FALSE,f,j,NA,NA,NA,1,6,"11,12,7,3,1,8,4,2,14,5,9,13,15,6,10"
14396,commdev-image-keyboard-response,57,257715,learnblock1,831.9000000059605,img/planet14_left.png,14,Community 2,NA,TRUE,f,f,NA,NA,NA,1,6,"11,12,7,3,1,8,4,2,14,5,9,13,15,6,10"
14396,commdev-image-keyboard-response,58,258970,learnblock1,767.1000000089407,img/planet4_right.png,4,Community 2,NA,TRUE,j,j,NA,NA,NA,1,6,"11,12,7,3,1,8,4,2,14,5,9,13,15,6,10"
14396,commdev-image-keyboard-response,59,260223,learnblock1,1059.5,img/planet5_right.png,5,Community 2,NA,TRUE,j,j,NA,NA,NA,1,6,"11,12,7,3,1,8,4,2,14,5,9,13,15,6,10"
14396,commdev-image-keyboard-response,60,261477,learnblock1,782.7000000029802,img/planet4_right.png,4,Community 2,NA,TRUE,j,j,NA,NA,NA,1,6,"11,12,7,3,1,8,4,2,14,5,9,13,15,6,10"
14396,commdev-image-keyboard-response,61,262734,learnblock1,668.2999999970198,img/planet14_left.png,14,Community 2,NA,TRUE,f,f,NA,NA,NA,1,6,"11,12,7,3,1,8,4,2,14,5,9,13,15,6,10"
14396,commdev-image-keyboard-response,62,263988,learnblock1,786.2000000029802,img/planet5_right.png,5,Community 2,NA,FALSE,f,j,NA,NA,NA,1,6,"11,12,7,3,1,8,4,2,14,5,9,13,15,6,10"
14396,commdev-image-keyboard-response,63,265241,learnblock1,735.5999999940395,img/planet4_right.png,4,Community 2,NA,TRUE,j,j,NA,NA,NA,1,6,"11,12,7,3,1,8,4,2,14,5,9,13,15,6,10"
14396,commdev-image-keyboard-response,64,266497,learnblock1,757.7000000029802,img/planet8_left.png,8,Community 2,NA,TRUE,f,f,NA,NA,NA,1,6,"11,12,7,3,1,8,4,2,14,5,9,13,15,6,10"
14396,commdev-image-keyboard-response,65,267754,learnblock1,832.2999999970198,img/planet3_right.png,3,Community 1,NA,TRUE,j,j,NA,NA,NA,1,6,"11,12,7,3,1,8,4,2,14,5,9,13,15,6,10"
14396,commdev-image-keyboard-response,66,269007,learnblock1,1142.5999999940395,img/planet11_right.png,11,Community 1,NA,FALSE,f,j,NA,NA,NA,1,6,"11,12,7,3,1,8,4,2,14,5,9,13,15,6,10"
14396,commdev-image-keyboard-response,67,270260,learnblock1,741.6000000089407,img/planet1_left.png,1,Community 1,NA,FALSE,j,f,NA,NA,NA,1,6,"11,12,7,3,1,8,4,2,14,5,9,13,15,6,10"
14396,commdev-image-keyboard-response,68,271517,learnblock1,102.20000000298023,img/planet9_left.png,9,Community 3,NA,TRUE,f,f,NA,NA,NA,1,6,"11,12,7,3,1,8,4,2,14,5,9,13,15,6,10"
14396,commdev-image-keyboard-response,69,272771,learnblock1,208.90000000596046,img/planet6_right.png,6,Community 3,NA,FALSE,f,j,NA,NA,NA,1,6,"11,12,7,3,1,8,4,2,14,5,9,13,15,6,10"
14396,commdev-image-keyboard-response,70,274028,learnblock1,839.2999999970198,img/planet9_right.png,9,Community 3,NA,TRUE,j,j,NA,NA,NA,1,6,"11,12,7,3,1,8,4,2,14,5,9,13,15,6,10"
14396,commdev-image-keyboard-response,71,275283,learnblock1,1039.9000000059605,img/planet1_left.png,1,Community 1,NA,TRUE,f,f,NA,NA,NA,1,6,"11,12,7,3,1,8,4,2,14,5,9,13,15,6,10"
14396,commdev-image-keyboard-response,72,276536,learnblock1,983.9000000059605,img/planet11_left.png,11,Community 1,NA,TRUE,f,f,NA,NA,NA,1,6,"11,12,7,3,1,8,4,2,14,5,9,13,15,6,10"
14396,commdev-image-keyboard-response,73,277792,learnblock1,936.9000000059605,img/planet7_right.png,7,Community 1,NA,TRUE,j,j,NA,NA,NA,1,6,"11,12,7,3,1,8,4,2,14,5,9,13,15,6,10"
14396,commdev-image-keyboard-response,74,279045,learnblock1,891.2000000029802,img/planet3_left.png,3,Community 1,NA,TRUE,f,f,NA,NA,NA,1,6,"11,12,7,3,1,8,4,2,14,5,9,13,15,6,10"
14396,commdev-image-keyboard-response,75,280302,learnblock1,906.0999999940395,img/planet8_right.png,8,Community 2,NA,TRUE,j,j,NA,NA,NA,1,6,"11,12,7,3,1,8,4,2,14,5,9,13,15,6,10"
14396,commdev-image-keyboard-response,76,281559,learnblock1,573.2000000029802,img/planet4_left.png,4,Community 2,NA,TRUE,f,f,NA,NA,NA,1,6,"11,12,7,3,1,8,4,2,14,5,9,13,15,6,10"
14396,commdev-image-keyboard-response,77,282817,learnblock1,897.9000000059605,img/planet14_left.png,14,Community 2,NA,TRUE,f,f,NA,NA,NA,1,6,"11,12,7,3,1,8,4,2,14,5,9,13,15,6,10"
14396,commdev-image-keyboard-response,78,284072,learnblock1,925.0999999940395,img/planet5_right.png,5,Community 2,NA,TRUE,j,j,NA,NA,NA,1,6,"11,12,7,3,1,8,4,2,14,5,9,13,15,6,10"
14396,commdev-image-keyboard-response,79,285326,learnblock1,849.9000000059605,img/planet2_right.png,2,Community 2,NA,TRUE,j,j,NA,NA,NA,1,6,"11,12,7,3,1,8,4,2,14,5,9,13,15,6,10"
14396,commdev-image-keyboard-response,80,286583,learnblock1,620.9000000059605,img/planet14_right.png,14,Community 2,NA,FALSE,f,j,NA,NA,NA,1,6,"11,12,7,3,1,8,4,2,14,5,9,13,15,6,10"
14396,commdev-image-keyboard-response,81,287841,learnblock1,591.9000000059605,img/planet8_right.png,8,Community 2,NA,TRUE,j,j,NA,NA,NA,1,6,"11,12,7,3,1,8,4,2,14,5,9,13,15,6,10"
14396,commdev-image-keyboard-response,82,289097,learnblock1,690,img/planet14_left.png,14,Community 2,NA,TRUE,f,f,NA,NA,NA,1,6,"11,12,7,3,1,8,4,2,14,5,9,13,15,6,10"
14396,commdev-image-keyboard-response,83,290349,learnblock1,552.2000000029802,img/planet8_left.png,8,Community 2,NA,FALSE,j,f,NA,NA,NA,1,6,"11,12,7,3,1,8,4,2,14,5,9,13,15,6,10"
14396,commdev-image-keyboard-response,84,291606,learnblock1,545.5,img/planet5_right.png,5,Community 2,NA,FALSE,f,j,NA,NA,NA,1,6,"11,12,7,3,1,8,4,2,14,5,9,13,15,6,10"
14396,commdev-image-keyboard-response,85,292862,learnblock1,602.2999999970198,img/planet4_left.png,4,Community 2,NA,FALSE,j,f,NA,NA,NA,1,6,"11,12,7,3,1,8,4,2,14,5,9,13,15,6,10"
14396,commdev-image-keyboard-response,86,294118,learnblock1,694.8999999910593,img/planet14_right.png,14,Community 2,NA,TRUE,j,j,NA,NA,NA,1,6,"11,12,7,3,1,8,4,2,14,5,9,13,15,6,10"
14396,commdev-image-keyboard-response,87,295374,learnblock1,906.7999999970198,img/planet4_right.png,4,Community 2,NA,FALSE,f,j,NA,NA,NA,1,6,"11,12,7,3,1,8,4,2,14,5,9,13,15,6,10"
14396,commdev-image-keyboard-response,88,296626,learnblock1,992,img/planet8_right.png,8,Community 2,NA,FALSE,f,j,NA,NA,NA,1,6,"11,12,7,3,1,8,4,2,14,5,9,13,15,6,10"
14396,commdev-image-keyboard-response,89,297881,learnblock1,900.0999999940395,img/planet14_right.png,14,Community 2,NA,TRUE,j,j,NA,NA,NA,1,6,"11,12,7,3,1,8,4,2,14,5,9,13,15,6,10"
14396,commdev-image-keyboard-response,90,299137,learnblock1,679.1000000089407,img/planet2_left.png,2,Community 2,NA,FALSE,j,f,NA,NA,NA,1,6,"11,12,7,3,1,8,4,2,14,5,9,13,15,6,10"
14396,commdev-image-keyboard-response,91,300393,learnblock1,900,img/planet14_right.png,14,Community 2,NA,TRUE,j,j,NA,NA,NA,1,6,"11,12,7,3,1,8,4,2,14,5,9,13,15,6,10"
14396,commdev-image-keyboard-response,92,301650,learnblock1,1193.1000000089407,img/planet8_left.png,8,Community 2,NA,TRUE,f,f,NA,NA,NA,1,6,"11,12,7,3,1,8,4,2,14,5,9,13,15,6,10"
14396,commdev-image-keyboard-response,93,302907,learnblock1,989.2999999970198,img/planet14_right.png,14,Community 2,NA,TRUE,j,j,NA,NA,NA,1,6,"11,12,7,3,1,8,4,2,14,5,9,13,15,6,10"
14396,commdev-image-keyboard-response,94,304162,learnblock1,765.1000000089407,img/planet8_left.png,8,Community 2,NA,TRUE,f,f,NA,NA,NA,1,6,"11,12,7,3,1,8,4,2,14,5,9,13,15,6,10"
14396,commdev-image-keyboard-response,95,305416,learnblock1,null,img/planet14_left.png,14,Community 2,NA,FALSE,null,f,NA,NA,NA,1,6,"11,12,7,3,1,8,4,2,14,5,9,13,15,6,10"
14396,commdev-image-keyboard-response,96,306671,learnblock1,99.8999999910593,img/planet8_left.png,8,Community 2,NA,FALSE,j,f,NA,NA,NA,1,6,"11,12,7,3,1,8,4,2,14,5,9,13,15,6,10"
14396,commdev-image-keyboard-response,97,307928,learnblock1,91.79999999701977,img/planet4_right.png,4,Community 2,NA,TRUE,j,j,NA,NA,NA,1,6,"11,12,7,3,1,8,4,2,14,5,9,13,15,6,10"
14396,commdev-image-keyboard-response,98,309181,learnblock1,56.8999999910593,img/planet2_left.png,2,Community 2,NA,FALSE,j,f,NA,NA,NA,1,6,"11,12,7,3,1,8,4,2,14,5,9,13,15,6,10"
14396,commdev-image-keyboard-response,99,310437,learnblock1,34.80000001192093,img/planet4_right.png,4,Community 2,NA,FALSE,f,j,NA,NA,NA,1,6,"11,12,7,3,1,8,4,2,14,5,9,13,15,6,10"
14396,commdev-image-keyboard-response,100,311694,learnblock1,81.40000000596046,img/planet8_left.png,8,Community 2,NA,FALSE,j,f,NA,NA,NA,1,6,"11,12,7,3,1,8,4,2,14,5,9,13,15,6,10"
14396,commdev-image-keyboard-response,101,312952,learnblock1,64.80000001192093,img/planet4_left.png,4,Community 2,NA,TRUE,f,f,NA,NA,NA,1,6,"11,12,7,3,1,8,4,2,14,5,9,13,15,6,10"
14396,commdev-image-keyboard-response,102,314208,learnblock1,949.1000000089407,img/planet2_left.png,2,Community 2,NA,TRUE,f,f,NA,NA,NA,1,6,"11,12,7,3,1,8,4,2,14,5,9,13,15,6,10"
14396,commdev-image-keyboard-response,103,315459,learnblock1,693,img/planet13_right.png,13,Community 3,NA,TRUE,j,j,NA,NA,NA,1,6,"11,12,7,3,1,8,4,2,14,5,9,13,15,6,10"
14396,commdev-image-keyboard-response,104,316717,learnblock1,59.3999999910593,img/planet2_left.png,2,Community 2,NA,FALSE,j,f,NA,NA,NA,1,6,"11,12,7,3,1,8,4,2,14,5,9,13,15,6,10"
14396,commdev-image-keyboard-response,105,317970,learnblock1,52.3999999910593,img/planet14_left.png,14,Community 2,NA,FALSE,j,f,NA,NA,NA,1,6,"11,12,7,3,1,8,4,2,14,5,9,13,15,6,10"
14396,commdev-image-keyboard-response,106,319222,learnblock1,140.6000000089407,img/planet4_left.png,4,Community 2,NA,FALSE,j,f,NA,NA,NA,1,6,"11,12,7,3,1,8,4,2,14,5,9,13,15,6,10"
14396,commdev-image-keyboard-response,107,320475,learnblock1,87.59999999403954,img/planet8_right.png,8,Community 2,NA,TRUE,j,j,NA,NA,NA,1,6,"11,12,7,3,1,8,4,2,14,5,9,13,15,6,10"
14396,commdev-image-keyboard-response,108,321731,learnblock1,44.70000000298023,img/planet3_right.png,3,Community 1,NA,FALSE,f,j,NA,NA,NA,1,6,"11,12,7,3,1,8,4,2,14,5,9,13,15,6,10"
14396,commdev-image-keyboard-response,109,322984,learnblock1,33.400000005960464,img/planet12_right.png,12,Community 1,NA,FALSE,f,j,NA,NA,NA,1,6,"11,12,7,3,1,8,4,2,14,5,9,13,15,6,10"
14396,commdev-image-keyboard-response,110,324237,learnblock1,157.09999999403954,img/planet7_left.png,7,Community 1,NA,FALSE,j,f,NA,NA,NA,1,6,"11,12,7,3,1,8,4,2,14,5,9,13,15,6,10"
14396,commdev-image-keyboard-response,111,325495,learnblock1,209.79999999701977,img/planet12_left.png,12,Community 1,NA,FALSE,j,f,NA,NA,NA,1,6,"11,12,7,3,1,8,4,2,14,5,9,13,15,6,10"
14396,commdev-image-keyboard-response,112,326748,learnblock1,37.8999999910593,img/planet3_left.png,3,Community 1,NA,TRUE,f,f,NA,NA,NA,1,6,"11,12,7,3,1,8,4,2,14,5,9,13,15,6,10"
14396,commdev-image-keyboard-response,113,328001,learnblock1,233.3999999910593,img/planet7_right.png,7,Community 1,NA,TRUE,j,j,NA,NA,NA,1,6,"11,12,7,3,1,8,4,2,14,5,9,13,15,6,10"
14396,commdev-image-keyboard-response,114,329253,learnblock1,195.8999999910593,img/planet11_left.png,11,Community 1,NA,FALSE,j,f,NA,NA,NA,1,6,"11,12,7,3,1,8,4,2,14,5,9,13,15,6,10"
14396,commdev-image-keyboard-response,115,330511,learnblock1,4,img/planet7_left.png,7,Community 1,NA,FALSE,j,f,NA,NA,NA,1,6,"11,12,7,3,1,8,4,2,14,5,9,13,15,6,10"
14396,commdev-image-keyboard-response,116,331764,learnblock1,795.5,img/planet3_right.png,3,Community 1,NA,TRUE,j,j,NA,NA,NA,1,6,"11,12,7,3,1,8,4,2,14,5,9,13,15,6,10"
14396,commdev-image-keyboard-response,117,333020,learnblock1,959.2000000029802,img/planet8_right.png,8,Community 2,NA,TRUE,j,j,NA,NA,NA,1,6,"11,12,7,3,1,8,4,2,14,5,9,13,15,6,10"
14396,commdev-image-keyboard-response,118,334273,learnblock1,518.0999999940395,img/planet5_right.png,5,Community 2,NA,TRUE,j,j,NA,NA,NA,1,6,"11,12,7,3,1,8,4,2,14,5,9,13,15,6,10"
14396,commdev-image-keyboard-response,119,335528,learnblock1,41,img/planet14_left.png,14,Community 2,NA,FALSE,j,f,NA,NA,NA,1,6,"11,12,7,3,1,8,4,2,14,5,9,13,15,6,10"
14396,commdev-image-keyboard-response,120,336786,learnblock1,36.20000000298023,img/planet5_left.png,5,Community 2,NA,FALSE,j,f,NA,NA,NA,1,6,"11,12,7,3,1,8,4,2,14,5,9,13,15,6,10"
14396,commdev-image-keyboard-response,121,338041,learnblock1,104.40000000596046,img/planet14_left.png,14,Community 2,NA,FALSE,j,f,NA,NA,NA,1,6,"11,12,7,3,1,8,4,2,14,5,9,13,15,6,10"
14396,commdev-image-keyboard-response,122,339296,learnblock1,934.2999999970198,img/planet5_left.png,5,Community 2,NA,TRUE,f,f,NA,NA,NA,1,6,"11,12,7,3,1,8,4,2,14,5,9,13,15,6,10"
14396,commdev-image-keyboard-response,123,340551,learnblock1,17.399999991059303,img/planet8_right.png,8,Community 2,NA,TRUE,j,j,NA,NA,NA,1,6,"11,12,7,3,1,8,4,2,14,5,9,13,15,6,10"
14396,commdev-image-keyboard-response,124,341806,learnblock1,50.8999999910593,img/planet3_right.png,3,Community 1,NA,TRUE,j,j,NA,NA,NA,1,6,"11,12,7,3,1,8,4,2,14,5,9,13,15,6,10"
14396,commdev-image-keyboard-response,125,343058,learnblock1,62.20000000298023,img/planet12_right.png,12,Community 1,NA,TRUE,j,j,NA,NA,NA,1,6,"11,12,7,3,1,8,4,2,14,5,9,13,15,6,10"
14396,commdev-image-keyboard-response,126,344313,learnblock1,92.40000000596046,img/planet7_right.png,7,Community 1,NA,TRUE,j,j,NA,NA,NA,1,6,"11,12,7,3,1,8,4,2,14,5,9,13,15,6,10"
14396,commdev-image-keyboard-response,127,345569,learnblock1,47.900000005960464,img/planet1_left.png,1,Community 1,NA,FALSE,j,f,NA,NA,NA,1,6,"11,12,7,3,1,8,4,2,14,5,9,13,15,6,10"
14396,commdev-image-keyboard-response,128,346826,learnblock1,229,img/planet7_left.png,7,Community 1,NA,TRUE,f,f,NA,NA,NA,1,6,"11,12,7,3,1,8,4,2,14,5,9,13,15,6,10"
14396,commdev-image-keyboard-response,129,348081,learnblock1,20.400000005960464,img/planet12_left.png,12,Community 1,NA,FALSE,j,f,NA,NA,NA,1,6,"11,12,7,3,1,8,4,2,14,5,9,13,15,6,10"
14396,commdev-image-keyboard-response,130,349335,learnblock1,172.5,img/planet1_left.png,1,Community 1,NA,TRUE,f,f,NA,NA,NA,1,6,"11,12,7,3,1,8,4,2,14,5,9,13,15,6,10"
14396,commdev-image-keyboard-response,131,350587,learnblock1,5.799999997019768,img/planet9_right.png,9,Community 3,NA,FALSE,f,j,NA,NA,NA,1,6,"11,12,7,3,1,8,4,2,14,5,9,13,15,6,10"
14396,commdev-image-keyboard-response,132,351840,learnblock1,85.6000000089407,img/planet1_right.png,1,Community 1,NA,TRUE,j,j,NA,NA,NA,1,6,"11,12,7,3,1,8,4,2,14,5,9,13,15,6,10"
14396,commdev-image-keyboard-response,133,353096,learnblock1,163.79999999701977,img/planet11_left.png,11,Community 1,NA,FALSE,j,f,NA,NA,NA,1,6,"11,12,7,3,1,8,4,2,14,5,9,13,15,6,10"
14396,commdev-image-keyboard-response,134,354354,learnblock1,323.90000000596046,img/planet7_right.png,7,Community 1,NA,FALSE,f,j,NA,NA,NA,1,6,"11,12,7,3,1,8,4,2,14,5,9,13,15,6,10"
14396,commdev-image-keyboard-response,135,355606,learnblock1,965.7999999970198,img/planet1_right.png,1,Community 1,NA,TRUE,j,j,NA,NA,NA,1,6,"11,12,7,3,1,8,4,2,14,5,9,13,15,6,10"
14396,commdev-image-keyboard-response,136,356863,learnblock1,1083.9000000059605,img/planet7_right.png,7,Community 1,NA,TRUE,j,j,NA,NA,NA,1,6,"11,12,7,3,1,8,4,2,14,5,9,13,15,6,10"
14396,commdev-image-keyboard-response,137,358118,learnblock1,893.4000000059605,img/planet12_right.png,12,Community 1,NA,TRUE,j,j,NA,NA,NA,1,6,"11,12,7,3,1,8,4,2,14,5,9,13,15,6,10"
14396,commdev-image-keyboard-response,138,359371,learnblock1,1031.1000000089407,img/planet1_right.png,1,Community 1,NA,TRUE,j,j,NA,NA,NA,1,6,"11,12,7,3,1,8,4,2,14,5,9,13,15,6,10"
14396,commdev-image-keyboard-response,139,360628,learnblock1,573.2999999970198,img/planet9_left.png,9,Community 3,NA,FALSE,j,f,NA,NA,NA,1,6,"11,12,7,3,1,8,4,2,14,5,9,13,15,6,10"
14396,commdev-image-keyboard-response,140,361883,learnblock1,1136.7000000029802,img/planet1_left.png,1,Community 1,NA,TRUE,f,f,NA,NA,NA,1,6,"11,12,7,3,1,8,4,2,14,5,9,13,15,6,10"
14396,commdev-image-keyboard-response,141,363138,learnblock1,622.7000000029802,img/planet11_right.png,11,Community 1,NA,FALSE,f,j,NA,NA,NA,1,6,"11,12,7,3,1,8,4,2,14,5,9,13,15,6,10"
14396,commdev-image-keyboard-response,142,364395,learnblock1,49.1000000089407,img/planet7_left.png,7,Community 1,NA,FALSE,j,f,NA,NA,NA,1,6,"11,12,7,3,1,8,4,2,14,5,9,13,15,6,10"
14396,commdev-image-keyboard-response,143,365651,learnblock1,1052.7999999970198,img/planet11_left.png,11,Community 1,NA,TRUE,f,f,NA,NA,NA,1,6,"11,12,7,3,1,8,4,2,14,5,9,13,15,6,10"
14396,commdev-image-keyboard-response,144,366906,learnblock1,513.2999999970198,img/planet3_left.png,3,Community 1,NA,FALSE,j,f,NA,NA,NA,1,6,"11,12,7,3,1,8,4,2,14,5,9,13,15,6,10"
14396,commdev-image-keyboard-response,145,368161,learnblock1,81.70000000298023,img/planet11_right.png,11,Community 1,NA,TRUE,j,j,NA,NA,NA,1,6,"11,12,7,3,1,8,4,2,14,5,9,13,15,6,10"
14396,commdev-image-keyboard-response,146,369414,learnblock1,20,img/planet12_right.png,12,Community 1,NA,TRUE,j,j,NA,NA,NA,1,6,"11,12,7,3,1,8,4,2,14,5,9,13,15,6,10"
14396,commdev-image-keyboard-response,147,370669,learnblock1,27.5,img/planet1_left.png,1,Community 1,NA,TRUE,f,f,NA,NA,NA,1,6,"11,12,7,3,1,8,4,2,14,5,9,13,15,6,10"
14396,commdev-image-keyboard-response,148,371924,learnblock1,52.70000000298023,img/planet11_left.png,11,Community 1,NA,FALSE,j,f,NA,NA,NA,1,6,"11,12,7,3,1,8,4,2,14,5,9,13,15,6,10"
14396,commdev-image-keyboard-response,149,373176,learnblock1,117.90000000596046,img/planet1_left.png,1,Community 1,NA,TRUE,f,f,NA,NA,NA,1,6,"11,12,7,3,1,8,4,2,14,5,9,13,15,6,10"
14396,commdev-image-keyboard-response,150,374433,learnblock1,77.3999999910593,img/planet11_left.png,11,Community 1,NA,FALSE,j,f,NA,NA,NA,1,6,"11,12,7,3,1,8,4,2,14,5,9,13,15,6,10"
14396,commdev-image-keyboard-response,151,375690,learnblock1,725.4000000059605,img/planet12_left.png,12,Community 1,NA,TRUE,f,f,NA,NA,NA,1,6,"11,12,7,3,1,8,4,2,14,5,9,13,15,6,10"
14396,commdev-image-keyboard-response,152,376944,learnblock1,134.90000000596046,img/planet3_right.png,3,Community 1,NA,FALSE,f,j,NA,NA,NA,1,6,"11,12,7,3,1,8,4,2,14,5,9,13,15,6,10"
14396,commdev-image-keyboard-response,153,378202,learnblock1,851.8999999910593,img/planet7_right.png,7,Community 1,NA,TRUE,j,j,NA,NA,NA,1,6,"11,12,7,3,1,8,4,2,14,5,9,13,15,6,10"
14396,commdev-image-keyboard-response,154,379456,learnblock1,716.4000000059605,img/planet11_right.png,11,Community 1,NA,TRUE,j,j,NA,NA,NA,1,6,"11,12,7,3,1,8,4,2,14,5,9,13,15,6,10"
14396,commdev-image-keyboard-response,155,380712,learnblock1,null,img/planet7_right.png,7,Community 1,NA,FALSE,null,j,NA,NA,NA,1,6,"11,12,7,3,1,8,4,2,14,5,9,13,15,6,10"
14396,commdev-image-keyboard-response,156,381969,learnblock1,71,img/planet11_left.png,11,Community 1,NA,FALSE,j,f,NA,NA,NA,1,6,"11,12,7,3,1,8,4,2,14,5,9,13,15,6,10"
14396,commdev-image-keyboard-response,157,383223,learnblock1,737.4000000059605,img/planet1_right.png,1,Community 1,NA,TRUE,j,j,NA,NA,NA,1,6,"11,12,7,3,1,8,4,2,14,5,9,13,15,6,10"
14396,commdev-image-keyboard-response,158,384479,learnblock1,406.19999998807907,img/planet9_right.png,9,Community 3,NA,TRUE,j,j,NA,NA,NA,1,6,"11,12,7,3,1,8,4,2,14,5,9,13,15,6,10"
14396,commdev-image-keyboard-response,159,385733,learnblock1,null,img/planet1_right.png,1,Community 1,NA,FALSE,null,j,NA,NA,NA,1,6,"11,12,7,3,1,8,4,2,14,5,9,13,15,6,10"
14396,commdev-image-keyboard-response,160,386990,learnblock1,null,img/planet11_left.png,11,Community 1,NA,FALSE,null,f,NA,NA,NA,1,6,"11,12,7,3,1,8,4,2,14,5,9,13,15,6,10"
14396,commdev-image-keyboard-response,161,388246,learnblock1,null,img/planet1_right.png,1,Community 1,NA,FALSE,null,j,NA,NA,NA,1,6,"11,12,7,3,1,8,4,2,14,5,9,13,15,6,10"
14396,commdev-image-keyboard-response,162,389498,learnblock1,null,img/planet11_left.png,11,Community 1,NA,FALSE,null,f,NA,NA,NA,1,6,"11,12,7,3,1,8,4,2,14,5,9,13,15,6,10"
14396,commdev-image-keyboard-response,163,390751,learnblock1,null,img/planet12_left.png,12,Community 1,NA,FALSE,null,f,NA,NA,NA,1,6,"11,12,7,3,1,8,4,2,14,5,9,13,15,6,10"
14396,commdev-image-keyboard-response,164,392007,learnblock1,140.29999999701977,img/planet3_right.png,3,Community 1,NA,TRUE,j,j,NA,NA,NA,1,6,"11,12,7,3,1,8,4,2,14,5,9,13,15,6,10"
14396,commdev-image-keyboard-response,165,393262,learnblock1,67.1000000089407,img/planet12_left.png,12,Community 1,NA,FALSE,j,f,NA,NA,NA,1,6,"11,12,7,3,1,8,4,2,14,5,9,13,15,6,10"
14396,commdev-image-keyboard-response,166,394519,learnblock1,828.6999999880791,img/planet11_right.png,11,Community 1,NA,TRUE,j,j,NA,NA,NA,1,6,"11,12,7,3,1,8,4,2,14,5,9,13,15,6,10"
14396,commdev-image-keyboard-response,167,395771,learnblock1,1085.2000000029802,img/planet7_left.png,7,Community 1,NA,TRUE,f,f,NA,NA,NA,1,6,"11,12,7,3,1,8,4,2,14,5,9,13,15,6,10"
14396,commdev-image-keyboard-response,168,397024,learnblock1,746,img/planet11_left.png,11,Community 1,NA,FALSE,j,f,NA,NA,NA,1,6,"11,12,7,3,1,8,4,2,14,5,9,13,15,6,10"
14396,commdev-image-keyboard-response,169,398277,learnblock1,604.2000000029802,img/planet3_right.png,3,Community 1,NA,FALSE,f,j,NA,NA,NA,1,6,"11,12,7,3,1,8,4,2,14,5,9,13,15,6,10"
14396,commdev-image-keyboard-response,170,399534,learnblock1,36.900000005960464,img/planet7_left.png,7,Community 1,NA,TRUE,f,f,NA,NA,NA,1,6,"11,12,7,3,1,8,4,2,14,5,9,13,15,6,10"
14396,commdev-image-keyboard-response,171,400790,learnblock1,84.8999999910593,img/planet3_left.png,3,Community 1,NA,FALSE,j,f,NA,NA,NA,1,6,"11,12,7,3,1,8,4,2,14,5,9,13,15,6,10"
14396,commdev-image-keyboard-response,172,402047,learnblock1,55.900000005960464,img/planet7_right.png,7,Community 1,NA,TRUE,j,j,NA,NA,NA,1,6,"11,12,7,3,1,8,4,2,14,5,9,13,15,6,10"
14396,commdev-image-keyboard-response,173,403302,learnblock1,null,img/planet3_left.png,3,Community 1,NA,FALSE,null,f,NA,NA,NA,1,6,"11,12,7,3,1,8,4,2,14,5,9,13,15,6,10"
14396,commdev-image-keyboard-response,174,404559,learnblock1,533.5999999940395,img/planet11_left.png,11,Community 1,NA,TRUE,f,f,NA,NA,NA,1,6,"11,12,7,3,1,8,4,2,14,5,9,13,15,6,10"
14396,commdev-image-keyboard-response,175,405812,learnblock1,21.100000008940697,img/planet1_left.png,1,Community 1,NA,TRUE,f,f,NA,NA,NA,1,6,"11,12,7,3,1,8,4,2,14,5,9,13,15,6,10"
14396,commdev-image-keyboard-response,176,407068,learnblock1,138.90000000596046,img/planet11_right.png,11,Community 1,NA,TRUE,j,j,NA,NA,NA,1,6,"11,12,7,3,1,8,4,2,14,5,9,13,15,6,10"
14396,commdev-image-keyboard-response,177,408324,learnblock1,176.29999999701977,img/planet12_right.png,12,Community 1,NA,TRUE,j,j,NA,NA,NA,1,6,"11,12,7,3,1,8,4,2,14,5,9,13,15,6,10"
14396,commdev-image-keyboard-response,178,409581,learnblock1,null,img/planet11_right.png,11,Community 1,NA,FALSE,null,j,NA,NA,NA,1,6,"11,12,7,3,1,8,4,2,14,5,9,13,15,6,10"
14396,commdev-image-keyboard-response,179,410834,learnblock1,9.300000011920929,img/planet7_left.png,7,Community 1,NA,TRUE,f,f,NA,NA,NA,1,6,"11,12,7,3,1,8,4,2,14,5,9,13,15,6,10"
14396,commdev-image-keyboard-response,180,412089,learnblock1,0.7000000029802322,img/planet1_left.png,1,Community 1,NA,FALSE,j,f,NA,NA,NA,1,6,"11,12,7,3,1,8,4,2,14,5,9,13,15,6,10"
14396,commdev-image-keyboard-response,181,413343,learnblock1,43.20000000298023,img/planet12_left.png,12,Community 1,NA,TRUE,f,f,NA,NA,NA,1,6,"11,12,7,3,1,8,4,2,14,5,9,13,15,6,10"
14396,commdev-image-keyboard-response,182,414598,learnblock1,77.59999999403954,img/planet7_left.png,7,Community 1,NA,TRUE,f,f,NA,NA,NA,1,6,"11,12,7,3,1,8,4,2,14,5,9,13,15,6,10"
14396,commdev-image-keyboard-response,183,415854,learnblock1,674,img/planet11_left.png,11,Community 1,NA,TRUE,f,f,NA,NA,NA,1,6,"11,12,7,3,1,8,4,2,14,5,9,13,15,6,10"
14396,commdev-image-keyboard-response,184,417108,learnblock1,286.09999999403954,img/planet12_left.png,12,Community 1,NA,TRUE,f,f,NA,NA,NA,1,6,"11,12,7,3,1,8,4,2,14,5,9,13,15,6,10"
14396,commdev-image-keyboard-response,185,418365,learnblock1,506.29999999701977,img/planet11_right.png,11,Community 1,NA,FALSE,f,j,NA,NA,NA,1,6,"11,12,7,3,1,8,4,2,14,5,9,13,15,6,10"
14396,commdev-image-keyboard-response,186,419621,learnblock1,629.9000000059605,img/planet1_right.png,1,Community 1,NA,TRUE,j,j,NA,NA,NA,1,6,"11,12,7,3,1,8,4,2,14,5,9,13,15,6,10"
14396,commdev-image-keyboard-response,187,420876,learnblock1,736.4000000059605,img/planet12_right.png,12,Community 1,NA,TRUE,j,j,NA,NA,NA,1,6,"11,12,7,3,1,8,4,2,14,5,9,13,15,6,10"
14396,commdev-image-keyboard-response,188,422131,learnblock1,762.2999999970198,img/planet11_right.png,11,Community 1,NA,FALSE,f,j,NA,NA,NA,1,6,"11,12,7,3,1,8,4,2,14,5,9,13,15,6,10"
14396,commdev-image-keyboard-response,189,423387,learnblock1,700.5999999940395,img/planet3_left.png,3,Community 1,NA,FALSE,j,f,NA,NA,NA,1,6,"11,12,7,3,1,8,4,2,14,5,9,13,15,6,10"
14396,commdev-image-keyboard-response,190,424643,learnblock1,999.8000000119209,img/planet7_left.png,7,Community 1,NA,TRUE,f,f,NA,NA,NA,1,6,"11,12,7,3,1,8,4,2,14,5,9,13,15,6,10"
14396,commdev-image-keyboard-response,191,425895,learnblock1,533.8999999910593,img/planet3_right.png,3,Community 1,NA,FALSE,f,j,NA,NA,NA,1,6,"11,12,7,3,1,8,4,2,14,5,9,13,15,6,10"
14396,commdev-image-keyboard-response,192,427152,learnblock1,542.5,img/planet7_left.png,7,Community 1,NA,FALSE,j,f,NA,NA,NA,1,6,"11,12,7,3,1,8,4,2,14,5,9,13,15,6,10"
14396,commdev-image-keyboard-response,193,428407,learnblock1,675,img/planet3_right.png,3,Community 1,NA,TRUE,j,j,NA,NA,NA,1,6,"11,12,7,3,1,8,4,2,14,5,9,13,15,6,10"
14396,commdev-image-keyboard-response,194,429661,learnblock1,799.1999999880791,img/planet7_right.png,7,Community 1,NA,FALSE,f,j,NA,NA,NA,1,6,"11,12,7,3,1,8,4,2,14,5,9,13,15,6,10"
14396,commdev-image-keyboard-response,195,430913,learnblock1,124.20000000298023,img/planet3_right.png,3,Community 1,NA,FALSE,f,j,NA,NA,NA,1,6,"11,12,7,3,1,8,4,2,14,5,9,13,15,6,10"
14396,commdev-image-keyboard-response,196,432167,learnblock1,1107.8999999910593,img/planet7_right.png,7,Community 1,NA,TRUE,j,j,NA,NA,NA,1,6,"11,12,7,3,1,8,4,2,14,5,9,13,15,6,10"
14396,commdev-image-keyboard-response,197,433421,learnblock1,735.7999999970198,img/planet1_left.png,1,Community 1,NA,TRUE,f,f,NA,NA,NA,1,6,"11,12,7,3,1,8,4,2,14,5,9,13,15,6,10"
14396,commdev-image-keyboard-response,198,434675,learnblock1,703.8000000119209,img/planet12_right.png,12,Community 1,NA,FALSE,f,j,NA,NA,NA,1,6,"11,12,7,3,1,8,4,2,14,5,9,13,15,6,10"
14396,commdev-image-keyboard-response,199,435932,learnblock1,1163.5,img/planet1_left.png,1,Community 1,NA,TRUE,f,f,NA,NA,NA,1,6,"11,12,7,3,1,8,4,2,14,5,9,13,15,6,10"
14396,commdev-image-keyboard-response,200,437186,learnblock1,743.1999999880791,img/planet9_right.png,9,Community 3,NA,TRUE,j,j,NA,NA,NA,1,6,"11,12,7,3,1,8,4,2,14,5,9,13,15,6,10"
14396,commdev-image-keyboard-response,201,438443,learnblock1,1050.4000000059605,img/planet15_right.png,15,Community 3,NA,TRUE,j,j,NA,NA,NA,1,6,"11,12,7,3,1,8,4,2,14,5,9,13,15,6,10"
14396,commdev-image-keyboard-response,202,439699,learnblock1,816.4000000059605,img/planet9_left.png,9,Community 3,NA,TRUE,f,f,NA,NA,NA,1,6,"11,12,7,3,1,8,4,2,14,5,9,13,15,6,10"
14396,commdev-image-keyboard-response,203,440953,learnblock1,499.79999999701977,img/planet1_right.png,1,Community 1,NA,TRUE,j,j,NA,NA,NA,1,6,"11,12,7,3,1,8,4,2,14,5,9,13,15,6,10"
14396,commdev-image-keyboard-response,204,442205,learnblock1,548.7999999970198,img/planet9_left.png,9,Community 3,NA,TRUE,f,f,NA,NA,NA,1,6,"11,12,7,3,1,8,4,2,14,5,9,13,15,6,10"
14396,commdev-image-keyboard-response,205,443462,learnblock1,340.29999999701977,img/planet6_right.png,6,Community 3,NA,TRUE,j,j,NA,NA,NA,1,6,"11,12,7,3,1,8,4,2,14,5,9,13,15,6,10"
14396,commdev-image-keyboard-response,206,444720,learnblock1,515.1000000089407,img/planet13_right.png,13,Community 3,NA,FALSE,f,j,NA,NA,NA,1,6,"11,12,7,3,1,8,4,2,14,5,9,13,15,6,10"
14396,commdev-image-keyboard-response,207,445972,learnblock1,881.7000000029802,img/planet2_left.png,2,Community 2,NA,FALSE,j,f,NA,NA,NA,1,6,"11,12,7,3,1,8,4,2,14,5,9,13,15,6,10"
14396,commdev-image-keyboard-response,208,447225,learnblock1,736.5,img/planet4_right.png,4,Community 2,NA,TRUE,j,j,NA,NA,NA,1,6,"11,12,7,3,1,8,4,2,14,5,9,13,15,6,10"
14396,commdev-image-keyboard-response,209,448478,learnblock1,1152.6000000089407,img/planet5_right.png,5,Community 2,NA,FALSE,f,j,NA,NA,NA,1,6,"11,12,7,3,1,8,4,2,14,5,9,13,15,6,10"
14396,commdev-image-keyboard-response,210,449735,learnblock1,805.7999999970198,img/planet4_right.png,4,Community 2,NA,TRUE,j,j,NA,NA,NA,1,6,"11,12,7,3,1,8,4,2,14,5,9,13,15,6,10"
14396,commdev-image-keyboard-response,211,450990,learnblock1,1032.9000000059605,img/planet5_right.png,5,Community 2,NA,TRUE,j,j,NA,NA,NA,1,6,"11,12,7,3,1,8,4,2,14,5,9,13,15,6,10"
14396,commdev-image-keyboard-response,212,452243,learnblock1,null,img/planet14_left.png,14,Community 2,NA,FALSE,null,f,NA,NA,NA,1,6,"11,12,7,3,1,8,4,2,14,5,9,13,15,6,10"
14396,commdev-image-keyboard-response,213,453497,learnblock1,26.700000002980232,img/planet4_left.png,4,Community 2,NA,TRUE,f,f,NA,NA,NA,1,6,"11,12,7,3,1,8,4,2,14,5,9,13,15,6,10"
14396,commdev-image-keyboard-response,214,454754,learnblock1,829.7999999970198,img/planet8_right.png,8,Community 2,NA,FALSE,f,j,NA,NA,NA,1,6,"11,12,7,3,1,8,4,2,14,5,9,13,15,6,10"
14396,commdev-image-keyboard-response,215,456011,learnblock1,73.70000000298023,img/planet4_left.png,4,Community 2,NA,FALSE,j,f,NA,NA,NA,1,6,"11,12,7,3,1,8,4,2,14,5,9,13,15,6,10"
14396,commdev-image-keyboard-response,216,457263,learnblock1,1026.1000000089407,img/planet5_left.png,5,Community 2,NA,FALSE,j,f,NA,NA,NA,1,6,"11,12,7,3,1,8,4,2,14,5,9,13,15,6,10"
14396,commdev-image-keyboard-response,217,458518,learnblock1,600.3999999910593,img/planet2_left.png,2,Community 2,NA,TRUE,f,f,NA,NA,NA,1,6,"11,12,7,3,1,8,4,2,14,5,9,13,15,6,10"
14396,commdev-image-keyboard-response,218,459771,learnblock1,893.7000000029802,img/planet13_right.png,13,Community 3,NA,TRUE,j,j,NA,NA,NA,1,6,"11,12,7,3,1,8,4,2,14,5,9,13,15,6,10"
14396,commdev-image-keyboard-response,219,461029,learnblock1,null,img/planet10_right.png,10,Community 3,NA,FALSE,null,j,NA,NA,NA,1,6,"11,12,7,3,1,8,4,2,14,5,9,13,15,6,10"
14396,commdev-image-keyboard-response,220,462282,learnblock1,992.5,img/planet9_left.png,9,Community 3,NA,TRUE,f,f,NA,NA,NA,1,6,"11,12,7,3,1,8,4,2,14,5,9,13,15,6,10"
14396,commdev-image-keyboard-response,221,463539,learnblock1,947.8999999910593,img/planet15_left.png,15,Community 3,NA,FALSE,j,f,NA,NA,NA,1,6,"11,12,7,3,1,8,4,2,14,5,9,13,15,6,10"
14396,commdev-image-keyboard-response,222,464794,learnblock1,964.5,img/planet10_right.png,10,Community 3,NA,FALSE,f,j,NA,NA,NA,1,6,"11,12,7,3,1,8,4,2,14,5,9,13,15,6,10"
14396,commdev-image-keyboard-response,223,466050,learnblock1,154.29999999701977,img/planet6_right.png,6,Community 3,NA,FALSE,f,j,NA,NA,NA,1,6,"11,12,7,3,1,8,4,2,14,5,9,13,15,6,10"
14396,commdev-image-keyboard-response,224,467302,learnblock1,null,img/planet13_left.png,13,Community 3,NA,FALSE,null,f,NA,NA,NA,1,6,"11,12,7,3,1,8,4,2,14,5,9,13,15,6,10"
14396,commdev-image-keyboard-response,225,468557,learnblock1,null,img/planet2_left.png,2,Community 2,NA,FALSE,null,f,NA,NA,NA,1,6,"11,12,7,3,1,8,4,2,14,5,9,13,15,6,10"
14396,commdev-image-keyboard-response,226,469811,learnblock1,null,img/planet13_left.png,13,Community 3,NA,FALSE,null,f,NA,NA,NA,1,6,"11,12,7,3,1,8,4,2,14,5,9,13,15,6,10"
14396,commdev-image-keyboard-response,227,471065,learnblock1,null,img/planet2_left.png,2,Community 2,NA,FALSE,null,f,NA,NA,NA,1,6,"11,12,7,3,1,8,4,2,14,5,9,13,15,6,10"
14396,commdev-image-keyboard-response,228,472318,learnblock1,null,img/planet4_left.png,4,Community 2,NA,FALSE,null,f,NA,NA,NA,1,6,"11,12,7,3,1,8,4,2,14,5,9,13,15,6,10"
14396,commdev-image-keyboard-response,229,473572,learnblock1,1016.7999999970198,img/planet2_right.png,2,Community 2,NA,TRUE,j,j,NA,NA,NA,1,6,"11,12,7,3,1,8,4,2,14,5,9,13,15,6,10"
14396,commdev-image-keyboard-response,230,474829,learnblock1,868.9000000059605,img/planet13_left.png,13,Community 3,NA,TRUE,f,f,NA,NA,NA,1,6,"11,12,7,3,1,8,4,2,14,5,9,13,15,6,10"
14396,commdev-image-keyboard-response,231,476086,learnblock1,549.7999999970198,img/planet2_right.png,2,Community 2,NA,TRUE,j,j,NA,NA,NA,1,6,"11,12,7,3,1,8,4,2,14,5,9,13,15,6,10"
14396,commdev-image-keyboard-response,232,477339,learnblock1,958,img/planet13_right.png,13,Community 3,NA,FALSE,f,j,NA,NA,NA,1,6,"11,12,7,3,1,8,4,2,14,5,9,13,15,6,10"
14396,commdev-image-keyboard-response,233,478595,learnblock1,286.79999999701977,img/planet6_right.png,6,Community 3,NA,TRUE,j,j,NA,NA,NA,1,6,"11,12,7,3,1,8,4,2,14,5,9,13,15,6,10"
14396,commdev-image-keyboard-response,234,479852,learnblock1,152.70000000298023,img/planet9_left.png,9,Community 3,NA,TRUE,f,f,NA,NA,NA,1,6,"11,12,7,3,1,8,4,2,14,5,9,13,15,6,10"
14396,commdev-image-keyboard-response,235,481108,learnblock1,31,img/planet6_right.png,6,Community 3,NA,TRUE,j,j,NA,NA,NA,1,6,"11,12,7,3,1,8,4,2,14,5,9,13,15,6,10"
14396,commdev-image-keyboard-response,236,482363,learnblock1,31.299999997019768,img/planet13_right.png,13,Community 3,NA,FALSE,f,j,NA,NA,NA,1,6,"11,12,7,3,1,8,4,2,14,5,9,13,15,6,10"
14396,commdev-image-keyboard-response,237,483621,learnblock1,95.5,img/planet15_right.png,15,Community 3,NA,TRUE,j,j,NA,NA,NA,1,6,"11,12,7,3,1,8,4,2,14,5,9,13,15,6,10"
14396,commdev-image-keyboard-response,238,484878,learnblock1,23.599999994039536,img/planet9_left.png,9,Community 3,NA,FALSE,j,f,NA,NA,NA,1,6,"11,12,7,3,1,8,4,2,14,5,9,13,15,6,10"
14396,commdev-image-keyboard-response,239,486134,learnblock1,55.69999998807907,img/planet6_left.png,6,Community 3,NA,FALSE,j,f,NA,NA,NA,1,6,"11,12,7,3,1,8,4,2,14,5,9,13,15,6,10"
14396,commdev-image-keyboard-response,240,487387,learnblock1,144.29999999701977,img/planet9_left.png,9,Community 3,NA,FALSE,j,f,NA,NA,NA,1,6,"11,12,7,3,1,8,4,2,14,5,9,13,15,6,10"
14396,commdev-image-keyboard-response,241,488642,learnblock1,null,img/planet6_left.png,6,Community 3,NA,FALSE,null,f,NA,NA,NA,1,6,"11,12,7,3,1,8,4,2,14,5,9,13,15,6,10"
14396,commdev-image-keyboard-response,242,489898,learnblock1,733.5,img/planet10_left.png,10,Community 3,NA,TRUE,f,f,NA,NA,NA,1,6,"11,12,7,3,1,8,4,2,14,5,9,13,15,6,10"
14396,commdev-image-keyboard-response,243,491155,learnblock1,688.8000000119209,img/planet6_right.png,6,Community 3,NA,TRUE,j,j,NA,NA,NA,1,6,"11,12,7,3,1,8,4,2,14,5,9,13,15,6,10"
14396,commdev-image-keyboard-response,244,492411,learnblock1,753.7000000029802,img/planet15_left.png,15,Community 3,NA,TRUE,f,f,NA,NA,NA,1,6,"11,12,7,3,1,8,4,2,14,5,9,13,15,6,10"
14396,commdev-image-keyboard-response,245,493669,learnblock1,74,img/planet13_left.png,13,Community 3,NA,TRUE,f,f,NA,NA,NA,1,6,"11,12,7,3,1,8,4,2,14,5,9,13,15,6,10"
14396,commdev-image-keyboard-response,246,494924,learnblock1,900.9000000059605,img/planet2_left.png,2,Community 2,NA,FALSE,j,f,NA,NA,NA,1,6,"11,12,7,3,1,8,4,2,14,5,9,13,15,6,10"
14396,commdev-image-keyboard-response,247,496178,learnblock1,526.0999999940395,img/planet5_right.png,5,Community 2,NA,FALSE,f,j,NA,NA,NA,1,6,"11,12,7,3,1,8,4,2,14,5,9,13,15,6,10"
14396,commdev-image-keyboard-response,248,497435,learnblock1,1049.9000000059605,img/planet2_right.png,2,Community 2,NA,FALSE,f,j,NA,NA,NA,1,6,"11,12,7,3,1,8,4,2,14,5,9,13,15,6,10"
14396,commdev-image-keyboard-response,249,498692,learnblock1,562.8999999910593,img/planet13_left.png,13,Community 3,NA,FALSE,j,f,NA,NA,NA,1,6,"11,12,7,3,1,8,4,2,14,5,9,13,15,6,10"
14396,commdev-image-keyboard-response,250,499949,learnblock1,380.5,img/planet6_left.png,6,Community 3,NA,TRUE,f,f,NA,NA,NA,1,6,"11,12,7,3,1,8,4,2,14,5,9,13,15,6,10"
14396,commdev-image-keyboard-response,251,501202,learnblock1,720.5,img/planet10_right.png,10,Community 3,NA,TRUE,j,j,NA,NA,NA,1,6,"11,12,7,3,1,8,4,2,14,5,9,13,15,6,10"
14396,commdev-image-keyboard-response,252,502457,learnblock1,835.6999999880791,img/planet13_right.png,13,Community 3,NA,TRUE,j,j,NA,NA,NA,1,6,"11,12,7,3,1,8,4,2,14,5,9,13,15,6,10"
14396,commdev-image-keyboard-response,253,503712,learnblock1,456.29999999701977,img/planet10_right.png,10,Community 3,NA,TRUE,j,j,NA,NA,NA,1,6,"11,12,7,3,1,8,4,2,14,5,9,13,15,6,10"
14396,commdev-image-keyboard-response,254,504969,learnblock1,600.2999999970198,img/planet15_right.png,15,Community 3,NA,TRUE,j,j,NA,NA,NA,1,6,"11,12,7,3,1,8,4,2,14,5,9,13,15,6,10"
14396,commdev-image-keyboard-response,255,506223,learnblock1,650.2999999970198,img/planet10_right.png,10,Community 3,NA,TRUE,j,j,NA,NA,NA,1,6,"11,12,7,3,1,8,4,2,14,5,9,13,15,6,10"
14396,commdev-image-keyboard-response,256,507480,learnblock1,169.8999999910593,img/planet6_right.png,6,Community 3,NA,TRUE,j,j,NA,NA,NA,1,6,"11,12,7,3,1,8,4,2,14,5,9,13,15,6,10"
14396,commdev-image-keyboard-response,257,508736,learnblock1,2.800000011920929,img/planet9_left.png,9,Community 3,NA,FALSE,j,f,NA,NA,NA,1,6,"11,12,7,3,1,8,4,2,14,5,9,13,15,6,10"
14396,commdev-image-keyboard-response,258,509993,learnblock1,571.2000000029802,img/planet10_right.png,10,Community 3,NA,TRUE,j,j,NA,NA,NA,1,6,"11,12,7,3,1,8,4,2,14,5,9,13,15,6,10"
14396,commdev-image-keyboard-response,259,511246,learnblock1,482.29999999701977,img/planet15_right.png,15,Community 3,NA,TRUE,j,j,NA,NA,NA,1,6,"11,12,7,3,1,8,4,2,14,5,9,13,15,6,10"
14396,commdev-image-keyboard-response,260,512498,learnblock1,100.29999999701977,img/planet10_left.png,10,Community 3,NA,TRUE,f,f,NA,NA,NA,1,6,"11,12,7,3,1,8,4,2,14,5,9,13,15,6,10"
14396,commdev-image-keyboard-response,261,513750,learnblock1,98.29999999701977,img/planet13_right.png,13,Community 3,NA,TRUE,j,j,NA,NA,NA,1,6,"11,12,7,3,1,8,4,2,14,5,9,13,15,6,10"
14396,commdev-image-keyboard-response,262,515003,learnblock1,171.79999999701977,img/planet10_left.png,10,Community 3,NA,FALSE,j,f,NA,NA,NA,1,6,"11,12,7,3,1,8,4,2,14,5,9,13,15,6,10"
14396,commdev-image-keyboard-response,263,516260,learnblock1,null,img/planet9_right.png,9,Community 3,NA,FALSE,null,j,NA,NA,NA,1,6,"11,12,7,3,1,8,4,2,14,5,9,13,15,6,10"
14396,commdev-image-keyboard-response,264,517516,learnblock1,44.900000005960464,img/planet6_right.png,6,Community 3,NA,TRUE,j,j,NA,NA,NA,1,6,"11,12,7,3,1,8,4,2,14,5,9,13,15,6,10"
14396,commdev-image-keyboard-response,265,518768,learnblock1,253.70000000298023,img/planet9_right.png,9,Community 3,NA,TRUE,j,j,NA,NA,NA,1,6,"11,12,7,3,1,8,4,2,14,5,9,13,15,6,10"
14396,commdev-image-keyboard-response,266,520024,learnblock1,null,img/planet10_left.png,10,Community 3,NA,FALSE,null,f,NA,NA,NA,1,6,"11,12,7,3,1,8,4,2,14,5,9,13,15,6,10"
14396,commdev-image-keyboard-response,267,521281,learnblock1,null,img/planet9_right.png,9,Community 3,NA,FALSE,null,j,NA,NA,NA,1,6,"11,12,7,3,1,8,4,2,14,5,9,13,15,6,10"
14396,commdev-image-keyboard-response,268,522537,learnblock1,252.79999999701977,img/planet15_left.png,15,Community 3,NA,TRUE,f,f,NA,NA,NA,1,6,"11,12,7,3,1,8,4,2,14,5,9,13,15,6,10"
14396,commdev-image-keyboard-response,269,523790,learnblock1,null,img/planet9_left.png,9,Community 3,NA,FALSE,null,f,NA,NA,NA,1,6,"11,12,7,3,1,8,4,2,14,5,9,13,15,6,10"
14396,commdev-image-keyboard-response,270,525046,learnblock1,null,img/planet15_left.png,15,Community 3,NA,FALSE,null,f,NA,NA,NA,1,6,"11,12,7,3,1,8,4,2,14,5,9,13,15,6,10"
14396,commdev-image-keyboard-response,271,526302,learnblock1,null,img/planet9_right.png,9,Community 3,NA,FALSE,null,j,NA,NA,NA,1,6,"11,12,7,3,1,8,4,2,14,5,9,13,15,6,10"
14396,commdev-image-keyboard-response,272,527554,learnblock1,1214.7000000029802,img/planet10_right.png,10,Community 3,NA,TRUE,j,j,NA,NA,NA,1,6,"11,12,7,3,1,8,4,2,14,5,9,13,15,6,10"
14396,commdev-image-keyboard-response,273,528806,learnblock1,69.59999999403954,img/planet13_right.png,13,Community 3,NA,FALSE,f,j,NA,NA,NA,1,6,"11,12,7,3,1,8,4,2,14,5,9,13,15,6,10"
14396,commdev-image-keyboard-response,274,530060,learnblock1,159.40000000596046,img/planet2_right.png,2,Community 2,NA,TRUE,j,j,NA,NA,NA,1,6,"11,12,7,3,1,8,4,2,14,5,9,13,15,6,10"
14396,commdev-image-keyboard-response,275,531315,learnblock1,50.5,img/planet13_left.png,13,Community 3,NA,FALSE,j,f,NA,NA,NA,1,6,"11,12,7,3,1,8,4,2,14,5,9,13,15,6,10"
14396,commdev-image-keyboard-response,276,532572,learnblock1,85.59999999403954,img/planet2_left.png,2,Community 2,NA,TRUE,f,f,NA,NA,NA,1,6,"11,12,7,3,1,8,4,2,14,5,9,13,15,6,10"
14396,commdev-image-keyboard-response,277,533824,learnblock1,49.19999998807907,img/planet14_left.png,14,Community 2,NA,FALSE,j,f,NA,NA,NA,1,6,"11,12,7,3,1,8,4,2,14,5,9,13,15,6,10"
14396,commdev-image-keyboard-response,278,535077,learnblock1,270.09999999403954,img/planet2_right.png,2,Community 2,NA,TRUE,j,j,NA,NA,NA,1,6,"11,12,7,3,1,8,4,2,14,5,9,13,15,6,10"
14396,commdev-image-keyboard-response,279,536331,learnblock1,883.5999999940395,img/planet14_left.png,14,Community 2,NA,TRUE,f,f,NA,NA,NA,1,6,"11,12,7,3,1,8,4,2,14,5,9,13,15,6,10"
14396,commdev-image-keyboard-response,280,537586,learnblock1,433.6000000089407,img/planet8_right.png,8,Community 2,NA,TRUE,j,j,NA,NA,NA,1,6,"11,12,7,3,1,8,4,2,14,5,9,13,15,6,10"
14396,commdev-image-keyboard-response,281,538844,learnblock1,355.30000001192093,img/planet4_right.png,4,Community 2,NA,FALSE,f,j,NA,NA,NA,1,6,"11,12,7,3,1,8,4,2,14,5,9,13,15,6,10"
14396,commdev-image-keyboard-response,282,540101,learnblock1,435.5,img/planet2_right.png,2,Community 2,NA,TRUE,j,j,NA,NA,NA,1,6,"11,12,7,3,1,8,4,2,14,5,9,13,15,6,10"
14396,commdev-image-keyboard-response,283,541355,learnblock1,782.0999999940395,img/planet5_right.png,5,Community 2,NA,TRUE,j,j,NA,NA,NA,1,6,"11,12,7,3,1,8,4,2,14,5,9,13,15,6,10"
14396,commdev-image-keyboard-response,284,542609,learnblock1,831.7000000029802,img/planet8_right.png,8,Community 2,NA,TRUE,j,j,NA,NA,NA,1,6,"11,12,7,3,1,8,4,2,14,5,9,13,15,6,10"
14396,commdev-image-keyboard-response,285,543862,learnblock1,946.1000000089407,img/planet4_left.png,4,Community 2,NA,TRUE,f,f,NA,NA,NA,1,6,"11,12,7,3,1,8,4,2,14,5,9,13,15,6,10"
14396,commdev-image-keyboard-response,286,545118,learnblock1,936.5,img/planet8_left.png,8,Community 2,NA,TRUE,f,f,NA,NA,NA,1,6,"11,12,7,3,1,8,4,2,14,5,9,13,15,6,10"
14396,commdev-image-keyboard-response,287,546370,learnblock1,1051.7000000029802,img/planet5_left.png,5,Community 2,NA,TRUE,f,f,NA,NA,NA,1,6,"11,12,7,3,1,8,4,2,14,5,9,13,15,6,10"
14396,commdev-image-keyboard-response,288,547626,learnblock1,956,img/planet4_left.png,4,Community 2,NA,TRUE,f,f,NA,NA,NA,1,6,"11,12,7,3,1,8,4,2,14,5,9,13,15,6,10"
14396,commdev-image-keyboard-response,289,548882,learnblock1,1149,img/planet8_right.png,8,Community 2,NA,TRUE,j,j,NA,NA,NA,1,6,"11,12,7,3,1,8,4,2,14,5,9,13,15,6,10"
14396,commdev-image-keyboard-response,290,550138,learnblock1,null,img/planet4_left.png,4,Community 2,NA,FALSE,null,f,NA,NA,NA,1,6,"11,12,7,3,1,8,4,2,14,5,9,13,15,6,10"
14396,commdev-image-keyboard-response,291,551395,learnblock1,102.09999999403954,img/planet8_right.png,8,Community 2,NA,FALSE,f,j,NA,NA,NA,1,6,"11,12,7,3,1,8,4,2,14,5,9,13,15,6,10"
14396,commdev-image-keyboard-response,292,552649,learnblock1,125.80000001192093,img/planet5_left.png,5,Community 2,NA,FALSE,j,f,NA,NA,NA,1,6,"11,12,7,3,1,8,4,2,14,5,9,13,15,6,10"
14396,commdev-image-keyboard-response,293,553906,learnblock1,946.4000000059605,img/planet2_left.png,2,Community 2,NA,TRUE,f,f,NA,NA,NA,1,6,"11,12,7,3,1,8,4,2,14,5,9,13,15,6,10"
14396,commdev-image-keyboard-response,294,555158,learnblock1,null,img/planet14_right.png,14,Community 2,NA,FALSE,null,j,NA,NA,NA,1,6,"11,12,7,3,1,8,4,2,14,5,9,13,15,6,10"
14396,commdev-image-keyboard-response,295,556410,learnblock1,64.29999999701977,img/planet5_left.png,5,Community 2,NA,FALSE,j,f,NA,NA,NA,1,6,"11,12,7,3,1,8,4,2,14,5,9,13,15,6,10"
14396,commdev-image-keyboard-response,296,557664,learnblock1,83.40000000596046,img/planet4_right.png,4,Community 2,NA,FALSE,f,j,NA,NA,NA,1,6,"11,12,7,3,1,8,4,2,14,5,9,13,15,6,10"
14396,commdev-image-keyboard-response,297,558917,learnblock1,52.6000000089407,img/planet2_right.png,2,Community 2,NA,TRUE,j,j,NA,NA,NA,1,6,"11,12,7,3,1,8,4,2,14,5,9,13,15,6,10"
14396,commdev-image-keyboard-response,298,560174,learnblock1,712.7000000029802,img/planet5_right.png,5,Community 2,NA,FALSE,f,j,NA,NA,NA,1,6,"11,12,7,3,1,8,4,2,14,5,9,13,15,6,10"
14396,commdev-image-keyboard-response,299,561429,learnblock1,152.09999999403954,img/planet4_left.png,4,Community 2,NA,TRUE,f,f,NA,NA,NA,1,6,"11,12,7,3,1,8,4,2,14,5,9,13,15,6,10"
14396,commdev-image-keyboard-response,300,562685,learnblock1,6,img/planet2_left.png,2,Community 2,NA,TRUE,f,f,NA,NA,NA,1,6,"11,12,7,3,1,8,4,2,14,5,9,13,15,6,10"
14396,commdev-image-keyboard-response,301,563942,learnblock1,253.29999999701977,img/planet14_right.png,14,Community 2,NA,FALSE,f,j,NA,NA,NA,1,6,"11,12,7,3,1,8,4,2,14,5,9,13,15,6,10"
14396,commdev-image-keyboard-response,302,565194,learnblock1,115.20000000298023,img/planet4_left.png,4,Community 2,NA,FALSE,j,f,NA,NA,NA,1,6,"11,12,7,3,1,8,4,2,14,5,9,13,15,6,10"
14396,commdev-image-keyboard-response,303,566451,learnblock1,92.6000000089407,img/planet8_left.png,8,Community 2,NA,FALSE,j,f,NA,NA,NA,1,6,"11,12,7,3,1,8,4,2,14,5,9,13,15,6,10"
14396,commdev-image-keyboard-response,304,567704,learnblock1,174,img/planet3_right.png,3,Community 1,NA,TRUE,j,j,NA,NA,NA,1,6,"11,12,7,3,1,8,4,2,14,5,9,13,15,6,10"
14396,commdev-image-keyboard-response,305,568959,learnblock1,126.19999998807907,img/planet11_right.png,11,Community 1,NA,FALSE,f,j,NA,NA,NA,1,6,"11,12,7,3,1,8,4,2,14,5,9,13,15,6,10"
14396,commdev-image-keyboard-response,306,570213,learnblock1,4.899999991059303,img/planet7_right.png,7,Community 1,NA,FALSE,f,j,NA,NA,NA,1,6,"11,12,7,3,1,8,4,2,14,5,9,13,15,6,10"
14396,commdev-image-keyboard-response,307,571465,learnblock1,134.19999998807907,img/planet3_left.png,3,Community 1,NA,FALSE,j,f,NA,NA,NA,1,6,"11,12,7,3,1,8,4,2,14,5,9,13,15,6,10"
14396,commdev-image-keyboard-response,308,572717,learnblock1,432,img/planet8_right.png,8,Community 2,NA,FALSE,f,j,NA,NA,NA,1,6,"11,12,7,3,1,8,4,2,14,5,9,13,15,6,10"
14396,commdev-image-keyboard-response,309,573974,learnblock1,262.29999999701977,img/planet5_left.png,5,Community 2,NA,FALSE,j,f,NA,NA,NA,1,6,"11,12,7,3,1,8,4,2,14,5,9,13,15,6,10"
14396,commdev-image-keyboard-response,310,575227,learnblock1,154.29999999701977,img/planet4_left.png,4,Community 2,NA,FALSE,j,f,NA,NA,NA,1,6,"11,12,7,3,1,8,4,2,14,5,9,13,15,6,10"
14396,commdev-image-keyboard-response,311,576484,learnblock1,133.59999999403954,img/planet8_right.png,8,Community 2,NA,FALSE,f,j,NA,NA,NA,1,6,"11,12,7,3,1,8,4,2,14,5,9,13,15,6,10"
14396,commdev-image-keyboard-response,312,577736,learnblock1,328.09999999403954,img/planet5_right.png,5,Community 2,NA,FALSE,f,j,NA,NA,NA,1,6,"11,12,7,3,1,8,4,2,14,5,9,13,15,6,10"
14396,commdev-image-keyboard-response,313,578988,learnblock1,193.69999998807907,img/planet4_right.png,4,Community 2,NA,TRUE,j,j,NA,NA,NA,1,6,"11,12,7,3,1,8,4,2,14,5,9,13,15,6,10"
14396,commdev-image-keyboard-response,314,580245,learnblock1,856.7000000029802,img/planet2_left.png,2,Community 2,NA,TRUE,f,f,NA,NA,NA,1,6,"11,12,7,3,1,8,4,2,14,5,9,13,15,6,10"
14396,commdev-image-keyboard-response,315,581499,learnblock1,706.0999999940395,img/planet13_right.png,13,Community 3,NA,TRUE,j,j,NA,NA,NA,1,6,"11,12,7,3,1,8,4,2,14,5,9,13,15,6,10"
14396,commdev-image-keyboard-response,316,582753,learnblock1,896.7000000029802,img/planet6_right.png,6,Community 3,NA,TRUE,j,j,NA,NA,NA,1,6,"11,12,7,3,1,8,4,2,14,5,9,13,15,6,10"
14396,commdev-image-keyboard-response,317,584007,learnblock1,null,img/planet9_left.png,9,Community 3,NA,FALSE,null,f,NA,NA,NA,1,6,"11,12,7,3,1,8,4,2,14,5,9,13,15,6,10"
14396,commdev-image-keyboard-response,318,585263,learnblock1,142.20000000298023,img/planet10_right.png,10,Community 3,NA,FALSE,f,j,NA,NA,NA,1,6,"11,12,7,3,1,8,4,2,14,5,9,13,15,6,10"
14396,commdev-image-keyboard-response,319,586518,learnblock1,null,img/planet9_right.png,9,Community 3,NA,FALSE,null,j,NA,NA,NA,1,6,"11,12,7,3,1,8,4,2,14,5,9,13,15,6,10"
14396,commdev-image-keyboard-response,320,587775,learnblock1,948.8999999910593,img/planet6_left.png,6,Community 3,NA,TRUE,f,f,NA,NA,NA,1,6,"11,12,7,3,1,8,4,2,14,5,9,13,15,6,10"
14396,commdev-image-keyboard-response,321,589029,learnblock1,1080.2999999970198,img/planet13_left.png,13,Community 3,NA,FALSE,j,f,NA,NA,NA,1,6,"11,12,7,3,1,8,4,2,14,5,9,13,15,6,10"
14396,commdev-image-keyboard-response,322,590283,learnblock1,822.2000000029802,img/planet2_left.png,2,Community 2,NA,TRUE,f,f,NA,NA,NA,1,6,"11,12,7,3,1,8,4,2,14,5,9,13,15,6,10"
14396,commdev-image-keyboard-response,323,591539,learnblock1,583.2999999970198,img/planet5_right.png,5,Community 2,NA,TRUE,j,j,NA,NA,NA,1,6,"11,12,7,3,1,8,4,2,14,5,9,13,15,6,10"
14396,commdev-image-keyboard-response,324,592792,learnblock1,762.5,img/planet4_right.png,4,Community 2,NA,TRUE,j,j,NA,NA,NA,1,6,"11,12,7,3,1,8,4,2,14,5,9,13,15,6,10"
14396,commdev-image-keyboard-response,325,594047,learnblock1,999.4000000059605,img/planet8_right.png,8,Community 2,NA,TRUE,j,j,NA,NA,NA,1,6,"11,12,7,3,1,8,4,2,14,5,9,13,15,6,10"
14396,commdev-image-keyboard-response,326,595301,learnblock1,892.1000000089407,img/planet5_left.png,5,Community 2,NA,TRUE,f,f,NA,NA,NA,1,6,"11,12,7,3,1,8,4,2,14,5,9,13,15,6,10"
14396,commdev-image-keyboard-response,327,596558,learnblock1,965.2999999970198,img/planet14_right.png,14,Community 2,NA,TRUE,j,j,NA,NA,NA,1,6,"11,12,7,3,1,8,4,2,14,5,9,13,15,6,10"
14396,commdev-image-keyboard-response,328,597813,learnblock1,732.2999999970198,img/planet2_left.png,2,Community 2,NA,TRUE,f,f,NA,NA,NA,1,6,"11,12,7,3,1,8,4,2,14,5,9,13,15,6,10"
14396,commdev-image-keyboard-response,329,599066,learnblock1,491.79999999701977,img/planet14_left.png,14,Community 2,NA,FALSE,j,f,NA,NA,NA,1,6,"11,12,7,3,1,8,4,2,14,5,9,13,15,6,10"
14396,commdev-image-keyboard-response,330,600321,learnblock1,1186.5,img/planet4_left.png,4,Community 2,NA,TRUE,f,f,NA,NA,NA,1,6,"11,12,7,3,1,8,4,2,14,5,9,13,15,6,10"
14396,commdev-image-keyboard-response,331,601579,learnblock1,413.70000000298023,img/planet14_right.png,14,Community 2,NA,TRUE,j,j,NA,NA,NA,1,6,"11,12,7,3,1,8,4,2,14,5,9,13,15,6,10"
14396,commdev-image-keyboard-response,332,602836,learnblock1,1.6000000089406967,img/planet4_right.png,4,Community 2,NA,TRUE,j,j,NA,NA,NA,1,6,"11,12,7,3,1,8,4,2,14,5,9,13,15,6,10"
14396,commdev-image-keyboard-response,333,604092,learnblock1,null,img/planet14_left.png,14,Community 2,NA,FALSE,null,f,NA,NA,NA,1,6,"11,12,7,3,1,8,4,2,14,5,9,13,15,6,10"
14396,commdev-image-keyboard-response,334,605345,learnblock1,772.7000000029802,img/planet8_right.png,8,Community 2,NA,TRUE,j,j,NA,NA,NA,1,6,"11,12,7,3,1,8,4,2,14,5,9,13,15,6,10"
14396,commdev-image-keyboard-response,335,606598,learnblock1,568.9000000059605,img/planet4_left.png,4,Community 2,NA,TRUE,f,f,NA,NA,NA,1,6,"11,12,7,3,1,8,4,2,14,5,9,13,15,6,10"
14396,commdev-image-keyboard-response,336,607850,learnblock1,744.4000000059605,img/planet5_right.png,5,Community 2,NA,TRUE,j,j,NA,NA,NA,1,6,"11,12,7,3,1,8,4,2,14,5,9,13,15,6,10"
14396,commdev-image-keyboard-response,337,609104,learnblock1,954.5999999940395,img/planet2_right.png,2,Community 2,NA,TRUE,j,j,NA,NA,NA,1,6,"11,12,7,3,1,8,4,2,14,5,9,13,15,6,10"
14396,commdev-image-keyboard-response,338,610358,learnblock1,1139.1000000089407,img/planet5_right.png,5,Community 2,NA,TRUE,j,j,NA,NA,NA,1,6,"11,12,7,3,1,8,4,2,14,5,9,13,15,6,10"
14396,commdev-image-keyboard-response,339,611613,learnblock1,830.2000000029802,img/planet4_right.png,4,Community 2,NA,TRUE,j,j,NA,NA,NA,1,6,"11,12,7,3,1,8,4,2,14,5,9,13,15,6,10"
14396,commdev-image-keyboard-response,340,612869,learnblock1,749.2000000029802,img/planet2_right.png,2,Community 2,NA,TRUE,j,j,NA,NA,NA,1,6,"11,12,7,3,1,8,4,2,14,5,9,13,15,6,10"
14396,commdev-image-keyboard-response,341,614123,learnblock1,636.7999999970198,img/planet14_right.png,14,Community 2,NA,TRUE,j,j,NA,NA,NA,1,6,"11,12,7,3,1,8,4,2,14,5,9,13,15,6,10"
14396,commdev-image-keyboard-response,342,615375,learnblock1,634.6999999880791,img/planet4_left.png,4,Community 2,NA,FALSE,j,f,NA,NA,NA,1,6,"11,12,7,3,1,8,4,2,14,5,9,13,15,6,10"
14396,commdev-image-keyboard-response,343,616632,learnblock1,1026.7999999970198,img/planet8_left.png,8,Community 2,NA,TRUE,f,f,NA,NA,NA,1,6,"11,12,7,3,1,8,4,2,14,5,9,13,15,6,10"
14396,commdev-image-keyboard-response,344,617890,learnblock1,1115.9000000059605,img/planet5_right.png,5,Community 2,NA,TRUE,j,j,NA,NA,NA,1,6,"11,12,7,3,1,8,4,2,14,5,9,13,15,6,10"
14396,commdev-image-keyboard-response,345,619144,learnblock1,779.2000000029802,img/planet8_left.png,8,Community 2,NA,FALSE,j,f,NA,NA,NA,1,6,"11,12,7,3,1,8,4,2,14,5,9,13,15,6,10"
14396,commdev-image-keyboard-response,346,620398,learnblock1,653.2000000029802,img/planet4_left.png,4,Community 2,NA,TRUE,f,f,NA,NA,NA,1,6,"11,12,7,3,1,8,4,2,14,5,9,13,15,6,10"
14396,commdev-image-keyboard-response,347,621654,learnblock1,135.5,img/planet2_right.png,2,Community 2,NA,TRUE,j,j,NA,NA,NA,1,6,"11,12,7,3,1,8,4,2,14,5,9,13,15,6,10"
14396,commdev-image-keyboard-response,351,652071,learnblock2,352.30000001192093,img/planet13_right.png,13,Community 3,NA,TRUE,j,j,NA,NA,NA,1,6,"11,12,7,3,1,8,4,2,14,5,9,13,15,6,10"
14396,commdev-image-keyboard-response,352,653325,learnblock2,117.90000000596046,img/planet6_left.png,6,Community 3,NA,FALSE,j,f,NA,NA,NA,1,6,"11,12,7,3,1,8,4,2,14,5,9,13,15,6,10"
14396,commdev-image-keyboard-response,353,654582,learnblock2,827.5,img/planet13_left.png,13,Community 3,NA,TRUE,f,f,NA,NA,NA,1,6,"11,12,7,3,1,8,4,2,14,5,9,13,15,6,10"
14396,commdev-image-keyboard-response,354,655837,learnblock2,856.7000000029802,img/planet6_left.png,6,Community 3,NA,TRUE,f,f,NA,NA,NA,1,6,"11,12,7,3,1,8,4,2,14,5,9,13,15,6,10"
14396,commdev-image-keyboard-response,355,657094,learnblock2,852.5,img/planet10_right.png,10,Community 3,NA,TRUE,j,j,NA,NA,NA,1,6,"11,12,7,3,1,8,4,2,14,5,9,13,15,6,10"
14396,commdev-image-keyboard-response,356,658351,learnblock2,776.2999999970198,img/planet6_left.png,6,Community 3,NA,TRUE,f,f,NA,NA,NA,1,6,"11,12,7,3,1,8,4,2,14,5,9,13,15,6,10"
14396,commdev-image-keyboard-response,357,659608,learnblock2,702.2999999970198,img/planet13_left.png,13,Community 3,NA,FALSE,j,f,NA,NA,NA,1,6,"11,12,7,3,1,8,4,2,14,5,9,13,15,6,10"
14396,commdev-image-keyboard-response,358,660861,learnblock2,null,img/planet15_right.png,15,Community 3,NA,FALSE,null,j,NA,NA,NA,1,6,"11,12,7,3,1,8,4,2,14,5,9,13,15,6,10"
14396,commdev-image-keyboard-response,359,662117,learnblock2,null,img/planet6_left.png,6,Community 3,NA,FALSE,null,f,NA,NA,NA,1,6,"11,12,7,3,1,8,4,2,14,5,9,13,15,6,10"
14396,commdev-image-keyboard-response,360,663370,learnblock2,746,img/planet15_right.png,15,Community 3,NA,TRUE,j,j,NA,NA,NA,1,6,"11,12,7,3,1,8,4,2,14,5,9,13,15,6,10"
14396,commdev-image-keyboard-response,361,664625,learnblock2,null,img/planet9_right.png,9,Community 3,NA,FALSE,null,j,NA,NA,NA,1,6,"11,12,7,3,1,8,4,2,14,5,9,13,15,6,10"
14396,commdev-image-keyboard-response,362,665879,learnblock2,812,img/planet15_right.png,15,Community 3,NA,TRUE,j,j,NA,NA,NA,1,6,"11,12,7,3,1,8,4,2,14,5,9,13,15,6,10"
14396,commdev-image-keyboard-response,363,667135,learnblock2,null,img/planet13_right.png,13,Community 3,NA,FALSE,null,j,NA,NA,NA,1,6,"11,12,7,3,1,8,4,2,14,5,9,13,15,6,10"
14396,commdev-image-keyboard-response,364,668392,learnblock2,null,img/planet10_left.png,10,Community 3,NA,FALSE,null,f,NA,NA,NA,1,6,"11,12,7,3,1,8,4,2,14,5,9,13,15,6,10"
14396,commdev-image-keyboard-response,365,669648,learnblock2,null,img/planet13_left.png,13,Community 3,NA,FALSE,null,f,NA,NA,NA,1,6,"11,12,7,3,1,8,4,2,14,5,9,13,15,6,10"
14396,commdev-image-keyboard-response,366,670903,learnblock2,null,img/planet2_left.png,2,Community 2,NA,FALSE,null,f,NA,NA,NA,1,6,"11,12,7,3,1,8,4,2,14,5,9,13,15,6,10"
14396,commdev-image-keyboard-response,367,672158,learnblock2,682.7000000029802,img/planet5_right.png,5,Community 2,NA,TRUE,j,j,NA,NA,NA,1,6,"11,12,7,3,1,8,4,2,14,5,9,13,15,6,10"
14396,commdev-image-keyboard-response,368,673415,learnblock2,836.4000000059605,img/planet14_right.png,14,Community 2,NA,TRUE,j,j,NA,NA,NA,1,6,"11,12,7,3,1,8,4,2,14,5,9,13,15,6,10"
14396,commdev-image-keyboard-response,369,674671,learnblock2,853.6000000089407,img/planet5_right.png,5,Community 2,NA,TRUE,j,j,NA,NA,NA,1,6,"11,12,7,3,1,8,4,2,14,5,9,13,15,6,10"
14396,commdev-image-keyboard-response,370,675926,learnblock2,null,img/planet14_right.png,14,Community 2,NA,FALSE,null,j,NA,NA,NA,1,6,"11,12,7,3,1,8,4,2,14,5,9,13,15,6,10"
14396,commdev-image-keyboard-response,371,677181,learnblock2,193.20000000298023,img/planet8_left.png,8,Community 2,NA,FALSE,j,f,NA,NA,NA,1,6,"11,12,7,3,1,8,4,2,14,5,9,13,15,6,10"
14396,commdev-image-keyboard-response,372,678433,learnblock2,748.6000000089407,img/planet5_right.png,5,Community 2,NA,TRUE,j,j,NA,NA,NA,1,6,"11,12,7,3,1,8,4,2,14,5,9,13,15,6,10"
14396,commdev-image-keyboard-response,373,679686,learnblock2,1146.5999999940395,img/planet14_right.png,14,Community 2,NA,TRUE,j,j,NA,NA,NA,1,6,"11,12,7,3,1,8,4,2,14,5,9,13,15,6,10"
14396,commdev-image-keyboard-response,374,680943,learnblock2,383.69999998807907,img/planet8_right.png,8,Community 2,NA,TRUE,j,j,NA,NA,NA,1,6,"11,12,7,3,1,8,4,2,14,5,9,13,15,6,10"
14396,commdev-image-keyboard-response,375,682200,learnblock2,82.5,img/planet14_left.png,14,Community 2,NA,FALSE,j,f,NA,NA,NA,1,6,"11,12,7,3,1,8,4,2,14,5,9,13,15,6,10"
14396,commdev-image-keyboard-response,376,683455,learnblock2,89,img/planet5_left.png,5,Community 2,NA,FALSE,j,f,NA,NA,NA,1,6,"11,12,7,3,1,8,4,2,14,5,9,13,15,6,10"
14396,commdev-image-keyboard-response,377,684711,learnblock2,96.69999998807907,img/planet2_right.png,2,Community 2,NA,TRUE,j,j,NA,NA,NA,1,6,"11,12,7,3,1,8,4,2,14,5,9,13,15,6,10"
14396,commdev-image-keyboard-response,378,685965,learnblock2,9.400000005960464,img/planet13_left.png,13,Community 3,NA,FALSE,j,f,NA,NA,NA,1,6,"11,12,7,3,1,8,4,2,14,5,9,13,15,6,10"
14396,commdev-image-keyboard-response,379,687218,learnblock2,527.2999999970198,img/planet6_right.png,6,Community 3,NA,TRUE,j,j,NA,NA,NA,1,6,"11,12,7,3,1,8,4,2,14,5,9,13,15,6,10"
14396,commdev-image-keyboard-response,380,688476,learnblock2,214.09999999403954,img/planet13_left.png,13,Community 3,NA,FALSE,j,f,NA,NA,NA,1,6,"11,12,7,3,1,8,4,2,14,5,9,13,15,6,10"
14396,commdev-image-keyboard-response,381,689733,learnblock2,504.5,img/planet15_right.png,15,Community 3,NA,TRUE,j,j,NA,NA,NA,1,6,"11,12,7,3,1,8,4,2,14,5,9,13,15,6,10"
14396,commdev-image-keyboard-response,382,690989,learnblock2,null,img/planet13_left.png,13,Community 3,NA,FALSE,null,f,NA,NA,NA,1,6,"11,12,7,3,1,8,4,2,14,5,9,13,15,6,10"
14396,commdev-image-keyboard-response,383,692245,learnblock2,256.8999999910593,img/planet15_left.png,15,Community 3,NA,FALSE,j,f,NA,NA,NA,1,6,"11,12,7,3,1,8,4,2,14,5,9,13,15,6,10"
14396,commdev-image-keyboard-response,384,693501,learnblock2,null,img/planet9_right.png,9,Community 3,NA,FALSE,null,j,NA,NA,NA,1,6,"11,12,7,3,1,8,4,2,14,5,9,13,15,6,10"
14396,commdev-image-keyboard-response,385,694758,learnblock2,509.29999999701977,img/planet6_left.png,6,Community 3,NA,FALSE,j,f,NA,NA,NA,1,6,"11,12,7,3,1,8,4,2,14,5,9,13,15,6,10"
14396,commdev-image-keyboard-response,386,696011,learnblock2,null,img/planet15_left.png,15,Community 3,NA,FALSE,null,f,NA,NA,NA,1,6,"11,12,7,3,1,8,4,2,14,5,9,13,15,6,10"
14396,commdev-image-keyboard-response,387,697264,learnblock2,836.8999999910593,img/planet6_left.png,6,Community 3,NA,FALSE,j,f,NA,NA,NA,1,6,"11,12,7,3,1,8,4,2,14,5,9,13,15,6,10"
14396,commdev-image-keyboard-response,388,698519,learnblock2,null,img/planet15_left.png,15,Community 3,NA,FALSE,null,f,NA,NA,NA,1,6,"11,12,7,3,1,8,4,2,14,5,9,13,15,6,10"
14396,commdev-image-keyboard-response,389,699775,learnblock2,null,img/planet13_left.png,13,Community 3,NA,FALSE,null,f,NA,NA,NA,1,6,"11,12,7,3,1,8,4,2,14,5,9,13,15,6,10"
14396,commdev-image-keyboard-response,390,701027,learnblock2,null,img/planet6_left.png,6,Community 3,NA,FALSE,null,f,NA,NA,NA,1,6,"11,12,7,3,1,8,4,2,14,5,9,13,15,6,10"
14396,commdev-image-keyboard-response,391,702283,learnblock2,null,img/planet13_left.png,13,Community 3,NA,FALSE,null,f,NA,NA,NA,1,6,"11,12,7,3,1,8,4,2,14,5,9,13,15,6,10"
14396,commdev-image-keyboard-response,392,703538,learnblock2,868.7999999970198,img/planet15_right.png,15,Community 3,NA,TRUE,j,j,NA,NA,NA,1,6,"11,12,7,3,1,8,4,2,14,5,9,13,15,6,10"
14396,commdev-image-keyboard-response,393,704795,learnblock2,null,img/planet13_right.png,13,Community 3,NA,FALSE,null,j,NA,NA,NA,1,6,"11,12,7,3,1,8,4,2,14,5,9,13,15,6,10"
14396,commdev-image-keyboard-response,394,706049,learnblock2,581.1000000089407,img/planet6_left.png,6,Community 3,NA,FALSE,j,f,NA,NA,NA,1,6,"11,12,7,3,1,8,4,2,14,5,9,13,15,6,10"
14396,commdev-image-keyboard-response,395,707302,learnblock2,406.29999999701977,img/planet9_left.png,9,Community 3,NA,FALSE,j,f,NA,NA,NA,1,6,"11,12,7,3,1,8,4,2,14,5,9,13,15,6,10"
14396,commdev-image-keyboard-response,396,708559,learnblock2,15.099999994039536,img/planet15_left.png,15,Community 3,NA,FALSE,j,f,NA,NA,NA,1,6,"11,12,7,3,1,8,4,2,14,5,9,13,15,6,10"
14396,commdev-image-keyboard-response,397,709811,learnblock2,599.8999999910593,img/planet9_left.png,9,Community 3,NA,FALSE,j,f,NA,NA,NA,1,6,"11,12,7,3,1,8,4,2,14,5,9,13,15,6,10"
14396,commdev-image-keyboard-response,398,711068,learnblock2,198.20000000298023,img/planet1_left.png,1,Community 1,NA,FALSE,j,f,NA,NA,NA,1,6,"11,12,7,3,1,8,4,2,14,5,9,13,15,6,10"
14396,commdev-image-keyboard-response,399,712322,learnblock2,344.40000000596046,img/planet12_right.png,12,Community 1,NA,TRUE,j,j,NA,NA,NA,1,6,"11,12,7,3,1,8,4,2,14,5,9,13,15,6,10"
14396,commdev-image-keyboard-response,400,713578,learnblock2,48.20000000298023,img/planet1_right.png,1,Community 1,NA,TRUE,j,j,NA,NA,NA,1,6,"11,12,7,3,1,8,4,2,14,5,9,13,15,6,10"
14396,commdev-image-keyboard-response,401,714832,learnblock2,23.600000008940697,img/planet12_right.png,12,Community 1,NA,TRUE,j,j,NA,NA,NA,1,6,"11,12,7,3,1,8,4,2,14,5,9,13,15,6,10"
14396,commdev-image-keyboard-response,402,716089,learnblock2,129.29999999701977,img/planet3_left.png,3,Community 1,NA,FALSE,j,f,NA,NA,NA,1,6,"11,12,7,3,1,8,4,2,14,5,9,13,15,6,10"
14396,commdev-image-keyboard-response,403,717343,learnblock2,80.5,img/planet7_left.png,7,Community 1,NA,FALSE,j,f,NA,NA,NA,1,6,"11,12,7,3,1,8,4,2,14,5,9,13,15,6,10"
14396,commdev-image-keyboard-response,404,718596,learnblock2,164.1000000089407,img/planet1_left.png,1,Community 1,NA,FALSE,j,f,NA,NA,NA,1,6,"11,12,7,3,1,8,4,2,14,5,9,13,15,6,10"
14396,commdev-image-keyboard-response,405,719847,learnblock2,null,img/planet11_right.png,11,Community 1,NA,FALSE,null,j,NA,NA,NA,1,6,"11,12,7,3,1,8,4,2,14,5,9,13,15,6,10"
14396,commdev-image-keyboard-response,406,721104,learnblock2,null,img/planet3_right.png,3,Community 1,NA,FALSE,null,j,NA,NA,NA,1,6,"11,12,7,3,1,8,4,2,14,5,9,13,15,6,10"
14396,commdev-image-keyboard-response,407,722355,learnblock2,521.7999999970198,img/planet12_right.png,12,Community 1,NA,TRUE,j,j,NA,NA,NA,1,6,"11,12,7,3,1,8,4,2,14,5,9,13,15,6,10"
14396,commdev-image-keyboard-response,408,723609,learnblock2,159.79999999701977,img/planet1_left.png,1,Community 1,NA,FALSE,j,f,NA,NA,NA,1,6,"11,12,7,3,1,8,4,2,14,5,9,13,15,6,10"
14396,commdev-image-keyboard-response,409,724863,learnblock2,90.3999999910593,img/planet12_left.png,12,Community 1,NA,FALSE,j,f,NA,NA,NA,1,6,"11,12,7,3,1,8,4,2,14,5,9,13,15,6,10"
14396,commdev-image-keyboard-response,410,726119,learnblock2,null,img/planet3_right.png,3,Community 1,NA,FALSE,null,j,NA,NA,NA,1,6,"11,12,7,3,1,8,4,2,14,5,9,13,15,6,10"
14396,commdev-image-keyboard-response,411,727372,learnblock2,161.3999999910593,img/planet8_right.png,8,Community 2,NA,TRUE,j,j,NA,NA,NA,1,6,"11,12,7,3,1,8,4,2,14,5,9,13,15,6,10"
14396,commdev-image-keyboard-response,412,728624,learnblock2,226.70000000298023,img/planet5_left.png,5,Community 2,NA,FALSE,j,f,NA,NA,NA,1,6,"11,12,7,3,1,8,4,2,14,5,9,13,15,6,10"
14396,commdev-image-keyboard-response,413,729877,learnblock2,216.90000000596046,img/planet8_left.png,8,Community 2,NA,FALSE,j,f,NA,NA,NA,1,6,"11,12,7,3,1,8,4,2,14,5,9,13,15,6,10"
14396,commdev-image-keyboard-response,414,731133,learnblock2,115.20000000298023,img/planet3_right.png,3,Community 1,NA,TRUE,j,j,NA,NA,NA,1,6,"11,12,7,3,1,8,4,2,14,5,9,13,15,6,10"
14396,commdev-image-keyboard-response,415,732386,learnblock2,368.20000000298023,img/planet12_right.png,12,Community 1,NA,TRUE,j,j,NA,NA,NA,1,6,"11,12,7,3,1,8,4,2,14,5,9,13,15,6,10"
14396,commdev-image-keyboard-response,416,733642,learnblock2,null,img/planet3_right.png,3,Community 1,NA,FALSE,null,j,NA,NA,NA,1,6,"11,12,7,3,1,8,4,2,14,5,9,13,15,6,10"
14396,commdev-image-keyboard-response,417,734897,learnblock2,261.09999999403954,img/planet12_right.png,12,Community 1,NA,TRUE,j,j,NA,NA,NA,1,6,"11,12,7,3,1,8,4,2,14,5,9,13,15,6,10"
14396,commdev-image-keyboard-response,418,736149,learnblock2,75.29999999701977,img/planet7_right.png,7,Community 1,NA,TRUE,j,j,NA,NA,NA,1,6,"11,12,7,3,1,8,4,2,14,5,9,13,15,6,10"
14396,commdev-image-keyboard-response,419,737405,learnblock2,859.5999999940395,img/planet3_right.png,3,Community 1,NA,TRUE,j,j,NA,NA,NA,1,6,"11,12,7,3,1,8,4,2,14,5,9,13,15,6,10"
14396,commdev-image-keyboard-response,420,738660,learnblock2,655.8999999910593,img/planet11_left.png,11,Community 1,NA,FALSE,j,f,NA,NA,NA,1,6,"11,12,7,3,1,8,4,2,14,5,9,13,15,6,10"
14396,commdev-image-keyboard-response,421,739913,learnblock2,732.1000000089407,img/planet1_left.png,1,Community 1,NA,FALSE,j,f,NA,NA,NA,1,6,"11,12,7,3,1,8,4,2,14,5,9,13,15,6,10"
14396,commdev-image-keyboard-response,422,741165,learnblock2,239.29999999701977,img/planet9_left.png,9,Community 3,NA,FALSE,j,f,NA,NA,NA,1,6,"11,12,7,3,1,8,4,2,14,5,9,13,15,6,10"
14396,commdev-image-keyboard-response,423,742421,learnblock2,610.3999999910593,img/planet1_left.png,1,Community 1,NA,FALSE,j,f,NA,NA,NA,1,6,"11,12,7,3,1,8,4,2,14,5,9,13,15,6,10"
14396,commdev-image-keyboard-response,424,743678,learnblock2,102.70000000298023,img/planet9_left.png,9,Community 3,NA,FALSE,j,f,NA,NA,NA,1,6,"11,12,7,3,1,8,4,2,14,5,9,13,15,6,10"
14396,commdev-image-keyboard-response,425,744930,learnblock2,142.09999999403954,img/planet10_left.png,10,Community 3,NA,FALSE,j,f,NA,NA,NA,1,6,"11,12,7,3,1,8,4,2,14,5,9,13,15,6,10"
14396,commdev-image-keyboard-response,426,746187,learnblock2,574.3999999910593,img/planet6_right.png,6,Community 3,NA,TRUE,j,j,NA,NA,NA,1,6,"11,12,7,3,1,8,4,2,14,5,9,13,15,6,10"
14396,commdev-image-keyboard-response,427,747444,learnblock2,134.29999999701977,img/planet9_left.png,9,Community 3,NA,FALSE,j,f,NA,NA,NA,1,6,"11,12,7,3,1,8,4,2,14,5,9,13,15,6,10"
14396,commdev-image-keyboard-response,428,748696,learnblock2,393.5,img/planet10_right.png,10,Community 3,NA,TRUE,j,j,NA,NA,NA,1,6,"11,12,7,3,1,8,4,2,14,5,9,13,15,6,10"
14396,commdev-image-keyboard-response,429,749951,learnblock2,102.40000000596046,img/planet6_left.png,6,Community 3,NA,FALSE,j,f,NA,NA,NA,1,6,"11,12,7,3,1,8,4,2,14,5,9,13,15,6,10"
14396,commdev-image-keyboard-response,430,751203,learnblock2,28.200000002980232,img/planet15_left.png,15,Community 3,NA,FALSE,j,f,NA,NA,NA,1,6,"11,12,7,3,1,8,4,2,14,5,9,13,15,6,10"
14396,commdev-image-keyboard-response,431,752459,learnblock2,609.1000000089407,img/planet10_right.png,10,Community 3,NA,TRUE,j,j,NA,NA,NA,1,6,"11,12,7,3,1,8,4,2,14,5,9,13,15,6,10"
14396,commdev-image-keyboard-response,432,753712,learnblock2,89.20000000298023,img/planet15_right.png,15,Community 3,NA,TRUE,j,j,NA,NA,NA,1,6,"11,12,7,3,1,8,4,2,14,5,9,13,15,6,10"
14396,commdev-image-keyboard-response,433,754965,learnblock2,125.59999999403954,img/planet10_left.png,10,Community 3,NA,TRUE,f,f,NA,NA,NA,1,6,"11,12,7,3,1,8,4,2,14,5,9,13,15,6,10"
14396,commdev-image-keyboard-response,434,756222,learnblock2,253.79999999701977,img/planet15_right.png,15,Community 3,NA,TRUE,j,j,NA,NA,NA,1,6,"11,12,7,3,1,8,4,2,14,5,9,13,15,6,10"
14396,commdev-image-keyboard-response,435,757476,learnblock2,22.5,img/planet13_right.png,13,Community 3,NA,TRUE,j,j,NA,NA,NA,1,6,"11,12,7,3,1,8,4,2,14,5,9,13,15,6,10"
14396,commdev-image-keyboard-response,436,758729,learnblock2,56.70000000298023,img/planet6_left.png,6,Community 3,NA,FALSE,j,f,NA,NA,NA,1,6,"11,12,7,3,1,8,4,2,14,5,9,13,15,6,10"
14396,commdev-image-keyboard-response,437,759982,learnblock2,0.7000000029802322,img/planet15_left.png,15,Community 3,NA,FALSE,j,f,NA,NA,NA,1,6,"11,12,7,3,1,8,4,2,14,5,9,13,15,6,10"
14396,commdev-image-keyboard-response,438,761236,learnblock2,87.8999999910593,img/planet6_right.png,6,Community 3,NA,TRUE,j,j,NA,NA,NA,1,6,"11,12,7,3,1,8,4,2,14,5,9,13,15,6,10"
14396,commdev-image-keyboard-response,439,762489,learnblock2,181.8999999910593,img/planet10_left.png,10,Community 3,NA,FALSE,j,f,NA,NA,NA,1,6,"11,12,7,3,1,8,4,2,14,5,9,13,15,6,10"
14396,commdev-image-keyboard-response,440,763745,learnblock2,157.5,img/planet6_right.png,6,Community 3,NA,TRUE,j,j,NA,NA,NA,1,6,"11,12,7,3,1,8,4,2,14,5,9,13,15,6,10"
14396,commdev-image-keyboard-response,441,765002,learnblock2,715.0999999940395,img/planet9_left.png,9,Community 3,NA,TRUE,f,f,NA,NA,NA,1,6,"11,12,7,3,1,8,4,2,14,5,9,13,15,6,10"
14396,commdev-image-keyboard-response,442,766259,learnblock2,580.2999999970198,img/planet10_right.png,10,Community 3,NA,TRUE,j,j,NA,NA,NA,1,6,"11,12,7,3,1,8,4,2,14,5,9,13,15,6,10"
14396,commdev-image-keyboard-response,443,767516,learnblock2,532.2000000029802,img/planet15_left.png,15,Community 3,NA,TRUE,f,f,NA,NA,NA,1,6,"11,12,7,3,1,8,4,2,14,5,9,13,15,6,10"
14396,commdev-image-keyboard-response,444,768773,learnblock2,535.5,img/planet9_right.png,9,Community 3,NA,TRUE,j,j,NA,NA,NA,1,6,"11,12,7,3,1,8,4,2,14,5,9,13,15,6,10"
14396,commdev-image-keyboard-response,445,770027,learnblock2,811.8999999910593,img/planet10_right.png,10,Community 3,NA,TRUE,j,j,NA,NA,NA,1,6,"11,12,7,3,1,8,4,2,14,5,9,13,15,6,10"
14396,commdev-image-keyboard-response,446,771281,learnblock2,593.7999999970198,img/planet13_left.png,13,Community 3,NA,FALSE,j,f,NA,NA,NA,1,6,"11,12,7,3,1,8,4,2,14,5,9,13,15,6,10"
14396,commdev-image-keyboard-response,447,772536,learnblock2,622.1999999880791,img/planet6_right.png,6,Community 3,NA,TRUE,j,j,NA,NA,NA,1,6,"11,12,7,3,1,8,4,2,14,5,9,13,15,6,10"
14396,commdev-image-keyboard-response,448,773793,learnblock2,1020.7000000029802,img/planet10_right.png,10,Community 3,NA,TRUE,j,j,NA,NA,NA,1,6,"11,12,7,3,1,8,4,2,14,5,9,13,15,6,10"
14396,commdev-image-keyboard-response,449,775050,learnblock2,783.4000000059605,img/planet6_left.png,6,Community 3,NA,TRUE,f,f,NA,NA,NA,1,6,"11,12,7,3,1,8,4,2,14,5,9,13,15,6,10"
14396,commdev-image-keyboard-response,450,776307,learnblock2,816.2000000029802,img/planet9_left.png,9,Community 3,NA,TRUE,f,f,NA,NA,NA,1,6,"11,12,7,3,1,8,4,2,14,5,9,13,15,6,10"
14396,commdev-image-keyboard-response,451,777561,learnblock2,816.9000000059605,img/planet1_left.png,1,Community 1,NA,TRUE,f,f,NA,NA,NA,1,6,"11,12,7,3,1,8,4,2,14,5,9,13,15,6,10"
14396,commdev-image-keyboard-response,452,778815,learnblock2,822.2000000029802,img/planet7_left.png,7,Community 1,NA,TRUE,f,f,NA,NA,NA,1,6,"11,12,7,3,1,8,4,2,14,5,9,13,15,6,10"
14396,commdev-image-keyboard-response,453,780069,learnblock2,791.7999999970198,img/planet12_left.png,12,Community 1,NA,TRUE,f,f,NA,NA,NA,1,6,"11,12,7,3,1,8,4,2,14,5,9,13,15,6,10"
14396,commdev-image-keyboard-response,454,781326,learnblock2,846.6000000089407,img/planet1_right.png,1,Community 1,NA,TRUE,j,j,NA,NA,NA,1,6,"11,12,7,3,1,8,4,2,14,5,9,13,15,6,10"
14396,commdev-image-keyboard-response,455,782583,learnblock2,857.1000000089407,img/planet11_right.png,11,Community 1,NA,TRUE,j,j,NA,NA,NA,1,6,"11,12,7,3,1,8,4,2,14,5,9,13,15,6,10"
14396,commdev-image-keyboard-response,456,783840,learnblock2,471,img/planet1_left.png,1,Community 1,NA,FALSE,j,f,NA,NA,NA,1,6,"11,12,7,3,1,8,4,2,14,5,9,13,15,6,10"
14396,commdev-image-keyboard-response,457,785092,learnblock2,52.599999994039536,img/planet9_right.png,9,Community 3,NA,TRUE,j,j,NA,NA,NA,1,6,"11,12,7,3,1,8,4,2,14,5,9,13,15,6,10"
14396,commdev-image-keyboard-response,458,786347,learnblock2,76,img/planet6_left.png,6,Community 3,NA,TRUE,f,f,NA,NA,NA,1,6,"11,12,7,3,1,8,4,2,14,5,9,13,15,6,10"
14396,commdev-image-keyboard-response,459,787604,learnblock2,28.600000008940697,img/planet13_right.png,13,Community 3,NA,FALSE,f,j,NA,NA,NA,1,6,"11,12,7,3,1,8,4,2,14,5,9,13,15,6,10"
14396,commdev-image-keyboard-response,460,788858,learnblock2,86.20000000298023,img/planet2_left.png,2,Community 2,NA,TRUE,f,f,NA,NA,NA,1,6,"11,12,7,3,1,8,4,2,14,5,9,13,15,6,10"
14396,commdev-image-keyboard-response,461,790111,learnblock2,62.5,img/planet5_left.png,5,Community 2,NA,TRUE,f,f,NA,NA,NA,1,6,"11,12,7,3,1,8,4,2,14,5,9,13,15,6,10"
14396,commdev-image-keyboard-response,462,791363,learnblock2,74,img/planet14_right.png,14,Community 2,NA,FALSE,f,j,NA,NA,NA,1,6,"11,12,7,3,1,8,4,2,14,5,9,13,15,6,10"
14396,commdev-image-keyboard-response,463,792619,learnblock2,82.70000000298023,img/planet4_left.png,4,Community 2,NA,TRUE,f,f,NA,NA,NA,1,6,"11,12,7,3,1,8,4,2,14,5,9,13,15,6,10"
14396,commdev-image-keyboard-response,464,793872,learnblock2,322.20000000298023,img/planet2_left.png,2,Community 2,NA,TRUE,f,f,NA,NA,NA,1,6,"11,12,7,3,1,8,4,2,14,5,9,13,15,6,10"
14396,commdev-image-keyboard-response,465,795127,learnblock2,79.59999999403954,img/planet13_left.png,13,Community 3,NA,FALSE,j,f,NA,NA,NA,1,6,"11,12,7,3,1,8,4,2,14,5,9,13,15,6,10"
14396,commdev-image-keyboard-response,466,796381,learnblock2,42.1000000089407,img/planet2_left.png,2,Community 2,NA,TRUE,f,f,NA,NA,NA,1,6,"11,12,7,3,1,8,4,2,14,5,9,13,15,6,10"
14396,commdev-image-keyboard-response,467,797638,learnblock2,723.2000000029802,img/planet13_right.png,13,Community 3,NA,TRUE,j,j,NA,NA,NA,1,6,"11,12,7,3,1,8,4,2,14,5,9,13,15,6,10"
14396,commdev-image-keyboard-response,468,798891,learnblock2,399.19999998807907,img/planet6_right.png,6,Community 3,NA,FALSE,f,j,NA,NA,NA,1,6,"11,12,7,3,1,8,4,2,14,5,9,13,15,6,10"
14396,commdev-image-keyboard-response,469,800146,learnblock2,653.5,img/planet10_right.png,10,Community 3,NA,TRUE,j,j,NA,NA,NA,1,6,"11,12,7,3,1,8,4,2,14,5,9,13,15,6,10"
14396,commdev-image-keyboard-response,470,801401,learnblock2,530.2999999970198,img/planet6_left.png,6,Community 3,NA,TRUE,f,f,NA,NA,NA,1,6,"11,12,7,3,1,8,4,2,14,5,9,13,15,6,10"
14396,commdev-image-keyboard-response,471,802658,learnblock2,334.59999999403954,img/planet13_right.png,13,Community 3,NA,TRUE,j,j,NA,NA,NA,1,6,"11,12,7,3,1,8,4,2,14,5,9,13,15,6,10"
14396,commdev-image-keyboard-response,472,803915,learnblock2,188.29999999701977,img/planet2_left.png,2,Community 2,NA,TRUE,f,f,NA,NA,NA,1,6,"11,12,7,3,1,8,4,2,14,5,9,13,15,6,10"
14396,commdev-image-keyboard-response,473,805173,learnblock2,919.7999999970198,img/planet4_right.png,4,Community 2,NA,FALSE,f,j,NA,NA,NA,1,6,"11,12,7,3,1,8,4,2,14,5,9,13,15,6,10"
14396,commdev-image-keyboard-response,474,806429,learnblock2,818.2000000029802,img/planet5_left.png,5,Community 2,NA,FALSE,j,f,NA,NA,NA,1,6,"11,12,7,3,1,8,4,2,14,5,9,13,15,6,10"
14396,commdev-image-keyboard-response,475,807686,learnblock2,876.2999999970198,img/planet2_right.png,2,Community 2,NA,FALSE,f,j,NA,NA,NA,1,6,"11,12,7,3,1,8,4,2,14,5,9,13,15,6,10"
14396,commdev-image-keyboard-response,476,808943,learnblock2,942,img/planet14_left.png,14,Community 2,NA,FALSE,j,f,NA,NA,NA,1,6,"11,12,7,3,1,8,4,2,14,5,9,13,15,6,10"
14396,commdev-image-keyboard-response,477,810197,learnblock2,1137.2000000029802,img/planet2_left.png,2,Community 2,NA,TRUE,f,f,NA,NA,NA,1,6,"11,12,7,3,1,8,4,2,14,5,9,13,15,6,10"
14396,commdev-image-keyboard-response,478,811454,learnblock2,null,img/planet13_left.png,13,Community 3,NA,FALSE,null,f,NA,NA,NA,1,6,"11,12,7,3,1,8,4,2,14,5,9,13,15,6,10"
14396,commdev-image-keyboard-response,479,812711,learnblock2,713.3000000119209,img/planet6_right.png,6,Community 3,NA,TRUE,j,j,NA,NA,NA,1,6,"11,12,7,3,1,8,4,2,14,5,9,13,15,6,10"
14396,commdev-image-keyboard-response,480,813964,learnblock2,384,img/planet15_right.png,15,Community 3,NA,FALSE,f,j,NA,NA,NA,1,6,"11,12,7,3,1,8,4,2,14,5,9,13,15,6,10"
14396,commdev-image-keyboard-response,481,815217,learnblock2,371.3999999910593,img/planet13_right.png,13,Community 3,NA,FALSE,f,j,NA,NA,NA,1,6,"11,12,7,3,1,8,4,2,14,5,9,13,15,6,10"
14396,commdev-image-keyboard-response,482,816474,learnblock2,null,img/planet2_right.png,2,Community 2,NA,FALSE,null,j,NA,NA,NA,1,6,"11,12,7,3,1,8,4,2,14,5,9,13,15,6,10"
14396,commdev-image-keyboard-response,483,817731,learnblock2,null,img/planet13_right.png,13,Community 3,NA,FALSE,null,j,NA,NA,NA,1,6,"11,12,7,3,1,8,4,2,14,5,9,13,15,6,10"
14396,commdev-image-keyboard-response,484,818984,learnblock2,null,img/planet10_right.png,10,Community 3,NA,FALSE,null,j,NA,NA,NA,1,6,"11,12,7,3,1,8,4,2,14,5,9,13,15,6,10"
14396,commdev-image-keyboard-response,485,820240,learnblock2,200.8999999910593,img/planet15_right.png,15,Community 3,NA,FALSE,f,j,NA,NA,NA,1,6,"11,12,7,3,1,8,4,2,14,5,9,13,15,6,10"
14396,commdev-image-keyboard-response,486,821497,learnblock2,null,img/planet9_right.png,9,Community 3,NA,FALSE,null,j,NA,NA,NA,1,6,"11,12,7,3,1,8,4,2,14,5,9,13,15,6,10"
14396,commdev-image-keyboard-response,487,822754,learnblock2,null,img/planet15_right.png,15,Community 3,NA,FALSE,null,j,NA,NA,NA,1,6,"11,12,7,3,1,8,4,2,14,5,9,13,15,6,10"
14396,commdev-image-keyboard-response,488,824010,learnblock2,null,img/planet6_right.png,6,Community 3,NA,FALSE,null,j,NA,NA,NA,1,6,"11,12,7,3,1,8,4,2,14,5,9,13,15,6,10"
14396,commdev-image-keyboard-response,489,825263,learnblock2,748.7000000029802,img/planet10_left.png,10,Community 3,NA,TRUE,f,f,NA,NA,NA,1,6,"11,12,7,3,1,8,4,2,14,5,9,13,15,6,10"
14396,commdev-image-keyboard-response,490,826518,learnblock2,991,img/planet13_right.png,13,Community 3,NA,FALSE,f,j,NA,NA,NA,1,6,"11,12,7,3,1,8,4,2,14,5,9,13,15,6,10"
14396,commdev-image-keyboard-response,491,827773,learnblock2,1216,img/planet15_left.png,15,Community 3,NA,TRUE,f,f,NA,NA,NA,1,6,"11,12,7,3,1,8,4,2,14,5,9,13,15,6,10"
14396,commdev-image-keyboard-response,492,829030,learnblock2,null,img/planet13_right.png,13,Community 3,NA,FALSE,null,j,NA,NA,NA,1,6,"11,12,7,3,1,8,4,2,14,5,9,13,15,6,10"
14396,commdev-image-keyboard-response,493,830287,learnblock2,null,img/planet2_right.png,2,Community 2,NA,FALSE,null,j,NA,NA,NA,1,6,"11,12,7,3,1,8,4,2,14,5,9,13,15,6,10"
14396,commdev-image-keyboard-response,494,831544,learnblock2,null,img/planet13_right.png,13,Community 3,NA,FALSE,null,j,NA,NA,NA,1,6,"11,12,7,3,1,8,4,2,14,5,9,13,15,6,10"
14396,commdev-image-keyboard-response,495,832802,learnblock2,879.6000000089407,img/planet2_left.png,2,Community 2,NA,TRUE,f,f,NA,NA,NA,1,6,"11,12,7,3,1,8,4,2,14,5,9,13,15,6,10"
14396,commdev-image-keyboard-response,496,834055,learnblock2,868.4000000059605,img/planet4_left.png,4,Community 2,NA,TRUE,f,f,NA,NA,NA,1,6,"11,12,7,3,1,8,4,2,14,5,9,13,15,6,10"
14396,commdev-image-keyboard-response,497,835311,learnblock2,663.5,img/planet8_right.png,8,Community 2,NA,FALSE,f,j,NA,NA,NA,1,6,"11,12,7,3,1,8,4,2,14,5,9,13,15,6,10"
14396,commdev-image-keyboard-response,498,836568,learnblock2,null,img/planet5_right.png,5,Community 2,NA,FALSE,null,j,NA,NA,NA,1,6,"11,12,7,3,1,8,4,2,14,5,9,13,15,6,10"
14396,commdev-image-keyboard-response,499,837826,learnblock2,null,img/planet14_right.png,14,Community 2,NA,FALSE,null,j,NA,NA,NA,1,6,"11,12,7,3,1,8,4,2,14,5,9,13,15,6,10"
14396,commdev-image-keyboard-response,500,839078,learnblock2,null,img/planet4_right.png,4,Community 2,NA,FALSE,null,j,NA,NA,NA,1,6,"11,12,7,3,1,8,4,2,14,5,9,13,15,6,10"
14396,commdev-image-keyboard-response,501,840332,learnblock2,1132.7999999970198,img/planet5_left.png,5,Community 2,NA,TRUE,f,f,NA,NA,NA,1,6,"11,12,7,3,1,8,4,2,14,5,9,13,15,6,10"
14396,commdev-image-keyboard-response,502,841589,learnblock2,null,img/planet14_right.png,14,Community 2,NA,FALSE,null,j,NA,NA,NA,1,6,"11,12,7,3,1,8,4,2,14,5,9,13,15,6,10"
14396,commdev-image-keyboard-response,503,842844,learnblock2,null,img/planet5_right.png,5,Community 2,NA,FALSE,null,j,NA,NA,NA,1,6,"11,12,7,3,1,8,4,2,14,5,9,13,15,6,10"
14396,commdev-image-keyboard-response,504,844099,learnblock2,null,img/planet8_left.png,8,Community 2,NA,FALSE,null,f,NA,NA,NA,1,6,"11,12,7,3,1,8,4,2,14,5,9,13,15,6,10"
14396,commdev-image-keyboard-response,505,845355,learnblock2,null,img/planet3_left.png,3,Community 1,NA,FALSE,null,f,NA,NA,NA,1,6,"11,12,7,3,1,8,4,2,14,5,9,13,15,6,10"
14396,commdev-image-keyboard-response,506,846608,learnblock2,26.600000008940697,img/planet8_right.png,8,Community 2,NA,FALSE,f,j,NA,NA,NA,1,6,"11,12,7,3,1,8,4,2,14,5,9,13,15,6,10"
14396,commdev-image-keyboard-response,507,847865,learnblock2,null,img/planet4_right.png,4,Community 2,NA,FALSE,null,j,NA,NA,NA,1,6,"11,12,7,3,1,8,4,2,14,5,9,13,15,6,10"
14396,commdev-image-keyboard-response,508,849122,learnblock2,869.1999999880791,img/planet5_left.png,5,Community 2,NA,TRUE,f,f,NA,NA,NA,1,6,"11,12,7,3,1,8,4,2,14,5,9,13,15,6,10"
14396,commdev-image-keyboard-response,509,850377,learnblock2,125.20000000298023,img/planet8_right.png,8,Community 2,NA,FALSE,f,j,NA,NA,NA,1,6,"11,12,7,3,1,8,4,2,14,5,9,13,15,6,10"
14396,commdev-image-keyboard-response,510,851634,learnblock2,169,img/planet5_left.png,5,Community 2,NA,TRUE,f,f,NA,NA,NA,1,6,"11,12,7,3,1,8,4,2,14,5,9,13,15,6,10"
14396,commdev-image-keyboard-response,511,852892,learnblock2,272.29999999701977,img/planet14_left.png,14,Community 2,NA,TRUE,f,f,NA,NA,NA,1,6,"11,12,7,3,1,8,4,2,14,5,9,13,15,6,10"
14396,commdev-image-keyboard-response,512,854149,learnblock2,219.29999999701977,img/planet4_left.png,4,Community 2,NA,TRUE,f,f,NA,NA,NA,1,6,"11,12,7,3,1,8,4,2,14,5,9,13,15,6,10"
14396,commdev-image-keyboard-response,513,855402,learnblock2,554.0999999940395,img/planet14_left.png,14,Community 2,NA,TRUE,f,f,NA,NA,NA,1,6,"11,12,7,3,1,8,4,2,14,5,9,13,15,6,10"
14396,commdev-image-keyboard-response,514,856656,learnblock2,657.7000000029802,img/planet2_left.png,2,Community 2,NA,TRUE,f,f,NA,NA,NA,1,6,"11,12,7,3,1,8,4,2,14,5,9,13,15,6,10"
14396,commdev-image-keyboard-response,515,857913,learnblock2,58.29999999701977,img/planet4_left.png,4,Community 2,NA,TRUE,f,f,NA,NA,NA,1,6,"11,12,7,3,1,8,4,2,14,5,9,13,15,6,10"
14396,commdev-image-keyboard-response,516,859171,learnblock2,269.5,img/planet5_left.png,5,Community 2,NA,TRUE,f,f,NA,NA,NA,1,6,"11,12,7,3,1,8,4,2,14,5,9,13,15,6,10"
14396,commdev-image-keyboard-response,517,860423,learnblock2,null,img/planet14_left.png,14,Community 2,NA,FALSE,null,f,NA,NA,NA,1,6,"11,12,7,3,1,8,4,2,14,5,9,13,15,6,10"
14396,commdev-image-keyboard-response,518,861678,learnblock2,1237.1000000089407,img/planet2_right.png,2,Community 2,NA,FALSE,f,j,NA,NA,NA,1,6,"11,12,7,3,1,8,4,2,14,5,9,13,15,6,10"
14396,commdev-image-keyboard-response,519,862935,learnblock2,821.5,img/planet5_right.png,5,Community 2,NA,FALSE,f,j,NA,NA,NA,1,6,"11,12,7,3,1,8,4,2,14,5,9,13,15,6,10"
14396,commdev-image-keyboard-response,520,864189,learnblock2,496.5,img/planet4_left.png,4,Community 2,NA,TRUE,f,f,NA,NA,NA,1,6,"11,12,7,3,1,8,4,2,14,5,9,13,15,6,10"
14396,commdev-image-keyboard-response,521,865445,learnblock2,null,img/planet2_left.png,2,Community 2,NA,FALSE,null,f,NA,NA,NA,1,6,"11,12,7,3,1,8,4,2,14,5,9,13,15,6,10"
14396,commdev-image-keyboard-response,522,866702,learnblock2,null,img/planet5_left.png,5,Community 2,NA,FALSE,null,f,NA,NA,NA,1,6,"11,12,7,3,1,8,4,2,14,5,9,13,15,6,10"
14396,commdev-image-keyboard-response,523,867960,learnblock2,null,img/planet2_right.png,2,Community 2,NA,FALSE,null,j,NA,NA,NA,1,6,"11,12,7,3,1,8,4,2,14,5,9,13,15,6,10"
14396,commdev-image-keyboard-response,524,869213,learnblock2,415.5,img/planet4_left.png,4,Community 2,NA,FALSE,j,f,NA,NA,NA,1,6,"11,12,7,3,1,8,4,2,14,5,9,13,15,6,10"
14396,commdev-image-keyboard-response,525,870470,learnblock2,null,img/planet5_left.png,5,Community 2,NA,FALSE,null,f,NA,NA,NA,1,6,"11,12,7,3,1,8,4,2,14,5,9,13,15,6,10"
14396,commdev-image-keyboard-response,526,871724,learnblock2,null,img/planet8_right.png,8,Community 2,NA,FALSE,null,j,NA,NA,NA,1,6,"11,12,7,3,1,8,4,2,14,5,9,13,15,6,10"
14396,commdev-image-keyboard-response,527,872981,learnblock2,null,img/planet4_right.png,4,Community 2,NA,FALSE,null,j,NA,NA,NA,1,6,"11,12,7,3,1,8,4,2,14,5,9,13,15,6,10"
14396,commdev-image-keyboard-response,528,874237,learnblock2,null,img/planet2_right.png,2,Community 2,NA,FALSE,null,j,NA,NA,NA,1,6,"11,12,7,3,1,8,4,2,14,5,9,13,15,6,10"
14396,commdev-image-keyboard-response,529,875494,learnblock2,null,img/planet14_left.png,14,Community 2,NA,FALSE,null,f,NA,NA,NA,1,6,"11,12,7,3,1,8,4,2,14,5,9,13,15,6,10"
14396,commdev-image-keyboard-response,530,876750,learnblock2,null,img/planet5_left.png,5,Community 2,NA,FALSE,null,f,NA,NA,NA,1,6,"11,12,7,3,1,8,4,2,14,5,9,13,15,6,10"
14396,commdev-image-keyboard-response,531,878007,learnblock2,null,img/planet8_right.png,8,Community 2,NA,FALSE,null,j,NA,NA,NA,1,6,"11,12,7,3,1,8,4,2,14,5,9,13,15,6,10"
14396,commdev-image-keyboard-response,532,879261,learnblock2,null,img/planet4_right.png,4,Community 2,NA,FALSE,null,j,NA,NA,NA,1,6,"11,12,7,3,1,8,4,2,14,5,9,13,15,6,10"
14396,commdev-image-keyboard-response,533,880513,learnblock2,null,img/planet2_right.png,2,Community 2,NA,FALSE,null,j,NA,NA,NA,1,6,"11,12,7,3,1,8,4,2,14,5,9,13,15,6,10"
14396,commdev-image-keyboard-response,534,881770,learnblock2,null,img/planet14_left.png,14,Community 2,NA,FALSE,null,f,NA,NA,NA,1,6,"11,12,7,3,1,8,4,2,14,5,9,13,15,6,10"
14396,commdev-image-keyboard-response,535,883024,learnblock2,null,img/planet8_right.png,8,Community 2,NA,FALSE,null,j,NA,NA,NA,1,6,"11,12,7,3,1,8,4,2,14,5,9,13,15,6,10"
14396,commdev-image-keyboard-response,536,884278,learnblock2,null,img/planet4_left.png,4,Community 2,NA,FALSE,null,f,NA,NA,NA,1,6,"11,12,7,3,1,8,4,2,14,5,9,13,15,6,10"
14396,commdev-image-keyboard-response,537,885535,learnblock2,null,img/planet14_right.png,14,Community 2,NA,FALSE,null,j,NA,NA,NA,1,6,"11,12,7,3,1,8,4,2,14,5,9,13,15,6,10"
14396,commdev-image-keyboard-response,538,886792,learnblock2,null,img/planet5_left.png,5,Community 2,NA,FALSE,null,f,NA,NA,NA,1,6,"11,12,7,3,1,8,4,2,14,5,9,13,15,6,10"
14396,commdev-image-keyboard-response,539,888050,learnblock2,111.29999999701977,img/planet2_left.png,2,Community 2,NA,FALSE,j,f,NA,NA,NA,1,6,"11,12,7,3,1,8,4,2,14,5,9,13,15,6,10"
14396,commdev-image-keyboard-response,540,889306,learnblock2,null,img/planet13_right.png,13,Community 3,NA,FALSE,null,j,NA,NA,NA,1,6,"11,12,7,3,1,8,4,2,14,5,9,13,15,6,10"
14396,commdev-image-keyboard-response,541,890559,learnblock2,1147.7999999970198,img/planet6_left.png,6,Community 3,NA,TRUE,f,f,NA,NA,NA,1,6,"11,12,7,3,1,8,4,2,14,5,9,13,15,6,10"
14396,commdev-image-keyboard-response,542,891816,learnblock2,null,img/planet15_right.png,15,Community 3,NA,FALSE,null,j,NA,NA,NA,1,6,"11,12,7,3,1,8,4,2,14,5,9,13,15,6,10"
14396,commdev-image-keyboard-response,543,893069,learnblock2,null,img/planet9_right.png,9,Community 3,NA,FALSE,null,j,NA,NA,NA,1,6,"11,12,7,3,1,8,4,2,14,5,9,13,15,6,10"
14396,commdev-image-keyboard-response,544,894325,learnblock2,null,img/planet15_right.png,15,Community 3,NA,FALSE,null,j,NA,NA,NA,1,6,"11,12,7,3,1,8,4,2,14,5,9,13,15,6,10"
14396,commdev-image-keyboard-response,545,895577,learnblock2,null,img/planet10_left.png,10,Community 3,NA,FALSE,null,f,NA,NA,NA,1,6,"11,12,7,3,1,8,4,2,14,5,9,13,15,6,10"
14396,commdev-image-keyboard-response,546,896830,learnblock2,null,img/planet6_right.png,6,Community 3,NA,FALSE,null,j,NA,NA,NA,1,6,"11,12,7,3,1,8,4,2,14,5,9,13,15,6,10"
14396,commdev-image-keyboard-response,547,898084,learnblock2,null,img/planet9_left.png,9,Community 3,NA,FALSE,null,f,NA,NA,NA,1,6,"11,12,7,3,1,8,4,2,14,5,9,13,15,6,10"
14396,commdev-image-keyboard-response,548,899337,learnblock2,null,img/planet1_right.png,1,Community 1,NA,FALSE,null,j,NA,NA,NA,1,6,"11,12,7,3,1,8,4,2,14,5,9,13,15,6,10"
14396,commdev-image-keyboard-response,549,900592,learnblock2,null,img/planet9_left.png,9,Community 3,NA,FALSE,null,f,NA,NA,NA,1,6,"11,12,7,3,1,8,4,2,14,5,9,13,15,6,10"
14396,commdev-image-keyboard-response,550,901848,learnblock2,null,img/planet15_right.png,15,Community 3,NA,FALSE,null,j,NA,NA,NA,1,6,"11,12,7,3,1,8,4,2,14,5,9,13,15,6,10"
14396,commdev-image-keyboard-response,551,903103,learnblock2,null,img/planet9_right.png,9,Community 3,NA,FALSE,null,j,NA,NA,NA,1,6,"11,12,7,3,1,8,4,2,14,5,9,13,15,6,10"
14396,commdev-image-keyboard-response,552,904358,learnblock2,null,img/planet15_right.png,15,Community 3,NA,FALSE,null,j,NA,NA,NA,1,6,"11,12,7,3,1,8,4,2,14,5,9,13,15,6,10"
14396,commdev-image-keyboard-response,553,905614,learnblock2,null,img/planet9_left.png,9,Community 3,NA,FALSE,null,f,NA,NA,NA,1,6,"11,12,7,3,1,8,4,2,14,5,9,13,15,6,10"
14396,commdev-image-keyboard-response,554,906873,learnblock2,null,img/planet1_right.png,1,Community 1,NA,FALSE,null,j,NA,NA,NA,1,6,"11,12,7,3,1,8,4,2,14,5,9,13,15,6,10"
14396,commdev-image-keyboard-response,555,908129,learnblock2,null,img/planet9_left.png,9,Community 3,NA,FALSE,null,f,NA,NA,NA,1,6,"11,12,7,3,1,8,4,2,14,5,9,13,15,6,10"
14396,commdev-image-keyboard-response,556,909386,learnblock2,null,img/planet15_left.png,15,Community 3,NA,FALSE,null,f,NA,NA,NA,1,6,"11,12,7,3,1,8,4,2,14,5,9,13,15,6,10"
14396,commdev-image-keyboard-response,557,910639,learnblock2,null,img/planet13_right.png,13,Community 3,NA,FALSE,null,j,NA,NA,NA,1,6,"11,12,7,3,1,8,4,2,14,5,9,13,15,6,10"
14396,commdev-image-keyboard-response,558,911892,learnblock2,null,img/planet15_left.png,15,Community 3,NA,FALSE,null,f,NA,NA,NA,1,6,"11,12,7,3,1,8,4,2,14,5,9,13,15,6,10"
14396,commdev-image-keyboard-response,559,913149,learnblock2,null,img/planet10_right.png,10,Community 3,NA,FALSE,null,j,NA,NA,NA,1,6,"11,12,7,3,1,8,4,2,14,5,9,13,15,6,10"
14396,commdev-image-keyboard-response,560,914407,learnblock2,null,img/planet13_left.png,13,Community 3,NA,FALSE,null,f,NA,NA,NA,1,6,"11,12,7,3,1,8,4,2,14,5,9,13,15,6,10"
14396,commdev-image-keyboard-response,561,915663,learnblock2,null,img/planet6_right.png,6,Community 3,NA,FALSE,null,j,NA,NA,NA,1,6,"11,12,7,3,1,8,4,2,14,5,9,13,15,6,10"
14396,commdev-image-keyboard-response,562,916916,learnblock2,null,img/planet13_right.png,13,Community 3,NA,FALSE,null,j,NA,NA,NA,1,6,"11,12,7,3,1,8,4,2,14,5,9,13,15,6,10"
14396,commdev-image-keyboard-response,563,918173,learnblock2,null,img/planet10_right.png,10,Community 3,NA,FALSE,null,j,NA,NA,NA,1,6,"11,12,7,3,1,8,4,2,14,5,9,13,15,6,10"
14396,commdev-image-keyboard-response,564,919431,learnblock2,null,img/planet6_left.png,6,Community 3,NA,FALSE,null,f,NA,NA,NA,1,6,"11,12,7,3,1,8,4,2,14,5,9,13,15,6,10"
14396,commdev-image-keyboard-response,565,920687,learnblock2,null,img/planet10_left.png,10,Community 3,NA,FALSE,null,f,NA,NA,NA,1,6,"11,12,7,3,1,8,4,2,14,5,9,13,15,6,10"
14396,commdev-image-keyboard-response,566,921940,learnblock2,null,img/planet15_right.png,15,Community 3,NA,FALSE,null,j,NA,NA,NA,1,6,"11,12,7,3,1,8,4,2,14,5,9,13,15,6,10"
14396,commdev-image-keyboard-response,567,923197,learnblock2,null,img/planet13_right.png,13,Community 3,NA,FALSE,null,j,NA,NA,NA,1,6,"11,12,7,3,1,8,4,2,14,5,9,13,15,6,10"
14396,commdev-image-keyboard-response,568,924451,learnblock2,207.29999999701977,img/planet15_right.png,15,Community 3,NA,TRUE,j,j,NA,NA,NA,1,6,"11,12,7,3,1,8,4,2,14,5,9,13,15,6,10"
14396,commdev-image-keyboard-response,569,925705,learnblock2,null,img/planet9_right.png,9,Community 3,NA,FALSE,null,j,NA,NA,NA,1,6,"11,12,7,3,1,8,4,2,14,5,9,13,15,6,10"
14396,commdev-image-keyboard-response,570,926958,learnblock2,null,img/planet15_right.png,15,Community 3,NA,FALSE,null,j,NA,NA,NA,1,6,"11,12,7,3,1,8,4,2,14,5,9,13,15,6,10"
14396,commdev-image-keyboard-response,571,928215,learnblock2,416.90000000596046,img/planet9_left.png,9,Community 3,NA,FALSE,j,f,NA,NA,NA,1,6,"11,12,7,3,1,8,4,2,14,5,9,13,15,6,10"
14396,commdev-image-keyboard-response,572,929468,learnblock2,1245.0999999940395,img/planet10_right.png,10,Community 3,NA,TRUE,j,j,NA,NA,NA,1,6,"11,12,7,3,1,8,4,2,14,5,9,13,15,6,10"
14396,commdev-image-keyboard-response,573,930724,learnblock2,765.2999999970198,img/planet9_left.png,9,Community 3,NA,FALSE,j,f,NA,NA,NA,1,6,"11,12,7,3,1,8,4,2,14,5,9,13,15,6,10"
14396,commdev-image-keyboard-response,574,931980,learnblock2,1152.7000000029802,img/planet10_right.png,10,Community 3,NA,TRUE,j,j,NA,NA,NA,1,6,"11,12,7,3,1,8,4,2,14,5,9,13,15,6,10"
14396,commdev-image-keyboard-response,575,933237,learnblock2,null,img/planet9_left.png,9,Community 3,NA,FALSE,null,f,NA,NA,NA,1,6,"11,12,7,3,1,8,4,2,14,5,9,13,15,6,10"
14396,commdev-image-keyboard-response,576,934491,learnblock2,null,img/planet15_left.png,15,Community 3,NA,FALSE,null,f,NA,NA,NA,1,6,"11,12,7,3,1,8,4,2,14,5,9,13,15,6,10"
14396,commdev-image-keyboard-response,577,935749,learnblock2,null,img/planet13_left.png,13,Community 3,NA,FALSE,null,f,NA,NA,NA,1,6,"11,12,7,3,1,8,4,2,14,5,9,13,15,6,10"
14396,commdev-image-keyboard-response,578,937003,learnblock2,null,img/planet2_left.png,2,Community 2,NA,FALSE,null,f,NA,NA,NA,1,6,"11,12,7,3,1,8,4,2,14,5,9,13,15,6,10"
14396,commdev-image-keyboard-response,579,938261,learnblock2,null,img/planet13_left.png,13,Community 3,NA,FALSE,null,f,NA,NA,NA,1,6,"11,12,7,3,1,8,4,2,14,5,9,13,15,6,10"
14396,commdev-image-keyboard-response,580,939517,learnblock2,1002.5,img/planet2_left.png,2,Community 2,NA,TRUE,f,f,NA,NA,NA,1,6,"11,12,7,3,1,8,4,2,14,5,9,13,15,6,10"
14396,commdev-image-keyboard-response,581,940769,learnblock2,244.5,img/planet13_left.png,13,Community 3,NA,FALSE,j,f,NA,NA,NA,1,6,"11,12,7,3,1,8,4,2,14,5,9,13,15,6,10"
14396,commdev-image-keyboard-response,582,942023,learnblock2,700.3999999910593,img/planet10_right.png,10,Community 3,NA,FALSE,f,j,NA,NA,NA,1,6,"11,12,7,3,1,8,4,2,14,5,9,13,15,6,10"
14396,commdev-image-keyboard-response,583,943277,learnblock2,535.2999999970198,img/planet13_right.png,13,Community 3,NA,FALSE,f,j,NA,NA,NA,1,6,"11,12,7,3,1,8,4,2,14,5,9,13,15,6,10"
14396,commdev-image-keyboard-response,584,944534,learnblock2,null,img/planet2_left.png,2,Community 2,NA,FALSE,null,f,NA,NA,NA,1,6,"11,12,7,3,1,8,4,2,14,5,9,13,15,6,10"
14396,commdev-image-keyboard-response,585,945790,learnblock2,680.1999999880791,img/planet14_left.png,14,Community 2,NA,TRUE,f,f,NA,NA,NA,1,6,"11,12,7,3,1,8,4,2,14,5,9,13,15,6,10"
14396,commdev-image-keyboard-response,586,947047,learnblock2,null,img/planet5_right.png,5,Community 2,NA,FALSE,null,j,NA,NA,NA,1,6,"11,12,7,3,1,8,4,2,14,5,9,13,15,6,10"
14396,commdev-image-keyboard-response,587,948300,learnblock2,null,img/planet8_left.png,8,Community 2,NA,FALSE,null,f,NA,NA,NA,1,6,"11,12,7,3,1,8,4,2,14,5,9,13,15,6,10"
14396,commdev-image-keyboard-response,588,949555,learnblock2,null,img/planet4_right.png,4,Community 2,NA,FALSE,null,j,NA,NA,NA,1,6,"11,12,7,3,1,8,4,2,14,5,9,13,15,6,10"
14396,commdev-image-keyboard-response,589,950812,learnblock2,null,img/planet5_left.png,5,Community 2,NA,FALSE,null,f,NA,NA,NA,1,6,"11,12,7,3,1,8,4,2,14,5,9,13,15,6,10"
