subject_id,trial_type,trial_index,time_elapsed,block,rt,stimulus,planet,community,response,correct,key_press,learning_correct_response,parse,init_locations,final_locations,browser_interactions,num_comp,planet_map
15146,commdev-instructions,7,33281,NA,1180,"<p>In this game, you will be shown a 3x3 grid of patterns.</p> <p>The last one in the bottom right-hand corner, <strong>will be missing:</strong></p> <div style='width: 700px;'><div style='float: top;'><img style='width: 200px;' src='practice/p1_M1.png'></img><p class='small'>You need to select<strong> which of the four possible patterns </strong>along the bottom<strong> fits into the gap:</strong></p></div><div style='float: top;'><img style='width: 300px;' src='practice/p1_T1.png'></img></div><br>",NA,NA,NA,NA,NA,NA,NA,NA,NA,3,6,"9,4,2,5,14,12,6,11,7,8,3,1,13,15,10"
15146,commdev-instructions,8,52604,NA,778.1999999880791,"<p>Try to be as fast and as accurate as you can be.</p> <p>If you cannot solve the puzzle then you should guess - you will not be penalised for an incorrect answer.</p> <p>The task contains a shuffled mix of easy, medium and hard puzzles.</p> <p>You will have <strong>30 seconds</strong> to complete each puzzle.</p><br>",NA,NA,NA,NA,NA,NA,NA,NA,NA,3,6,"9,4,2,5,14,12,6,11,7,8,3,1,13,15,10"
15146,commdev-instructions,17,86781,NA,1025.7000000476837,<p><strong>Success!</strong></p> <p>You seem to be getting the hang of this...</p> <p>Let's move on to the real trials.</p><br>,NA,NA,NA,NA,NA,NA,NA,NA,NA,3,6,"9,4,2,5,14,12,6,11,7,8,3,1,13,15,10"
15146,commdev-instructions,153,584782,NA,4522.900000035763,"<p>In this game, you are a scientist on board a space shuttle. </p><p> On each mission, you will visit planets all across the universe.</p><img src=""img/controlroom.jpg"" width=300vw>",NA,NA,NA,NA,NA,NA,NA,NA,NA,3,6,"9,4,2,5,14,12,6,11,7,8,3,1,13,15,10"
15146,commdev-instructions,154,588566,NA,1707.199999988079,"<p>Here are a few planets you might see:</p><img src=""img/practice1.png"" width=200vw><img src=""img/practice2.png"" width=200vw><img src=""img/practice3.png"" width=200vw>",NA,NA,NA,NA,NA,NA,NA,NA,NA,3,6,"9,4,2,5,14,12,6,11,7,8,3,1,13,15,10"
15146,commdev-instructions,155,597567,NA,1597.800000011921,"<p>Your job as a scientist is to record which direction the winds are moving on each planet.</p><p>There are two types of wind directions:</p><img src=""img/practice1_left.png"" width=200vw><img src=""img/practice1_right.png"" width=200vw>",NA,NA,NA,NA,NA,NA,NA,NA,NA,3,6,"9,4,2,5,14,12,6,11,7,8,3,1,13,15,10"
15146,commdev-instructions,156,605514,NA,3064.699999988079,"<p>If the winds are moving this way, press the letter <strong>F</strong> on the keyboard as fast as you can.</p><img src=""img/leftwind.png"" width=250vw>",NA,NA,NA,NA,NA,NA,NA,NA,NA,3,6,"9,4,2,5,14,12,6,11,7,8,3,1,13,15,10"
15146,commdev-instructions,157,613096,NA,3075.800000011921,"<p>If the winds are moving this way, press the letter <strong>J</strong> on the keyboard as fast as you can.</p><img src=""img/rightwind.png"" width=350vw>",NA,NA,NA,NA,NA,NA,NA,NA,NA,3,6,"9,4,2,5,14,12,6,11,7,8,3,1,13,15,10"
15146,commdev-instructions,158,619050,NA,1530.199999988079,<p>You will have 1 second to respond. Try to respond before the time runs out!,NA,NA,NA,NA,NA,NA,NA,NA,NA,3,6,"9,4,2,5,14,12,6,11,7,8,3,1,13,15,10"
15146,commdev-instructions,159,625840,NA,1349.699999988079,<p>The planets you will visit will look different from each other.</p><p>You should respond <strong>only</strong> based on wind direction.,NA,NA,NA,NA,NA,NA,NA,NA,NA,3,6,"9,4,2,5,14,12,6,11,7,8,3,1,13,15,10"
15146,commdev-instructions,160,631894,NA,883.5,"<p> Ready to start the practice round? </p><p> Remember, press <strong>F</strong> or <strong>J</strong> depending on the wind direction.<br><img src=""img/categorize_planet_example.png""",NA,NA,NA,NA,NA,NA,NA,NA,NA,3,6,"9,4,2,5,14,12,6,11,7,8,3,1,13,15,10"
15146,commdev-instructions,172,920182,NA,237688.30000001192,"<p>Great, now try a short practice mission. </p><p> This time, you will have 1 second to respond and you won't know whether you pressed the right or wrong key for each planet.</p>",NA,NA,NA,NA,NA,NA,NA,NA,NA,3,6,"9,4,2,5,14,12,6,11,7,8,3,1,13,15,10"
15146,commdev-image-keyboard-response,173,921546,practice,null,img/practice4_left.png,NA,Number not found in mappings,NA,FALSE,null,f,NA,NA,NA,3,6,"9,4,2,5,14,12,6,11,7,8,3,1,13,15,10"
15146,commdev-image-keyboard-response,174,922802,practice,314.5999999642372,img/practice3_left.png,NA,Number not found in mappings,NA,TRUE,f,f,NA,NA,NA,3,6,"9,4,2,5,14,12,6,11,7,8,3,1,13,15,10"
15146,commdev-image-keyboard-response,175,924054,practice,609.8000000119209,img/practice1_left.png,NA,Number not found in mappings,NA,TRUE,f,f,NA,NA,NA,3,6,"9,4,2,5,14,12,6,11,7,8,3,1,13,15,10"
15146,commdev-image-keyboard-response,176,925312,practice,524.8000000119209,img/practice4_right.png,NA,Number not found in mappings,NA,TRUE,j,j,NA,NA,NA,3,6,"9,4,2,5,14,12,6,11,7,8,3,1,13,15,10"
15146,commdev-image-keyboard-response,177,926566,practice,479.69999998807907,img/practice1_right.png,NA,Number not found in mappings,NA,TRUE,j,j,NA,NA,NA,3,6,"9,4,2,5,14,12,6,11,7,8,3,1,13,15,10"
15146,commdev-image-keyboard-response,178,927819,practice,480.2000000476837,img/practice2_left.png,NA,Number not found in mappings,NA,TRUE,f,f,NA,NA,NA,3,6,"9,4,2,5,14,12,6,11,7,8,3,1,13,15,10"
15146,commdev-image-keyboard-response,179,929077,practice,462.80000001192093,img/practice3_left.png,NA,Number not found in mappings,NA,TRUE,f,f,NA,NA,NA,3,6,"9,4,2,5,14,12,6,11,7,8,3,1,13,15,10"
15146,commdev-image-keyboard-response,180,930332,practice,375.60000002384186,img/practice4_right.png,NA,Number not found in mappings,NA,TRUE,j,j,NA,NA,NA,3,6,"9,4,2,5,14,12,6,11,7,8,3,1,13,15,10"
15146,commdev-instructions,181,943160,NA,1855.3999999761581,"<p>Great job with the practice round.</p><p>During real missions, you won't know whether you pressed the right or wrong key for each planet.</p><p>But between missions, we will tell you how you did overall.</p>",NA,NA,NA,NA,NA,NA,NA,NA,NA,3,6,"9,4,2,5,14,12,6,11,7,8,3,1,13,15,10"
15146,commdev-instructions,182,952358,NA,943.6000000238419,<p>Try your best! You will be paid a bonus based on how many correct responses you make!</p><p>Responses that are too slow will not count toward your bonus.</p>,NA,NA,NA,NA,NA,NA,NA,NA,NA,3,6,"9,4,2,5,14,12,6,11,7,8,3,1,13,15,10"
15146,commdev-instructions,183,959530,NA,975.2999999523163,"<p>You are almost ready to start the real game.</p><p> First, we are going to ask you some questions about how the game works.</p>",NA,NA,NA,NA,NA,NA,NA,NA,NA,3,6,"9,4,2,5,14,12,6,11,7,8,3,1,13,15,10"
15146,commdev-instructions,192,1332556,NA,2330,"<p> Nice work! It is now time to start the real game.<p></p>You will go on two missions to record wind directions of different planets.<p></p>Each one will take about 5 minutes. You will get to take a break between missions.<p><p> Remember, press <strong>F</strong> or <strong>J</strong> depending on the wind direction. Good luck!<br><img src=""img/categorize_planet_example.png""",NA,NA,NA,NA,NA,NA,NA,NA,NA,3,6,"9,4,2,5,14,12,6,11,7,8,3,1,13,15,10"
15146,commdev-image-keyboard-response,194,1335868,learnblock1,956.8999999761581,img/planet14_left.png,14,Community 1,NA,TRUE,f,f,NA,NA,NA,3,6,"9,4,2,5,14,12,6,11,7,8,3,1,13,15,10"
15146,commdev-image-keyboard-response,195,1337128,learnblock1,631.1000000238419,img/planet4_left.png,4,Community 1,NA,TRUE,f,f,NA,NA,NA,3,6,"9,4,2,5,14,12,6,11,7,8,3,1,13,15,10"
15146,commdev-image-keyboard-response,196,1338382,learnblock1,443.5,img/planet2_left.png,2,Community 1,NA,TRUE,f,f,NA,NA,NA,3,6,"9,4,2,5,14,12,6,11,7,8,3,1,13,15,10"
15146,commdev-image-keyboard-response,197,1339637,learnblock1,525.6999999880791,img/planet14_left.png,14,Community 1,NA,TRUE,f,f,NA,NA,NA,3,6,"9,4,2,5,14,12,6,11,7,8,3,1,13,15,10"
15146,commdev-image-keyboard-response,198,1340889,learnblock1,595.4000000357628,img/planet9_left.png,9,Community 1,NA,TRUE,f,f,NA,NA,NA,3,6,"9,4,2,5,14,12,6,11,7,8,3,1,13,15,10"
15146,commdev-image-keyboard-response,199,1342145,learnblock1,623.3000000119209,img/planet4_left.png,4,Community 1,NA,TRUE,f,f,NA,NA,NA,3,6,"9,4,2,5,14,12,6,11,7,8,3,1,13,15,10"
15146,commdev-image-keyboard-response,200,1343411,learnblock1,630.5,img/planet5_left.png,5,Community 1,NA,TRUE,f,f,NA,NA,NA,3,6,"9,4,2,5,14,12,6,11,7,8,3,1,13,15,10"
15146,commdev-image-keyboard-response,201,1344679,learnblock1,661.9000000357628,img/planet2_right.png,2,Community 1,NA,TRUE,j,j,NA,NA,NA,3,6,"9,4,2,5,14,12,6,11,7,8,3,1,13,15,10"
15146,commdev-image-keyboard-response,202,1345931,learnblock1,611.8999999761581,img/planet4_left.png,4,Community 1,NA,TRUE,f,f,NA,NA,NA,3,6,"9,4,2,5,14,12,6,11,7,8,3,1,13,15,10"
15146,commdev-image-keyboard-response,203,1347185,learnblock1,558.7000000476837,img/planet5_left.png,5,Community 1,NA,TRUE,f,f,NA,NA,NA,3,6,"9,4,2,5,14,12,6,11,7,8,3,1,13,15,10"
15146,commdev-image-keyboard-response,204,1348439,learnblock1,514.1000000238419,img/planet2_right.png,2,Community 1,NA,TRUE,j,j,NA,NA,NA,3,6,"9,4,2,5,14,12,6,11,7,8,3,1,13,15,10"
15146,commdev-image-keyboard-response,205,1349691,learnblock1,466.69999998807907,img/planet4_right.png,4,Community 1,NA,TRUE,j,j,NA,NA,NA,3,6,"9,4,2,5,14,12,6,11,7,8,3,1,13,15,10"
15146,commdev-image-keyboard-response,206,1350949,learnblock1,462.5999999642372,img/planet2_right.png,2,Community 1,NA,TRUE,j,j,NA,NA,NA,3,6,"9,4,2,5,14,12,6,11,7,8,3,1,13,15,10"
15146,commdev-image-keyboard-response,207,1352215,learnblock1,466.60000002384186,img/planet5_left.png,5,Community 1,NA,TRUE,f,f,NA,NA,NA,3,6,"9,4,2,5,14,12,6,11,7,8,3,1,13,15,10"
15146,commdev-image-keyboard-response,208,1353472,learnblock1,450.60000002384186,img/planet2_right.png,2,Community 1,NA,TRUE,j,j,NA,NA,NA,3,6,"9,4,2,5,14,12,6,11,7,8,3,1,13,15,10"
15146,commdev-image-keyboard-response,209,1354730,learnblock1,676.1999999880791,img/planet4_left.png,4,Community 1,NA,TRUE,f,f,NA,NA,NA,3,6,"9,4,2,5,14,12,6,11,7,8,3,1,13,15,10"
15146,commdev-image-keyboard-response,210,1355992,learnblock1,486.5,img/planet14_right.png,14,Community 1,NA,TRUE,j,j,NA,NA,NA,3,6,"9,4,2,5,14,12,6,11,7,8,3,1,13,15,10"
15146,commdev-image-keyboard-response,211,1357250,learnblock1,569.3999999761581,img/planet9_right.png,9,Community 1,NA,TRUE,j,j,NA,NA,NA,3,6,"9,4,2,5,14,12,6,11,7,8,3,1,13,15,10"
15146,commdev-image-keyboard-response,212,1358518,learnblock1,516.4000000357628,img/planet2_right.png,2,Community 1,NA,TRUE,j,j,NA,NA,NA,3,6,"9,4,2,5,14,12,6,11,7,8,3,1,13,15,10"
15146,commdev-image-keyboard-response,213,1359789,learnblock1,490.9000000357628,img/planet5_right.png,5,Community 1,NA,TRUE,j,j,NA,NA,NA,3,6,"9,4,2,5,14,12,6,11,7,8,3,1,13,15,10"
15146,commdev-image-keyboard-response,214,1361041,learnblock1,438.80000001192093,img/planet12_left.png,12,Community 2,NA,TRUE,f,f,NA,NA,NA,3,6,"9,4,2,5,14,12,6,11,7,8,3,1,13,15,10"
15146,commdev-image-keyboard-response,215,1362302,learnblock1,537.5,img/planet6_right.png,6,Community 2,NA,TRUE,j,j,NA,NA,NA,3,6,"9,4,2,5,14,12,6,11,7,8,3,1,13,15,10"
15146,commdev-image-keyboard-response,216,1363557,learnblock1,657.3999999761581,img/planet11_right.png,11,Community 2,NA,TRUE,j,j,NA,NA,NA,3,6,"9,4,2,5,14,12,6,11,7,8,3,1,13,15,10"
15146,commdev-image-keyboard-response,217,1364822,learnblock1,589,img/planet8_right.png,8,Community 2,NA,TRUE,j,j,NA,NA,NA,3,6,"9,4,2,5,14,12,6,11,7,8,3,1,13,15,10"
15146,commdev-image-keyboard-response,218,1366088,learnblock1,693.9000000357628,img/planet7_left.png,7,Community 2,NA,TRUE,f,f,NA,NA,NA,3,6,"9,4,2,5,14,12,6,11,7,8,3,1,13,15,10"
15146,commdev-image-keyboard-response,219,1367348,learnblock1,444.39999997615814,img/planet6_right.png,6,Community 2,NA,TRUE,j,j,NA,NA,NA,3,6,"9,4,2,5,14,12,6,11,7,8,3,1,13,15,10"
15146,commdev-image-keyboard-response,220,1368610,learnblock1,780.6000000238419,img/planet11_left.png,11,Community 2,NA,TRUE,f,f,NA,NA,NA,3,6,"9,4,2,5,14,12,6,11,7,8,3,1,13,15,10"
15146,commdev-image-keyboard-response,221,1369864,learnblock1,422.30000001192093,img/planet8_right.png,8,Community 2,NA,TRUE,j,j,NA,NA,NA,3,6,"9,4,2,5,14,12,6,11,7,8,3,1,13,15,10"
15146,commdev-image-keyboard-response,222,1371122,learnblock1,562.8000000119209,img/planet11_right.png,11,Community 2,NA,TRUE,j,j,NA,NA,NA,3,6,"9,4,2,5,14,12,6,11,7,8,3,1,13,15,10"
15146,commdev-image-keyboard-response,223,1372382,learnblock1,452.19999998807907,img/planet1_right.png,1,Community 3,NA,TRUE,j,j,NA,NA,NA,3,6,"9,4,2,5,14,12,6,11,7,8,3,1,13,15,10"
15146,commdev-image-keyboard-response,224,1373641,learnblock1,427.30000001192093,img/planet10_right.png,10,Community 3,NA,TRUE,j,j,NA,NA,NA,3,6,"9,4,2,5,14,12,6,11,7,8,3,1,13,15,10"
15146,commdev-image-keyboard-response,225,1374900,learnblock1,400.69999998807907,img/planet15_right.png,15,Community 3,NA,FALSE,f,j,NA,NA,NA,3,6,"9,4,2,5,14,12,6,11,7,8,3,1,13,15,10"
15146,commdev-image-keyboard-response,226,1376161,learnblock1,513.1999999880791,img/planet1_left.png,1,Community 3,NA,TRUE,f,f,NA,NA,NA,3,6,"9,4,2,5,14,12,6,11,7,8,3,1,13,15,10"
15146,commdev-image-keyboard-response,227,1377419,learnblock1,424.10000002384186,img/planet13_left.png,13,Community 3,NA,TRUE,f,f,NA,NA,NA,3,6,"9,4,2,5,14,12,6,11,7,8,3,1,13,15,10"
15146,commdev-image-keyboard-response,228,1378679,learnblock1,540,img/planet3_right.png,3,Community 3,NA,FALSE,f,j,NA,NA,NA,3,6,"9,4,2,5,14,12,6,11,7,8,3,1,13,15,10"
15146,commdev-image-keyboard-response,229,1379939,learnblock1,561.6999999880791,img/planet15_right.png,15,Community 3,NA,TRUE,j,j,NA,NA,NA,3,6,"9,4,2,5,14,12,6,11,7,8,3,1,13,15,10"
15146,commdev-image-keyboard-response,230,1381195,learnblock1,471,img/planet10_right.png,10,Community 3,NA,TRUE,j,j,NA,NA,NA,3,6,"9,4,2,5,14,12,6,11,7,8,3,1,13,15,10"
15146,commdev-image-keyboard-response,231,1382457,learnblock1,407.19999998807907,img/planet1_left.png,1,Community 3,NA,TRUE,f,f,NA,NA,NA,3,6,"9,4,2,5,14,12,6,11,7,8,3,1,13,15,10"
15146,commdev-image-keyboard-response,232,1383713,learnblock1,468.9000000357628,img/planet10_right.png,10,Community 3,NA,TRUE,j,j,NA,NA,NA,3,6,"9,4,2,5,14,12,6,11,7,8,3,1,13,15,10"
15146,commdev-image-keyboard-response,233,1384976,learnblock1,656.3000000119209,img/planet1_right.png,1,Community 3,NA,TRUE,j,j,NA,NA,NA,3,6,"9,4,2,5,14,12,6,11,7,8,3,1,13,15,10"
15146,commdev-image-keyboard-response,234,1386240,learnblock1,538.1999999880791,img/planet13_right.png,13,Community 3,NA,TRUE,j,j,NA,NA,NA,3,6,"9,4,2,5,14,12,6,11,7,8,3,1,13,15,10"
15146,commdev-image-keyboard-response,235,1387500,learnblock1,607.6999999880791,img/planet10_left.png,10,Community 3,NA,TRUE,f,f,NA,NA,NA,3,6,"9,4,2,5,14,12,6,11,7,8,3,1,13,15,10"
15146,commdev-image-keyboard-response,236,1388755,learnblock1,553.1999999880791,img/planet3_right.png,3,Community 3,NA,TRUE,j,j,NA,NA,NA,3,6,"9,4,2,5,14,12,6,11,7,8,3,1,13,15,10"
15146,commdev-image-keyboard-response,237,1390008,learnblock1,668.5,img/planet15_left.png,15,Community 3,NA,TRUE,f,f,NA,NA,NA,3,6,"9,4,2,5,14,12,6,11,7,8,3,1,13,15,10"
15146,commdev-image-keyboard-response,238,1391271,learnblock1,397.0999999642372,img/planet3_right.png,3,Community 3,NA,TRUE,j,j,NA,NA,NA,3,6,"9,4,2,5,14,12,6,11,7,8,3,1,13,15,10"
15146,commdev-image-keyboard-response,239,1392526,learnblock1,567,img/planet13_right.png,13,Community 3,NA,TRUE,j,j,NA,NA,NA,3,6,"9,4,2,5,14,12,6,11,7,8,3,1,13,15,10"
15146,commdev-image-keyboard-response,240,1393781,learnblock1,500.4000000357628,img/planet15_left.png,15,Community 3,NA,TRUE,f,f,NA,NA,NA,3,6,"9,4,2,5,14,12,6,11,7,8,3,1,13,15,10"
15146,commdev-image-keyboard-response,241,1395040,learnblock1,395.80000001192093,img/planet1_right.png,1,Community 3,NA,TRUE,j,j,NA,NA,NA,3,6,"9,4,2,5,14,12,6,11,7,8,3,1,13,15,10"
15146,commdev-image-keyboard-response,242,1396295,learnblock1,670,img/planet13_right.png,13,Community 3,NA,TRUE,j,j,NA,NA,NA,3,6,"9,4,2,5,14,12,6,11,7,8,3,1,13,15,10"
15146,commdev-image-keyboard-response,243,1397547,learnblock1,682.1000000238419,img/planet15_right.png,15,Community 3,NA,TRUE,j,j,NA,NA,NA,3,6,"9,4,2,5,14,12,6,11,7,8,3,1,13,15,10"
15146,commdev-image-keyboard-response,244,1398802,learnblock1,452.80000001192093,img/planet13_left.png,13,Community 3,NA,TRUE,f,f,NA,NA,NA,3,6,"9,4,2,5,14,12,6,11,7,8,3,1,13,15,10"
15146,commdev-image-keyboard-response,245,1400057,learnblock1,486.2999999523163,img/planet1_right.png,1,Community 3,NA,TRUE,j,j,NA,NA,NA,3,6,"9,4,2,5,14,12,6,11,7,8,3,1,13,15,10"
15146,commdev-image-keyboard-response,246,1401312,learnblock1,869.1000000238419,img/planet11_left.png,11,Community 2,NA,TRUE,f,f,NA,NA,NA,3,6,"9,4,2,5,14,12,6,11,7,8,3,1,13,15,10"
15146,commdev-image-keyboard-response,247,1402566,learnblock1,435.80000001192093,img/planet8_right.png,8,Community 2,NA,TRUE,j,j,NA,NA,NA,3,6,"9,4,2,5,14,12,6,11,7,8,3,1,13,15,10"
15146,commdev-image-keyboard-response,248,1403819,learnblock1,524.3000000119209,img/planet11_left.png,11,Community 2,NA,TRUE,f,f,NA,NA,NA,3,6,"9,4,2,5,14,12,6,11,7,8,3,1,13,15,10"
15146,commdev-image-keyboard-response,249,1405073,learnblock1,441,img/planet8_right.png,8,Community 2,NA,TRUE,j,j,NA,NA,NA,3,6,"9,4,2,5,14,12,6,11,7,8,3,1,13,15,10"
15146,commdev-image-keyboard-response,250,1406332,learnblock1,402.69999998807907,img/planet11_left.png,11,Community 2,NA,TRUE,f,f,NA,NA,NA,3,6,"9,4,2,5,14,12,6,11,7,8,3,1,13,15,10"
15146,commdev-image-keyboard-response,251,1407591,learnblock1,443.19999998807907,img/planet1_left.png,1,Community 3,NA,TRUE,f,f,NA,NA,NA,3,6,"9,4,2,5,14,12,6,11,7,8,3,1,13,15,10"
15146,commdev-image-keyboard-response,252,1408844,learnblock1,407.80000001192093,img/planet10_left.png,10,Community 3,NA,TRUE,f,f,NA,NA,NA,3,6,"9,4,2,5,14,12,6,11,7,8,3,1,13,15,10"
15146,commdev-image-keyboard-response,253,1410096,learnblock1,413,img/planet15_left.png,15,Community 3,NA,TRUE,f,f,NA,NA,NA,3,6,"9,4,2,5,14,12,6,11,7,8,3,1,13,15,10"
15146,commdev-image-keyboard-response,254,1411355,learnblock1,333.69999998807907,img/planet13_right.png,13,Community 3,NA,TRUE,j,j,NA,NA,NA,3,6,"9,4,2,5,14,12,6,11,7,8,3,1,13,15,10"
15146,commdev-image-keyboard-response,255,1412610,learnblock1,514.5,img/planet10_left.png,10,Community 3,NA,TRUE,f,f,NA,NA,NA,3,6,"9,4,2,5,14,12,6,11,7,8,3,1,13,15,10"
15146,commdev-image-keyboard-response,256,1413862,learnblock1,402.7999999523163,img/planet13_right.png,13,Community 3,NA,TRUE,j,j,NA,NA,NA,3,6,"9,4,2,5,14,12,6,11,7,8,3,1,13,15,10"
15146,commdev-image-keyboard-response,257,1415117,learnblock1,474.60000002384186,img/planet1_left.png,1,Community 3,NA,TRUE,f,f,NA,NA,NA,3,6,"9,4,2,5,14,12,6,11,7,8,3,1,13,15,10"
15146,commdev-image-keyboard-response,258,1416377,learnblock1,400.80000001192093,img/planet13_left.png,13,Community 3,NA,TRUE,f,f,NA,NA,NA,3,6,"9,4,2,5,14,12,6,11,7,8,3,1,13,15,10"
15146,commdev-image-keyboard-response,259,1417628,learnblock1,476.39999997615814,img/planet10_left.png,10,Community 3,NA,TRUE,f,f,NA,NA,NA,3,6,"9,4,2,5,14,12,6,11,7,8,3,1,13,15,10"
15146,commdev-image-keyboard-response,260,1418888,learnblock1,380.30000001192093,img/planet13_left.png,13,Community 3,NA,TRUE,f,f,NA,NA,NA,3,6,"9,4,2,5,14,12,6,11,7,8,3,1,13,15,10"
15146,commdev-image-keyboard-response,261,1420148,learnblock1,528.1999999880791,img/planet1_left.png,1,Community 3,NA,TRUE,f,f,NA,NA,NA,3,6,"9,4,2,5,14,12,6,11,7,8,3,1,13,15,10"
15146,commdev-image-keyboard-response,262,1421408,learnblock1,425.19999998807907,img/planet13_right.png,13,Community 3,NA,TRUE,j,j,NA,NA,NA,3,6,"9,4,2,5,14,12,6,11,7,8,3,1,13,15,10"
15146,commdev-image-keyboard-response,263,1422674,learnblock1,569.9000000357628,img/planet3_right.png,3,Community 3,NA,TRUE,j,j,NA,NA,NA,3,6,"9,4,2,5,14,12,6,11,7,8,3,1,13,15,10"
15146,commdev-image-keyboard-response,264,1423930,learnblock1,766.3000000119209,img/planet15_right.png,15,Community 3,NA,TRUE,j,j,NA,NA,NA,3,6,"9,4,2,5,14,12,6,11,7,8,3,1,13,15,10"
15146,commdev-image-keyboard-response,265,1425189,learnblock1,507.7999999523163,img/planet13_left.png,13,Community 3,NA,TRUE,f,f,NA,NA,NA,3,6,"9,4,2,5,14,12,6,11,7,8,3,1,13,15,10"
15146,commdev-image-keyboard-response,266,1426448,learnblock1,565.9000000357628,img/planet1_right.png,1,Community 3,NA,TRUE,j,j,NA,NA,NA,3,6,"9,4,2,5,14,12,6,11,7,8,3,1,13,15,10"
15146,commdev-image-keyboard-response,267,1427710,learnblock1,621.5999999642372,img/planet11_right.png,11,Community 2,NA,TRUE,j,j,NA,NA,NA,3,6,"9,4,2,5,14,12,6,11,7,8,3,1,13,15,10"
15146,commdev-image-keyboard-response,268,1428969,learnblock1,651.8999999761581,img/planet6_right.png,6,Community 2,NA,TRUE,j,j,NA,NA,NA,3,6,"9,4,2,5,14,12,6,11,7,8,3,1,13,15,10"
15146,commdev-image-keyboard-response,269,1430226,learnblock1,783.3999999761581,img/planet7_left.png,7,Community 2,NA,TRUE,f,f,NA,NA,NA,3,6,"9,4,2,5,14,12,6,11,7,8,3,1,13,15,10"
15146,commdev-image-keyboard-response,270,1431480,learnblock1,648.5,img/planet12_right.png,12,Community 2,NA,TRUE,j,j,NA,NA,NA,3,6,"9,4,2,5,14,12,6,11,7,8,3,1,13,15,10"
15146,commdev-image-keyboard-response,271,1432736,learnblock1,544,img/planet5_right.png,5,Community 1,NA,TRUE,j,j,NA,NA,NA,3,6,"9,4,2,5,14,12,6,11,7,8,3,1,13,15,10"
15146,commdev-image-keyboard-response,272,1433995,learnblock1,655.6999999880791,img/planet4_left.png,4,Community 1,NA,TRUE,f,f,NA,NA,NA,3,6,"9,4,2,5,14,12,6,11,7,8,3,1,13,15,10"
15146,commdev-image-keyboard-response,273,1435252,learnblock1,438.60000002384186,img/planet5_right.png,5,Community 1,NA,TRUE,j,j,NA,NA,NA,3,6,"9,4,2,5,14,12,6,11,7,8,3,1,13,15,10"
15146,commdev-image-keyboard-response,274,1436513,learnblock1,571.0999999642372,img/planet4_right.png,4,Community 1,NA,TRUE,j,j,NA,NA,NA,3,6,"9,4,2,5,14,12,6,11,7,8,3,1,13,15,10"
15146,commdev-image-keyboard-response,275,1437765,learnblock1,506.39999997615814,img/planet5_left.png,5,Community 1,NA,TRUE,f,f,NA,NA,NA,3,6,"9,4,2,5,14,12,6,11,7,8,3,1,13,15,10"
15146,commdev-image-keyboard-response,276,1439024,learnblock1,437.30000001192093,img/planet2_right.png,2,Community 1,NA,TRUE,j,j,NA,NA,NA,3,6,"9,4,2,5,14,12,6,11,7,8,3,1,13,15,10"
15146,commdev-image-keyboard-response,277,1440279,learnblock1,646.9000000357628,img/planet4_right.png,4,Community 1,NA,TRUE,j,j,NA,NA,NA,3,6,"9,4,2,5,14,12,6,11,7,8,3,1,13,15,10"
15146,commdev-image-keyboard-response,278,1441538,learnblock1,776.6999999880791,img/planet14_right.png,14,Community 1,NA,TRUE,j,j,NA,NA,NA,3,6,"9,4,2,5,14,12,6,11,7,8,3,1,13,15,10"
15146,commdev-image-keyboard-response,279,1442797,learnblock1,580,img/planet9_left.png,9,Community 1,NA,TRUE,f,f,NA,NA,NA,3,6,"9,4,2,5,14,12,6,11,7,8,3,1,13,15,10"
15146,commdev-image-keyboard-response,280,1444055,learnblock1,389.4000000357628,img/planet2_right.png,2,Community 1,NA,TRUE,j,j,NA,NA,NA,3,6,"9,4,2,5,14,12,6,11,7,8,3,1,13,15,10"
15146,commdev-image-keyboard-response,281,1445311,learnblock1,528.3999999761581,img/planet5_left.png,5,Community 1,NA,TRUE,f,f,NA,NA,NA,3,6,"9,4,2,5,14,12,6,11,7,8,3,1,13,15,10"
15146,commdev-image-keyboard-response,282,1446570,learnblock1,602.6000000238419,img/planet12_right.png,12,Community 2,NA,TRUE,j,j,NA,NA,NA,3,6,"9,4,2,5,14,12,6,11,7,8,3,1,13,15,10"
15146,commdev-image-keyboard-response,283,1447824,learnblock1,404.69999998807907,img/planet6_left.png,6,Community 2,NA,TRUE,f,f,NA,NA,NA,3,6,"9,4,2,5,14,12,6,11,7,8,3,1,13,15,10"
15146,commdev-image-keyboard-response,284,1449077,learnblock1,597.8999999761581,img/planet8_left.png,8,Community 2,NA,TRUE,f,f,NA,NA,NA,3,6,"9,4,2,5,14,12,6,11,7,8,3,1,13,15,10"
15146,commdev-image-keyboard-response,285,1450338,learnblock1,424,img/planet6_left.png,6,Community 2,NA,TRUE,f,f,NA,NA,NA,3,6,"9,4,2,5,14,12,6,11,7,8,3,1,13,15,10"
15146,commdev-image-keyboard-response,286,1451594,learnblock1,474.19999998807907,img/planet7_right.png,7,Community 2,NA,TRUE,j,j,NA,NA,NA,3,6,"9,4,2,5,14,12,6,11,7,8,3,1,13,15,10"
15146,commdev-image-keyboard-response,287,1452848,learnblock1,580.6999999880791,img/planet6_left.png,6,Community 2,NA,TRUE,f,f,NA,NA,NA,3,6,"9,4,2,5,14,12,6,11,7,8,3,1,13,15,10"
15146,commdev-image-keyboard-response,288,1454106,learnblock1,621,img/planet12_right.png,12,Community 2,NA,TRUE,j,j,NA,NA,NA,3,6,"9,4,2,5,14,12,6,11,7,8,3,1,13,15,10"
15146,commdev-image-keyboard-response,289,1455365,learnblock1,546,img/planet8_left.png,8,Community 2,NA,FALSE,j,f,NA,NA,NA,3,6,"9,4,2,5,14,12,6,11,7,8,3,1,13,15,10"
15146,commdev-image-keyboard-response,290,1456621,learnblock1,592.3000000119209,img/planet7_left.png,7,Community 2,NA,TRUE,f,f,NA,NA,NA,3,6,"9,4,2,5,14,12,6,11,7,8,3,1,13,15,10"
15146,commdev-image-keyboard-response,291,1457876,learnblock1,493.19999998807907,img/planet6_left.png,6,Community 2,NA,TRUE,f,f,NA,NA,NA,3,6,"9,4,2,5,14,12,6,11,7,8,3,1,13,15,10"
15146,commdev-image-keyboard-response,292,1459141,learnblock1,493.39999997615814,img/planet12_right.png,12,Community 2,NA,TRUE,j,j,NA,NA,NA,3,6,"9,4,2,5,14,12,6,11,7,8,3,1,13,15,10"
15146,commdev-image-keyboard-response,293,1460393,learnblock1,337.10000002384186,img/planet6_right.png,6,Community 2,NA,FALSE,f,j,NA,NA,NA,3,6,"9,4,2,5,14,12,6,11,7,8,3,1,13,15,10"
15146,commdev-image-keyboard-response,294,1461653,learnblock1,578,img/planet8_left.png,8,Community 2,NA,TRUE,f,f,NA,NA,NA,3,6,"9,4,2,5,14,12,6,11,7,8,3,1,13,15,10"
15146,commdev-image-keyboard-response,295,1462912,learnblock1,493.69999998807907,img/planet7_right.png,7,Community 2,NA,FALSE,f,j,NA,NA,NA,3,6,"9,4,2,5,14,12,6,11,7,8,3,1,13,15,10"
15146,commdev-image-keyboard-response,296,1464172,learnblock1,572.1999999880791,img/planet6_right.png,6,Community 2,NA,TRUE,j,j,NA,NA,NA,3,6,"9,4,2,5,14,12,6,11,7,8,3,1,13,15,10"
15146,commdev-image-keyboard-response,297,1465431,learnblock1,442.5999999642372,img/planet7_left.png,7,Community 2,NA,TRUE,f,f,NA,NA,NA,3,6,"9,4,2,5,14,12,6,11,7,8,3,1,13,15,10"
15146,commdev-image-keyboard-response,298,1466682,learnblock1,763.1000000238419,img/planet12_left.png,12,Community 2,NA,TRUE,f,f,NA,NA,NA,3,6,"9,4,2,5,14,12,6,11,7,8,3,1,13,15,10"
15146,commdev-image-keyboard-response,299,1467939,learnblock1,634.6999999880791,img/planet7_left.png,7,Community 2,NA,TRUE,f,f,NA,NA,NA,3,6,"9,4,2,5,14,12,6,11,7,8,3,1,13,15,10"
15146,commdev-image-keyboard-response,300,1469206,learnblock1,483,img/planet11_right.png,11,Community 2,NA,TRUE,j,j,NA,NA,NA,3,6,"9,4,2,5,14,12,6,11,7,8,3,1,13,15,10"
15146,commdev-image-keyboard-response,301,1470462,learnblock1,630.6999999880791,img/planet6_right.png,6,Community 2,NA,TRUE,j,j,NA,NA,NA,3,6,"9,4,2,5,14,12,6,11,7,8,3,1,13,15,10"
15146,commdev-image-keyboard-response,302,1471727,learnblock1,444.19999998807907,img/planet8_left.png,8,Community 2,NA,TRUE,f,f,NA,NA,NA,3,6,"9,4,2,5,14,12,6,11,7,8,3,1,13,15,10"
15146,commdev-image-keyboard-response,303,1472985,learnblock1,412.30000001192093,img/planet11_left.png,11,Community 2,NA,TRUE,f,f,NA,NA,NA,3,6,"9,4,2,5,14,12,6,11,7,8,3,1,13,15,10"
15146,commdev-image-keyboard-response,304,1474240,learnblock1,455.10000002384186,img/planet6_left.png,6,Community 2,NA,TRUE,f,f,NA,NA,NA,3,6,"9,4,2,5,14,12,6,11,7,8,3,1,13,15,10"
15146,commdev-image-keyboard-response,305,1475500,learnblock1,542.8000000119209,img/planet7_left.png,7,Community 2,NA,TRUE,f,f,NA,NA,NA,3,6,"9,4,2,5,14,12,6,11,7,8,3,1,13,15,10"
15146,commdev-image-keyboard-response,306,1476754,learnblock1,514.8999999761581,img/planet12_left.png,12,Community 2,NA,TRUE,f,f,NA,NA,NA,3,6,"9,4,2,5,14,12,6,11,7,8,3,1,13,15,10"
15146,commdev-image-keyboard-response,307,1478013,learnblock1,539.9000000357628,img/planet8_left.png,8,Community 2,NA,TRUE,f,f,NA,NA,NA,3,6,"9,4,2,5,14,12,6,11,7,8,3,1,13,15,10"
15146,commdev-image-keyboard-response,308,1479279,learnblock1,979.1000000238419,img/planet12_left.png,12,Community 2,NA,TRUE,f,f,NA,NA,NA,3,6,"9,4,2,5,14,12,6,11,7,8,3,1,13,15,10"
15146,commdev-image-keyboard-response,309,1480537,learnblock1,609.6000000238419,img/planet7_right.png,7,Community 2,NA,TRUE,j,j,NA,NA,NA,3,6,"9,4,2,5,14,12,6,11,7,8,3,1,13,15,10"
15146,commdev-image-keyboard-response,310,1481794,learnblock1,581.5999999642372,img/planet6_left.png,6,Community 2,NA,TRUE,f,f,NA,NA,NA,3,6,"9,4,2,5,14,12,6,11,7,8,3,1,13,15,10"
15146,commdev-image-keyboard-response,311,1483050,learnblock1,784.1999999880791,img/planet12_left.png,12,Community 2,NA,TRUE,f,f,NA,NA,NA,3,6,"9,4,2,5,14,12,6,11,7,8,3,1,13,15,10"
15146,commdev-image-keyboard-response,312,1484307,learnblock1,442.5999999642372,img/planet5_right.png,5,Community 1,NA,TRUE,j,j,NA,NA,NA,3,6,"9,4,2,5,14,12,6,11,7,8,3,1,13,15,10"
15146,commdev-image-keyboard-response,313,1485564,learnblock1,618.5,img/planet2_left.png,2,Community 1,NA,TRUE,f,f,NA,NA,NA,3,6,"9,4,2,5,14,12,6,11,7,8,3,1,13,15,10"
15146,commdev-image-keyboard-response,314,1486829,learnblock1,573.2000000476837,img/planet5_right.png,5,Community 1,NA,TRUE,j,j,NA,NA,NA,3,6,"9,4,2,5,14,12,6,11,7,8,3,1,13,15,10"
15146,commdev-image-keyboard-response,315,1488085,learnblock1,382.19999998807907,img/planet2_left.png,2,Community 1,NA,TRUE,f,f,NA,NA,NA,3,6,"9,4,2,5,14,12,6,11,7,8,3,1,13,15,10"
15146,commdev-image-keyboard-response,316,1489338,learnblock1,494.5999999642372,img/planet5_left.png,5,Community 1,NA,TRUE,f,f,NA,NA,NA,3,6,"9,4,2,5,14,12,6,11,7,8,3,1,13,15,10"
15146,commdev-image-keyboard-response,317,1490593,learnblock1,620.8000000119209,img/planet9_left.png,9,Community 1,NA,TRUE,f,f,NA,NA,NA,3,6,"9,4,2,5,14,12,6,11,7,8,3,1,13,15,10"
15146,commdev-image-keyboard-response,318,1491852,learnblock1,557.9000000357628,img/planet14_right.png,14,Community 1,NA,TRUE,j,j,NA,NA,NA,3,6,"9,4,2,5,14,12,6,11,7,8,3,1,13,15,10"
15146,commdev-image-keyboard-response,319,1493104,learnblock1,501.2000000476837,img/planet9_left.png,9,Community 1,NA,TRUE,f,f,NA,NA,NA,3,6,"9,4,2,5,14,12,6,11,7,8,3,1,13,15,10"
15146,commdev-image-keyboard-response,320,1494358,learnblock1,463.60000002384186,img/planet5_left.png,5,Community 1,NA,TRUE,f,f,NA,NA,NA,3,6,"9,4,2,5,14,12,6,11,7,8,3,1,13,15,10"
15146,commdev-image-keyboard-response,321,1495610,learnblock1,485,img/planet12_right.png,12,Community 2,NA,TRUE,j,j,NA,NA,NA,3,6,"9,4,2,5,14,12,6,11,7,8,3,1,13,15,10"
15146,commdev-image-keyboard-response,322,1496862,learnblock1,457.19999998807907,img/planet8_left.png,8,Community 2,NA,TRUE,f,f,NA,NA,NA,3,6,"9,4,2,5,14,12,6,11,7,8,3,1,13,15,10"
15146,commdev-image-keyboard-response,323,1498115,learnblock1,607.1000000238419,img/planet11_right.png,11,Community 2,NA,TRUE,j,j,NA,NA,NA,3,6,"9,4,2,5,14,12,6,11,7,8,3,1,13,15,10"
15146,commdev-image-keyboard-response,324,1499370,learnblock1,727.1999999880791,img/planet1_right.png,1,Community 3,NA,TRUE,j,j,NA,NA,NA,3,6,"9,4,2,5,14,12,6,11,7,8,3,1,13,15,10"
15146,commdev-image-keyboard-response,325,1500631,learnblock1,561.8000000119209,img/planet13_right.png,13,Community 3,NA,TRUE,j,j,NA,NA,NA,3,6,"9,4,2,5,14,12,6,11,7,8,3,1,13,15,10"
15146,commdev-image-keyboard-response,326,1501890,learnblock1,424.69999998807907,img/planet1_right.png,1,Community 3,NA,TRUE,j,j,NA,NA,NA,3,6,"9,4,2,5,14,12,6,11,7,8,3,1,13,15,10"
15146,commdev-image-keyboard-response,327,1503146,learnblock1,512.9000000357628,img/planet13_right.png,13,Community 3,NA,TRUE,j,j,NA,NA,NA,3,6,"9,4,2,5,14,12,6,11,7,8,3,1,13,15,10"
15146,commdev-image-keyboard-response,328,1504399,learnblock1,506.5,img/planet3_right.png,3,Community 3,NA,TRUE,j,j,NA,NA,NA,3,6,"9,4,2,5,14,12,6,11,7,8,3,1,13,15,10"
15146,commdev-image-keyboard-response,329,1505655,learnblock1,712.6000000238419,img/planet13_right.png,13,Community 3,NA,TRUE,j,j,NA,NA,NA,3,6,"9,4,2,5,14,12,6,11,7,8,3,1,13,15,10"
15146,commdev-image-keyboard-response,330,1506907,learnblock1,387.39999997615814,img/planet10_left.png,10,Community 3,NA,TRUE,f,f,NA,NA,NA,3,6,"9,4,2,5,14,12,6,11,7,8,3,1,13,15,10"
15146,commdev-image-keyboard-response,331,1508167,learnblock1,678.8000000119209,img/planet15_right.png,15,Community 3,NA,TRUE,j,j,NA,NA,NA,3,6,"9,4,2,5,14,12,6,11,7,8,3,1,13,15,10"
15146,commdev-image-keyboard-response,332,1509430,learnblock1,721.8000000119209,img/planet13_right.png,13,Community 3,NA,TRUE,j,j,NA,NA,NA,3,6,"9,4,2,5,14,12,6,11,7,8,3,1,13,15,10"
15146,commdev-image-keyboard-response,333,1510690,learnblock1,434.7000000476837,img/planet1_left.png,1,Community 3,NA,TRUE,f,f,NA,NA,NA,3,6,"9,4,2,5,14,12,6,11,7,8,3,1,13,15,10"
15146,commdev-image-keyboard-response,334,1511945,learnblock1,422.10000002384186,img/planet10_right.png,10,Community 3,NA,TRUE,j,j,NA,NA,NA,3,6,"9,4,2,5,14,12,6,11,7,8,3,1,13,15,10"
15146,commdev-image-keyboard-response,335,1513202,learnblock1,415.10000002384186,img/planet13_left.png,13,Community 3,NA,TRUE,f,f,NA,NA,NA,3,6,"9,4,2,5,14,12,6,11,7,8,3,1,13,15,10"
15146,commdev-image-keyboard-response,336,1514457,learnblock1,402.39999997615814,img/planet10_right.png,10,Community 3,NA,TRUE,j,j,NA,NA,NA,3,6,"9,4,2,5,14,12,6,11,7,8,3,1,13,15,10"
15146,commdev-image-keyboard-response,337,1515711,learnblock1,399.5999999642372,img/planet15_right.png,15,Community 3,NA,FALSE,f,j,NA,NA,NA,3,6,"9,4,2,5,14,12,6,11,7,8,3,1,13,15,10"
15146,commdev-image-keyboard-response,338,1516966,learnblock1,514.0999999642372,img/planet10_right.png,10,Community 3,NA,TRUE,j,j,NA,NA,NA,3,6,"9,4,2,5,14,12,6,11,7,8,3,1,13,15,10"
15146,commdev-image-keyboard-response,339,1518224,learnblock1,389.69999998807907,img/planet13_right.png,13,Community 3,NA,FALSE,f,j,NA,NA,NA,3,6,"9,4,2,5,14,12,6,11,7,8,3,1,13,15,10"
15146,commdev-image-keyboard-response,340,1519490,learnblock1,499.69999998807907,img/planet10_left.png,10,Community 3,NA,TRUE,f,f,NA,NA,NA,3,6,"9,4,2,5,14,12,6,11,7,8,3,1,13,15,10"
15146,commdev-image-keyboard-response,341,1520755,learnblock1,583.3000000119209,img/planet15_left.png,15,Community 3,NA,TRUE,f,f,NA,NA,NA,3,6,"9,4,2,5,14,12,6,11,7,8,3,1,13,15,10"
15146,commdev-image-keyboard-response,342,1522013,learnblock1,388.80000001192093,img/planet10_right.png,10,Community 3,NA,TRUE,j,j,NA,NA,NA,3,6,"9,4,2,5,14,12,6,11,7,8,3,1,13,15,10"
15146,commdev-image-keyboard-response,343,1523281,learnblock1,464.2000000476837,img/planet15_left.png,15,Community 3,NA,TRUE,f,f,NA,NA,NA,3,6,"9,4,2,5,14,12,6,11,7,8,3,1,13,15,10"
15146,commdev-image-keyboard-response,344,1524542,learnblock1,436.69999998807907,img/planet13_right.png,13,Community 3,NA,TRUE,j,j,NA,NA,NA,3,6,"9,4,2,5,14,12,6,11,7,8,3,1,13,15,10"
15146,commdev-image-keyboard-response,345,1525797,learnblock1,689.3000000119209,img/planet1_left.png,1,Community 3,NA,TRUE,f,f,NA,NA,NA,3,6,"9,4,2,5,14,12,6,11,7,8,3,1,13,15,10"
15146,commdev-image-keyboard-response,346,1527062,learnblock1,575.6999999880791,img/planet15_left.png,15,Community 3,NA,TRUE,f,f,NA,NA,NA,3,6,"9,4,2,5,14,12,6,11,7,8,3,1,13,15,10"
15146,commdev-image-keyboard-response,347,1528320,learnblock1,411.60000002384186,img/planet3_right.png,3,Community 3,NA,TRUE,j,j,NA,NA,NA,3,6,"9,4,2,5,14,12,6,11,7,8,3,1,13,15,10"
15146,commdev-image-keyboard-response,348,1529578,learnblock1,638.1999999880791,img/planet14_right.png,14,Community 1,NA,TRUE,j,j,NA,NA,NA,3,6,"9,4,2,5,14,12,6,11,7,8,3,1,13,15,10"
15146,commdev-image-keyboard-response,349,1530838,learnblock1,582.1000000238419,img/planet4_right.png,4,Community 1,NA,TRUE,j,j,NA,NA,NA,3,6,"9,4,2,5,14,12,6,11,7,8,3,1,13,15,10"
15146,commdev-image-keyboard-response,350,1532097,learnblock1,620.8000000119209,img/planet14_right.png,14,Community 1,NA,TRUE,j,j,NA,NA,NA,3,6,"9,4,2,5,14,12,6,11,7,8,3,1,13,15,10"
15146,commdev-image-keyboard-response,351,1533354,learnblock1,567.0999999642372,img/planet4_left.png,4,Community 1,NA,TRUE,f,f,NA,NA,NA,3,6,"9,4,2,5,14,12,6,11,7,8,3,1,13,15,10"
15146,commdev-image-keyboard-response,352,1534612,learnblock1,543.1000000238419,img/planet2_left.png,2,Community 1,NA,TRUE,f,f,NA,NA,NA,3,6,"9,4,2,5,14,12,6,11,7,8,3,1,13,15,10"
15146,commdev-image-keyboard-response,353,1535866,learnblock1,634.0999999642372,img/planet9_left.png,9,Community 1,NA,TRUE,f,f,NA,NA,NA,3,6,"9,4,2,5,14,12,6,11,7,8,3,1,13,15,10"
15146,commdev-image-keyboard-response,354,1537123,learnblock1,466.30000001192093,img/planet2_right.png,2,Community 1,NA,TRUE,j,j,NA,NA,NA,3,6,"9,4,2,5,14,12,6,11,7,8,3,1,13,15,10"
15146,commdev-image-keyboard-response,355,1538377,learnblock1,583.2999999523163,img/planet4_left.png,4,Community 1,NA,TRUE,f,f,NA,NA,NA,3,6,"9,4,2,5,14,12,6,11,7,8,3,1,13,15,10"
15146,commdev-image-keyboard-response,356,1539640,learnblock1,621.1999999880791,img/planet9_left.png,9,Community 1,NA,TRUE,f,f,NA,NA,NA,3,6,"9,4,2,5,14,12,6,11,7,8,3,1,13,15,10"
15146,commdev-image-keyboard-response,357,1540895,learnblock1,657.2999999523163,img/planet14_left.png,14,Community 1,NA,TRUE,f,f,NA,NA,NA,3,6,"9,4,2,5,14,12,6,11,7,8,3,1,13,15,10"
15146,commdev-image-keyboard-response,358,1542155,learnblock1,424.5,img/planet4_left.png,4,Community 1,NA,TRUE,f,f,NA,NA,NA,3,6,"9,4,2,5,14,12,6,11,7,8,3,1,13,15,10"
15146,commdev-image-keyboard-response,359,1543413,learnblock1,438.19999998807907,img/planet2_left.png,2,Community 1,NA,TRUE,f,f,NA,NA,NA,3,6,"9,4,2,5,14,12,6,11,7,8,3,1,13,15,10"
15146,commdev-image-keyboard-response,360,1544665,learnblock1,559.3000000119209,img/planet4_right.png,4,Community 1,NA,TRUE,j,j,NA,NA,NA,3,6,"9,4,2,5,14,12,6,11,7,8,3,1,13,15,10"
15146,commdev-image-keyboard-response,361,1545923,learnblock1,470.60000002384186,img/planet2_right.png,2,Community 1,NA,TRUE,j,j,NA,NA,NA,3,6,"9,4,2,5,14,12,6,11,7,8,3,1,13,15,10"
15146,commdev-image-keyboard-response,362,1547183,learnblock1,508.39999997615814,img/planet9_left.png,9,Community 1,NA,TRUE,f,f,NA,NA,NA,3,6,"9,4,2,5,14,12,6,11,7,8,3,1,13,15,10"
15146,commdev-image-keyboard-response,363,1548443,learnblock1,563,img/planet14_right.png,14,Community 1,NA,TRUE,j,j,NA,NA,NA,3,6,"9,4,2,5,14,12,6,11,7,8,3,1,13,15,10"
15146,commdev-image-keyboard-response,364,1549699,learnblock1,942.1999999880791,img/planet9_left.png,9,Community 1,NA,TRUE,f,f,NA,NA,NA,3,6,"9,4,2,5,14,12,6,11,7,8,3,1,13,15,10"
15146,commdev-image-keyboard-response,365,1550951,learnblock1,957.1999999880791,img/planet14_left.png,14,Community 1,NA,TRUE,f,f,NA,NA,NA,3,6,"9,4,2,5,14,12,6,11,7,8,3,1,13,15,10"
15146,commdev-image-keyboard-response,366,1552208,learnblock1,684.4000000357628,img/planet3_left.png,3,Community 3,NA,TRUE,f,f,NA,NA,NA,3,6,"9,4,2,5,14,12,6,11,7,8,3,1,13,15,10"
15146,commdev-image-keyboard-response,367,1553468,learnblock1,545.8999999761581,img/planet15_right.png,15,Community 3,NA,TRUE,j,j,NA,NA,NA,3,6,"9,4,2,5,14,12,6,11,7,8,3,1,13,15,10"
15146,commdev-image-keyboard-response,368,1554721,learnblock1,514.8999999761581,img/planet13_left.png,13,Community 3,NA,TRUE,f,f,NA,NA,NA,3,6,"9,4,2,5,14,12,6,11,7,8,3,1,13,15,10"
15146,commdev-image-keyboard-response,369,1555975,learnblock1,399.60000002384186,img/planet10_left.png,10,Community 3,NA,TRUE,f,f,NA,NA,NA,3,6,"9,4,2,5,14,12,6,11,7,8,3,1,13,15,10"
15146,commdev-image-keyboard-response,370,1557231,learnblock1,682.6999999880791,img/planet3_left.png,3,Community 3,NA,TRUE,f,f,NA,NA,NA,3,6,"9,4,2,5,14,12,6,11,7,8,3,1,13,15,10"
15146,commdev-image-keyboard-response,371,1558489,learnblock1,515.5,img/planet13_right.png,13,Community 3,NA,TRUE,j,j,NA,NA,NA,3,6,"9,4,2,5,14,12,6,11,7,8,3,1,13,15,10"
15146,commdev-image-keyboard-response,372,1559752,learnblock1,444.39999997615814,img/planet15_left.png,15,Community 3,NA,TRUE,f,f,NA,NA,NA,3,6,"9,4,2,5,14,12,6,11,7,8,3,1,13,15,10"
15146,commdev-image-keyboard-response,373,1561009,learnblock1,762.6999999880791,img/planet13_right.png,13,Community 3,NA,TRUE,j,j,NA,NA,NA,3,6,"9,4,2,5,14,12,6,11,7,8,3,1,13,15,10"
15146,commdev-image-keyboard-response,374,1562270,learnblock1,429.5,img/planet10_right.png,10,Community 3,NA,TRUE,j,j,NA,NA,NA,3,6,"9,4,2,5,14,12,6,11,7,8,3,1,13,15,10"
15146,commdev-image-keyboard-response,375,1563524,learnblock1,685.2999999523163,img/planet3_right.png,3,Community 3,NA,TRUE,j,j,NA,NA,NA,3,6,"9,4,2,5,14,12,6,11,7,8,3,1,13,15,10"
15146,commdev-image-keyboard-response,376,1564783,learnblock1,412.4000000357628,img/planet14_left.png,14,Community 1,NA,TRUE,f,f,NA,NA,NA,3,6,"9,4,2,5,14,12,6,11,7,8,3,1,13,15,10"
15146,commdev-image-keyboard-response,377,1566038,learnblock1,508.89999997615814,img/planet3_right.png,3,Community 3,NA,TRUE,j,j,NA,NA,NA,3,6,"9,4,2,5,14,12,6,11,7,8,3,1,13,15,10"
15146,commdev-image-keyboard-response,378,1567298,learnblock1,420.19999998807907,img/planet13_right.png,13,Community 3,NA,TRUE,j,j,NA,NA,NA,3,6,"9,4,2,5,14,12,6,11,7,8,3,1,13,15,10"
15146,commdev-image-keyboard-response,379,1568555,learnblock1,823.5,img/planet15_right.png,15,Community 3,NA,TRUE,j,j,NA,NA,NA,3,6,"9,4,2,5,14,12,6,11,7,8,3,1,13,15,10"
15146,commdev-image-keyboard-response,380,1569810,learnblock1,569.5,img/planet1_right.png,1,Community 3,NA,TRUE,j,j,NA,NA,NA,3,6,"9,4,2,5,14,12,6,11,7,8,3,1,13,15,10"
15146,commdev-image-keyboard-response,381,1571072,learnblock1,693.4000000357628,img/planet13_left.png,13,Community 3,NA,TRUE,f,f,NA,NA,NA,3,6,"9,4,2,5,14,12,6,11,7,8,3,1,13,15,10"
15146,commdev-image-keyboard-response,382,1572337,learnblock1,542.1999999880791,img/planet1_left.png,1,Community 3,NA,TRUE,f,f,NA,NA,NA,3,6,"9,4,2,5,14,12,6,11,7,8,3,1,13,15,10"
15146,commdev-image-keyboard-response,383,1573592,learnblock1,476,img/planet15_left.png,15,Community 3,NA,TRUE,f,f,NA,NA,NA,3,6,"9,4,2,5,14,12,6,11,7,8,3,1,13,15,10"
15146,commdev-image-keyboard-response,384,1574857,learnblock1,568.6999999880791,img/planet13_right.png,13,Community 3,NA,TRUE,j,j,NA,NA,NA,3,6,"9,4,2,5,14,12,6,11,7,8,3,1,13,15,10"
15146,commdev-image-keyboard-response,385,1576125,learnblock1,753.5,img/planet1_right.png,1,Community 3,NA,TRUE,j,j,NA,NA,NA,3,6,"9,4,2,5,14,12,6,11,7,8,3,1,13,15,10"
15146,commdev-image-keyboard-response,386,1577378,learnblock1,516.6000000238419,img/planet13_left.png,13,Community 3,NA,TRUE,f,f,NA,NA,NA,3,6,"9,4,2,5,14,12,6,11,7,8,3,1,13,15,10"
15146,commdev-image-keyboard-response,387,1578638,learnblock1,896.3000000119209,img/planet3_right.png,3,Community 3,NA,TRUE,j,j,NA,NA,NA,3,6,"9,4,2,5,14,12,6,11,7,8,3,1,13,15,10"
15146,commdev-image-keyboard-response,388,1579897,learnblock1,556,img/planet13_left.png,13,Community 3,NA,TRUE,f,f,NA,NA,NA,3,6,"9,4,2,5,14,12,6,11,7,8,3,1,13,15,10"
15146,commdev-image-keyboard-response,389,1581158,learnblock1,682.1999999880791,img/planet1_left.png,1,Community 3,NA,TRUE,f,f,NA,NA,NA,3,6,"9,4,2,5,14,12,6,11,7,8,3,1,13,15,10"
15146,commdev-image-keyboard-response,390,1582417,learnblock1,456.89999997615814,img/planet13_right.png,13,Community 3,NA,TRUE,j,j,NA,NA,NA,3,6,"9,4,2,5,14,12,6,11,7,8,3,1,13,15,10"
15146,commdev-image-keyboard-response,391,1583676,learnblock1,498.39999997615814,img/planet10_right.png,10,Community 3,NA,TRUE,j,j,NA,NA,NA,3,6,"9,4,2,5,14,12,6,11,7,8,3,1,13,15,10"
15146,commdev-image-keyboard-response,392,1584932,learnblock1,527.9000000357628,img/planet13_left.png,13,Community 3,NA,TRUE,f,f,NA,NA,NA,3,6,"9,4,2,5,14,12,6,11,7,8,3,1,13,15,10"
15146,commdev-image-keyboard-response,393,1586199,learnblock1,609.1000000238419,img/planet3_left.png,3,Community 3,NA,TRUE,f,f,NA,NA,NA,3,6,"9,4,2,5,14,12,6,11,7,8,3,1,13,15,10"
15146,commdev-image-keyboard-response,394,1587456,learnblock1,570.3000000119209,img/planet10_left.png,10,Community 3,NA,TRUE,f,f,NA,NA,NA,3,6,"9,4,2,5,14,12,6,11,7,8,3,1,13,15,10"
15146,commdev-image-keyboard-response,395,1588712,learnblock1,431.9000000357628,img/planet13_left.png,13,Community 3,NA,TRUE,f,f,NA,NA,NA,3,6,"9,4,2,5,14,12,6,11,7,8,3,1,13,15,10"
15146,commdev-image-keyboard-response,396,1589971,learnblock1,437.89999997615814,img/planet15_left.png,15,Community 3,NA,TRUE,f,f,NA,NA,NA,3,6,"9,4,2,5,14,12,6,11,7,8,3,1,13,15,10"
15146,commdev-image-keyboard-response,397,1591231,learnblock1,490.5999999642372,img/planet1_left.png,1,Community 3,NA,TRUE,f,f,NA,NA,NA,3,6,"9,4,2,5,14,12,6,11,7,8,3,1,13,15,10"
15146,commdev-image-keyboard-response,398,1592489,learnblock1,476.10000002384186,img/planet10_left.png,10,Community 3,NA,TRUE,f,f,NA,NA,NA,3,6,"9,4,2,5,14,12,6,11,7,8,3,1,13,15,10"
15146,commdev-image-keyboard-response,399,1593746,learnblock1,549.1000000238419,img/planet3_right.png,3,Community 3,NA,TRUE,j,j,NA,NA,NA,3,6,"9,4,2,5,14,12,6,11,7,8,3,1,13,15,10"
15146,commdev-image-keyboard-response,400,1594999,learnblock1,500,img/planet10_right.png,10,Community 3,NA,TRUE,j,j,NA,NA,NA,3,6,"9,4,2,5,14,12,6,11,7,8,3,1,13,15,10"
15146,commdev-image-keyboard-response,401,1596257,learnblock1,469.5999999642372,img/planet1_right.png,1,Community 3,NA,TRUE,j,j,NA,NA,NA,3,6,"9,4,2,5,14,12,6,11,7,8,3,1,13,15,10"
15146,commdev-image-keyboard-response,402,1597518,learnblock1,437.69999998807907,img/planet13_left.png,13,Community 3,NA,TRUE,f,f,NA,NA,NA,3,6,"9,4,2,5,14,12,6,11,7,8,3,1,13,15,10"
15146,commdev-image-keyboard-response,403,1598773,learnblock1,492.80000001192093,img/planet15_left.png,15,Community 3,NA,TRUE,f,f,NA,NA,NA,3,6,"9,4,2,5,14,12,6,11,7,8,3,1,13,15,10"
15146,commdev-image-keyboard-response,404,1600026,learnblock1,370.9000000357628,img/planet10_left.png,10,Community 3,NA,TRUE,f,f,NA,NA,NA,3,6,"9,4,2,5,14,12,6,11,7,8,3,1,13,15,10"
15146,commdev-image-keyboard-response,405,1601281,learnblock1,448.80000001192093,img/planet3_left.png,3,Community 3,NA,TRUE,f,f,NA,NA,NA,3,6,"9,4,2,5,14,12,6,11,7,8,3,1,13,15,10"
15146,commdev-image-keyboard-response,406,1602536,learnblock1,404.39999997615814,img/planet10_left.png,10,Community 3,NA,TRUE,f,f,NA,NA,NA,3,6,"9,4,2,5,14,12,6,11,7,8,3,1,13,15,10"
15146,commdev-image-keyboard-response,407,1603795,learnblock1,635.3000000119209,img/planet1_right.png,1,Community 3,NA,TRUE,j,j,NA,NA,NA,3,6,"9,4,2,5,14,12,6,11,7,8,3,1,13,15,10"
15146,commdev-image-keyboard-response,408,1605049,learnblock1,373.69999998807907,img/planet10_left.png,10,Community 3,NA,TRUE,f,f,NA,NA,NA,3,6,"9,4,2,5,14,12,6,11,7,8,3,1,13,15,10"
15146,commdev-image-keyboard-response,409,1606308,learnblock1,412.39999997615814,img/planet1_right.png,1,Community 3,NA,TRUE,j,j,NA,NA,NA,3,6,"9,4,2,5,14,12,6,11,7,8,3,1,13,15,10"
15146,commdev-image-keyboard-response,410,1607564,learnblock1,315.39999997615814,img/planet13_right.png,13,Community 3,NA,TRUE,j,j,NA,NA,NA,3,6,"9,4,2,5,14,12,6,11,7,8,3,1,13,15,10"
15146,commdev-image-keyboard-response,411,1608824,learnblock1,287.89999997615814,img/planet10_right.png,10,Community 3,NA,TRUE,j,j,NA,NA,NA,3,6,"9,4,2,5,14,12,6,11,7,8,3,1,13,15,10"
15146,commdev-image-keyboard-response,412,1610088,learnblock1,444,img/planet1_left.png,1,Community 3,NA,TRUE,f,f,NA,NA,NA,3,6,"9,4,2,5,14,12,6,11,7,8,3,1,13,15,10"
15146,commdev-image-keyboard-response,413,1611346,learnblock1,471.60000002384186,img/planet11_right.png,11,Community 2,NA,TRUE,j,j,NA,NA,NA,3,6,"9,4,2,5,14,12,6,11,7,8,3,1,13,15,10"
15146,commdev-image-keyboard-response,414,1612602,learnblock1,602.6999999880791,img/planet6_right.png,6,Community 2,NA,TRUE,j,j,NA,NA,NA,3,6,"9,4,2,5,14,12,6,11,7,8,3,1,13,15,10"
15146,commdev-image-keyboard-response,415,1613859,learnblock1,584.3999999761581,img/planet11_right.png,11,Community 2,NA,TRUE,j,j,NA,NA,NA,3,6,"9,4,2,5,14,12,6,11,7,8,3,1,13,15,10"
15146,commdev-image-keyboard-response,416,1615115,learnblock1,563.1000000238419,img/planet7_left.png,7,Community 2,NA,TRUE,f,f,NA,NA,NA,3,6,"9,4,2,5,14,12,6,11,7,8,3,1,13,15,10"
15146,commdev-image-keyboard-response,417,1616374,learnblock1,602.0999999642372,img/planet12_left.png,12,Community 2,NA,TRUE,f,f,NA,NA,NA,3,6,"9,4,2,5,14,12,6,11,7,8,3,1,13,15,10"
15146,commdev-image-keyboard-response,418,1617631,learnblock1,438.5,img/planet7_right.png,7,Community 2,NA,TRUE,j,j,NA,NA,NA,3,6,"9,4,2,5,14,12,6,11,7,8,3,1,13,15,10"
15146,commdev-image-keyboard-response,419,1618885,learnblock1,556.3000000119209,img/planet11_right.png,11,Community 2,NA,TRUE,j,j,NA,NA,NA,3,6,"9,4,2,5,14,12,6,11,7,8,3,1,13,15,10"
15146,commdev-image-keyboard-response,420,1620138,learnblock1,511.5,img/planet8_right.png,8,Community 2,NA,TRUE,j,j,NA,NA,NA,3,6,"9,4,2,5,14,12,6,11,7,8,3,1,13,15,10"
15146,commdev-image-keyboard-response,421,1621399,learnblock1,454.5,img/planet12_right.png,12,Community 2,NA,TRUE,j,j,NA,NA,NA,3,6,"9,4,2,5,14,12,6,11,7,8,3,1,13,15,10"
15146,commdev-image-keyboard-response,422,1622652,learnblock1,471.60000002384186,img/planet6_right.png,6,Community 2,NA,TRUE,j,j,NA,NA,NA,3,6,"9,4,2,5,14,12,6,11,7,8,3,1,13,15,10"
15146,commdev-image-keyboard-response,423,1623907,learnblock1,453.4000000357628,img/planet12_left.png,12,Community 2,NA,FALSE,j,f,NA,NA,NA,3,6,"9,4,2,5,14,12,6,11,7,8,3,1,13,15,10"
15146,commdev-image-keyboard-response,424,1625172,learnblock1,532.8000000119209,img/planet5_left.png,5,Community 1,NA,TRUE,f,f,NA,NA,NA,3,6,"9,4,2,5,14,12,6,11,7,8,3,1,13,15,10"
15146,commdev-image-keyboard-response,425,1626427,learnblock1,370.19999998807907,img/planet2_right.png,2,Community 1,NA,TRUE,j,j,NA,NA,NA,3,6,"9,4,2,5,14,12,6,11,7,8,3,1,13,15,10"
15146,commdev-image-keyboard-response,426,1627687,learnblock1,581,img/planet4_right.png,4,Community 1,NA,TRUE,j,j,NA,NA,NA,3,6,"9,4,2,5,14,12,6,11,7,8,3,1,13,15,10"
15146,commdev-image-keyboard-response,427,1628943,learnblock1,415.19999998807907,img/planet2_left.png,2,Community 1,NA,TRUE,f,f,NA,NA,NA,3,6,"9,4,2,5,14,12,6,11,7,8,3,1,13,15,10"
15146,commdev-image-keyboard-response,428,1630210,learnblock1,604.1999999880791,img/planet4_left.png,4,Community 1,NA,TRUE,f,f,NA,NA,NA,3,6,"9,4,2,5,14,12,6,11,7,8,3,1,13,15,10"
15146,commdev-image-keyboard-response,429,1631475,learnblock1,512.6000000238419,img/planet5_left.png,5,Community 1,NA,TRUE,f,f,NA,NA,NA,3,6,"9,4,2,5,14,12,6,11,7,8,3,1,13,15,10"
15146,commdev-image-keyboard-response,430,1632731,learnblock1,489.0999999642372,img/planet2_right.png,2,Community 1,NA,TRUE,j,j,NA,NA,NA,3,6,"9,4,2,5,14,12,6,11,7,8,3,1,13,15,10"
15146,commdev-image-keyboard-response,431,1633991,learnblock1,518.5,img/planet14_right.png,14,Community 1,NA,TRUE,j,j,NA,NA,NA,3,6,"9,4,2,5,14,12,6,11,7,8,3,1,13,15,10"
15146,commdev-image-keyboard-response,432,1635248,learnblock1,468.19999998807907,img/planet9_left.png,9,Community 1,NA,TRUE,f,f,NA,NA,NA,3,6,"9,4,2,5,14,12,6,11,7,8,3,1,13,15,10"
15146,commdev-image-keyboard-response,433,1636504,learnblock1,493,img/planet5_right.png,5,Community 1,NA,TRUE,j,j,NA,NA,NA,3,6,"9,4,2,5,14,12,6,11,7,8,3,1,13,15,10"
15146,commdev-image-keyboard-response,434,1637763,learnblock1,521.1999999880791,img/planet12_right.png,12,Community 2,NA,TRUE,j,j,NA,NA,NA,3,6,"9,4,2,5,14,12,6,11,7,8,3,1,13,15,10"
15146,commdev-image-keyboard-response,435,1639020,learnblock1,546.1999999880791,img/planet7_right.png,7,Community 2,NA,TRUE,j,j,NA,NA,NA,3,6,"9,4,2,5,14,12,6,11,7,8,3,1,13,15,10"
15146,commdev-image-keyboard-response,436,1640278,learnblock1,412.60000002384186,img/planet12_left.png,12,Community 2,NA,TRUE,f,f,NA,NA,NA,3,6,"9,4,2,5,14,12,6,11,7,8,3,1,13,15,10"
15146,commdev-image-keyboard-response,437,1641541,learnblock1,479.39999997615814,img/planet6_right.png,6,Community 2,NA,TRUE,j,j,NA,NA,NA,3,6,"9,4,2,5,14,12,6,11,7,8,3,1,13,15,10"
15146,commdev-image-keyboard-response,438,1642802,learnblock1,493.89999997615814,img/planet11_right.png,11,Community 2,NA,TRUE,j,j,NA,NA,NA,3,6,"9,4,2,5,14,12,6,11,7,8,3,1,13,15,10"
15146,commdev-image-keyboard-response,439,1644069,learnblock1,589,img/planet6_left.png,6,Community 2,NA,TRUE,f,f,NA,NA,NA,3,6,"9,4,2,5,14,12,6,11,7,8,3,1,13,15,10"
15146,commdev-image-keyboard-response,440,1645328,learnblock1,408.2999999523163,img/planet11_right.png,11,Community 2,NA,TRUE,j,j,NA,NA,NA,3,6,"9,4,2,5,14,12,6,11,7,8,3,1,13,15,10"
15146,commdev-image-keyboard-response,441,1646587,learnblock1,612.1000000238419,img/planet8_right.png,8,Community 2,NA,TRUE,j,j,NA,NA,NA,3,6,"9,4,2,5,14,12,6,11,7,8,3,1,13,15,10"
15146,commdev-image-keyboard-response,442,1647845,learnblock1,433.80000001192093,img/planet11_left.png,11,Community 2,NA,TRUE,f,f,NA,NA,NA,3,6,"9,4,2,5,14,12,6,11,7,8,3,1,13,15,10"
15146,commdev-image-keyboard-response,443,1649101,learnblock1,447.19999998807907,img/planet6_right.png,6,Community 2,NA,TRUE,j,j,NA,NA,NA,3,6,"9,4,2,5,14,12,6,11,7,8,3,1,13,15,10"
15146,commdev-image-keyboard-response,444,1650353,learnblock1,552.3999999761581,img/planet8_right.png,8,Community 2,NA,TRUE,j,j,NA,NA,NA,3,6,"9,4,2,5,14,12,6,11,7,8,3,1,13,15,10"
15146,commdev-image-keyboard-response,445,1651607,learnblock1,432.60000002384186,img/planet6_left.png,6,Community 2,NA,TRUE,f,f,NA,NA,NA,3,6,"9,4,2,5,14,12,6,11,7,8,3,1,13,15,10"
15146,commdev-image-keyboard-response,446,1652873,learnblock1,414,img/planet11_right.png,11,Community 2,NA,TRUE,j,j,NA,NA,NA,3,6,"9,4,2,5,14,12,6,11,7,8,3,1,13,15,10"
15146,commdev-image-keyboard-response,447,1654130,learnblock1,398.0999999642372,img/planet6_left.png,6,Community 2,NA,TRUE,f,f,NA,NA,NA,3,6,"9,4,2,5,14,12,6,11,7,8,3,1,13,15,10"
15146,commdev-image-keyboard-response,448,1655382,learnblock1,661.3000000119209,img/planet7_left.png,7,Community 2,NA,TRUE,f,f,NA,NA,NA,3,6,"9,4,2,5,14,12,6,11,7,8,3,1,13,15,10"
15146,commdev-image-keyboard-response,449,1656634,learnblock1,436.19999998807907,img/planet12_left.png,12,Community 2,NA,TRUE,f,f,NA,NA,NA,3,6,"9,4,2,5,14,12,6,11,7,8,3,1,13,15,10"
15146,commdev-image-keyboard-response,450,1657899,learnblock1,515,img/planet6_left.png,6,Community 2,NA,TRUE,f,f,NA,NA,NA,3,6,"9,4,2,5,14,12,6,11,7,8,3,1,13,15,10"
15146,commdev-image-keyboard-response,451,1659160,learnblock1,456.5,img/planet8_right.png,8,Community 2,NA,TRUE,j,j,NA,NA,NA,3,6,"9,4,2,5,14,12,6,11,7,8,3,1,13,15,10"
15146,commdev-image-keyboard-response,452,1660414,learnblock1,433.39999997615814,img/planet12_left.png,12,Community 2,NA,TRUE,f,f,NA,NA,NA,3,6,"9,4,2,5,14,12,6,11,7,8,3,1,13,15,10"
15146,commdev-image-keyboard-response,453,1661668,learnblock1,476.5,img/planet7_right.png,7,Community 2,NA,TRUE,j,j,NA,NA,NA,3,6,"9,4,2,5,14,12,6,11,7,8,3,1,13,15,10"
15146,commdev-image-keyboard-response,454,1662926,learnblock1,427,img/planet6_right.png,6,Community 2,NA,FALSE,f,j,NA,NA,NA,3,6,"9,4,2,5,14,12,6,11,7,8,3,1,13,15,10"
15146,commdev-image-keyboard-response,455,1664184,learnblock1,489.80000001192093,img/planet8_left.png,8,Community 2,NA,TRUE,f,f,NA,NA,NA,3,6,"9,4,2,5,14,12,6,11,7,8,3,1,13,15,10"
15146,commdev-image-keyboard-response,456,1665440,learnblock1,451.89999997615814,img/planet12_right.png,12,Community 2,NA,TRUE,j,j,NA,NA,NA,3,6,"9,4,2,5,14,12,6,11,7,8,3,1,13,15,10"
15146,commdev-image-keyboard-response,457,1666693,learnblock1,587.5999999642372,img/planet8_right.png,8,Community 2,NA,TRUE,j,j,NA,NA,NA,3,6,"9,4,2,5,14,12,6,11,7,8,3,1,13,15,10"
15146,commdev-image-keyboard-response,458,1667959,learnblock1,533,img/planet7_left.png,7,Community 2,NA,TRUE,f,f,NA,NA,NA,3,6,"9,4,2,5,14,12,6,11,7,8,3,1,13,15,10"
15146,commdev-image-keyboard-response,459,1669219,learnblock1,773.2999999523163,img/planet6_left.png,6,Community 2,NA,TRUE,f,f,NA,NA,NA,3,6,"9,4,2,5,14,12,6,11,7,8,3,1,13,15,10"
15146,commdev-image-keyboard-response,460,1670478,learnblock1,529.8000000119209,img/planet7_right.png,7,Community 2,NA,TRUE,j,j,NA,NA,NA,3,6,"9,4,2,5,14,12,6,11,7,8,3,1,13,15,10"
15146,commdev-image-keyboard-response,461,1671735,learnblock1,817.3999999761581,img/planet8_left.png,8,Community 2,NA,TRUE,f,f,NA,NA,NA,3,6,"9,4,2,5,14,12,6,11,7,8,3,1,13,15,10"
15146,commdev-image-keyboard-response,462,1672990,learnblock1,985.3999999761581,img/planet11_left.png,11,Community 2,NA,TRUE,f,f,NA,NA,NA,3,6,"9,4,2,5,14,12,6,11,7,8,3,1,13,15,10"
15146,commdev-image-keyboard-response,463,1674257,learnblock1,482.5,img/planet7_right.png,7,Community 2,NA,TRUE,j,j,NA,NA,NA,3,6,"9,4,2,5,14,12,6,11,7,8,3,1,13,15,10"
15146,commdev-image-keyboard-response,464,1675518,learnblock1,505.10000002384186,img/planet11_right.png,11,Community 2,NA,TRUE,j,j,NA,NA,NA,3,6,"9,4,2,5,14,12,6,11,7,8,3,1,13,15,10"
15146,commdev-image-keyboard-response,465,1676770,learnblock1,476.10000002384186,img/planet7_left.png,7,Community 2,NA,TRUE,f,f,NA,NA,NA,3,6,"9,4,2,5,14,12,6,11,7,8,3,1,13,15,10"
15146,commdev-image-keyboard-response,466,1678034,learnblock1,749.4000000357628,img/planet6_left.png,6,Community 2,NA,TRUE,f,f,NA,NA,NA,3,6,"9,4,2,5,14,12,6,11,7,8,3,1,13,15,10"
15146,commdev-image-keyboard-response,467,1679290,learnblock1,435.89999997615814,img/planet12_right.png,12,Community 2,NA,TRUE,j,j,NA,NA,NA,3,6,"9,4,2,5,14,12,6,11,7,8,3,1,13,15,10"
15146,commdev-image-keyboard-response,468,1680544,learnblock1,458,img/planet7_right.png,7,Community 2,NA,TRUE,j,j,NA,NA,NA,3,6,"9,4,2,5,14,12,6,11,7,8,3,1,13,15,10"
15146,commdev-image-keyboard-response,469,1681803,learnblock1,542.1999999880791,img/planet8_right.png,8,Community 2,NA,TRUE,j,j,NA,NA,NA,3,6,"9,4,2,5,14,12,6,11,7,8,3,1,13,15,10"
15146,commdev-image-keyboard-response,470,1683063,learnblock1,487.69999998807907,img/planet6_right.png,6,Community 2,NA,TRUE,j,j,NA,NA,NA,3,6,"9,4,2,5,14,12,6,11,7,8,3,1,13,15,10"
15146,commdev-image-keyboard-response,471,1684323,learnblock1,505,img/planet11_right.png,11,Community 2,NA,TRUE,j,j,NA,NA,NA,3,6,"9,4,2,5,14,12,6,11,7,8,3,1,13,15,10"
15146,commdev-image-keyboard-response,472,1685590,learnblock1,580.6999999880791,img/planet7_left.png,7,Community 2,NA,TRUE,f,f,NA,NA,NA,3,6,"9,4,2,5,14,12,6,11,7,8,3,1,13,15,10"
15146,commdev-image-keyboard-response,473,1686848,learnblock1,476.0999999642372,img/planet8_right.png,8,Community 2,NA,TRUE,j,j,NA,NA,NA,3,6,"9,4,2,5,14,12,6,11,7,8,3,1,13,15,10"
15146,commdev-image-keyboard-response,474,1688105,learnblock1,553,img/planet6_right.png,6,Community 2,NA,TRUE,j,j,NA,NA,NA,3,6,"9,4,2,5,14,12,6,11,7,8,3,1,13,15,10"
15146,commdev-image-keyboard-response,475,1689363,learnblock1,444.9000000357628,img/planet8_left.png,8,Community 2,NA,FALSE,j,f,NA,NA,NA,3,6,"9,4,2,5,14,12,6,11,7,8,3,1,13,15,10"
15146,commdev-image-keyboard-response,476,1690617,learnblock1,540.5999999642372,img/planet12_left.png,12,Community 2,NA,TRUE,f,f,NA,NA,NA,3,6,"9,4,2,5,14,12,6,11,7,8,3,1,13,15,10"
15146,commdev-image-keyboard-response,477,1691874,learnblock1,534.0999999642372,img/planet6_left.png,6,Community 2,NA,TRUE,f,f,NA,NA,NA,3,6,"9,4,2,5,14,12,6,11,7,8,3,1,13,15,10"
15146,commdev-image-keyboard-response,478,1693131,learnblock1,709.3000000119209,img/planet7_left.png,7,Community 2,NA,TRUE,f,f,NA,NA,NA,3,6,"9,4,2,5,14,12,6,11,7,8,3,1,13,15,10"
15146,commdev-image-keyboard-response,479,1694383,learnblock1,583.3000000119209,img/planet11_left.png,11,Community 2,NA,TRUE,f,f,NA,NA,NA,3,6,"9,4,2,5,14,12,6,11,7,8,3,1,13,15,10"
15146,commdev-image-keyboard-response,480,1695637,learnblock1,711.6000000238419,img/planet8_left.png,8,Community 2,NA,TRUE,f,f,NA,NA,NA,3,6,"9,4,2,5,14,12,6,11,7,8,3,1,13,15,10"
15146,commdev-image-keyboard-response,481,1696891,learnblock1,492.89999997615814,img/planet11_right.png,11,Community 2,NA,TRUE,j,j,NA,NA,NA,3,6,"9,4,2,5,14,12,6,11,7,8,3,1,13,15,10"
15146,commdev-image-keyboard-response,482,1698144,learnblock1,576.1999999880791,img/planet7_left.png,7,Community 2,NA,TRUE,f,f,NA,NA,NA,3,6,"9,4,2,5,14,12,6,11,7,8,3,1,13,15,10"
15146,commdev-image-keyboard-response,483,1699397,learnblock1,421,img/planet8_right.png,8,Community 2,NA,TRUE,j,j,NA,NA,NA,3,6,"9,4,2,5,14,12,6,11,7,8,3,1,13,15,10"
15146,commdev-image-keyboard-response,484,1700655,learnblock1,419,img/planet11_right.png,11,Community 2,NA,TRUE,j,j,NA,NA,NA,3,6,"9,4,2,5,14,12,6,11,7,8,3,1,13,15,10"
15146,commdev-image-keyboard-response,485,1701914,learnblock1,620.3999999761581,img/planet6_right.png,6,Community 2,NA,TRUE,j,j,NA,NA,NA,3,6,"9,4,2,5,14,12,6,11,7,8,3,1,13,15,10"
15146,commdev-image-keyboard-response,486,1703180,learnblock1,504.10000002384186,img/planet12_right.png,12,Community 2,NA,TRUE,j,j,NA,NA,NA,3,6,"9,4,2,5,14,12,6,11,7,8,3,1,13,15,10"
15146,commdev-image-keyboard-response,487,1704441,learnblock1,832.0999999642372,img/planet6_left.png,6,Community 2,NA,TRUE,f,f,NA,NA,NA,3,6,"9,4,2,5,14,12,6,11,7,8,3,1,13,15,10"
15146,commdev-image-keyboard-response,488,1705702,learnblock1,664.1000000238419,img/planet7_left.png,7,Community 2,NA,TRUE,f,f,NA,NA,NA,3,6,"9,4,2,5,14,12,6,11,7,8,3,1,13,15,10"
15146,commdev-image-keyboard-response,489,1706960,learnblock1,445.4000000357628,img/planet8_right.png,8,Community 2,NA,TRUE,j,j,NA,NA,NA,3,6,"9,4,2,5,14,12,6,11,7,8,3,1,13,15,10"
15146,commdev-image-keyboard-response,490,1708218,learnblock1,467.5,img/planet12_right.png,12,Community 2,NA,TRUE,j,j,NA,NA,NA,3,6,"9,4,2,5,14,12,6,11,7,8,3,1,13,15,10"
15146,commdev-image-keyboard-response,491,1709475,learnblock1,498.5,img/planet6_left.png,6,Community 2,NA,TRUE,f,f,NA,NA,NA,3,6,"9,4,2,5,14,12,6,11,7,8,3,1,13,15,10"
15146,commdev-image-keyboard-response,492,1710727,learnblock1,547.6999999880791,img/planet8_left.png,8,Community 2,NA,TRUE,f,f,NA,NA,NA,3,6,"9,4,2,5,14,12,6,11,7,8,3,1,13,15,10"
15146,commdev-image-keyboard-response,493,1711984,learnblock1,449.60000002384186,img/planet12_left.png,12,Community 2,NA,TRUE,f,f,NA,NA,NA,3,6,"9,4,2,5,14,12,6,11,7,8,3,1,13,15,10"
15146,commdev-image-keyboard-response,497,1992430,learnblock2,null,img/planet10_right.png,10,Community 3,NA,FALSE,null,j,NA,NA,NA,3,6,"9,4,2,5,14,12,6,11,7,8,3,1,13,15,10"
15146,commdev-image-keyboard-response,498,1993684,learnblock2,601,img/planet13_right.png,13,Community 3,NA,TRUE,j,j,NA,NA,NA,3,6,"9,4,2,5,14,12,6,11,7,8,3,1,13,15,10"
15146,commdev-image-keyboard-response,499,1994945,learnblock2,528.7999999523163,img/planet15_right.png,15,Community 3,NA,TRUE,j,j,NA,NA,NA,3,6,"9,4,2,5,14,12,6,11,7,8,3,1,13,15,10"
15146,commdev-image-keyboard-response,500,1996206,learnblock2,584.3999999761581,img/planet3_left.png,3,Community 3,NA,TRUE,f,f,NA,NA,NA,3,6,"9,4,2,5,14,12,6,11,7,8,3,1,13,15,10"
15146,commdev-image-keyboard-response,501,1997464,learnblock2,519.6999999880791,img/planet14_right.png,14,Community 1,NA,FALSE,f,j,NA,NA,NA,3,6,"9,4,2,5,14,12,6,11,7,8,3,1,13,15,10"
15146,commdev-image-keyboard-response,502,1998718,learnblock2,531.0999999642372,img/planet9_right.png,9,Community 1,NA,TRUE,j,j,NA,NA,NA,3,6,"9,4,2,5,14,12,6,11,7,8,3,1,13,15,10"
15146,commdev-image-keyboard-response,503,1999978,learnblock2,536.7000000476837,img/planet5_right.png,5,Community 1,NA,TRUE,j,j,NA,NA,NA,3,6,"9,4,2,5,14,12,6,11,7,8,3,1,13,15,10"
15146,commdev-image-keyboard-response,504,2001235,learnblock2,556.1999999880791,img/planet4_left.png,4,Community 1,NA,TRUE,f,f,NA,NA,NA,3,6,"9,4,2,5,14,12,6,11,7,8,3,1,13,15,10"
15146,commdev-image-keyboard-response,505,2002492,learnblock2,450,img/planet2_left.png,2,Community 1,NA,TRUE,f,f,NA,NA,NA,3,6,"9,4,2,5,14,12,6,11,7,8,3,1,13,15,10"
15146,commdev-image-keyboard-response,506,2003755,learnblock2,497.19999998807907,img/planet5_left.png,5,Community 1,NA,TRUE,f,f,NA,NA,NA,3,6,"9,4,2,5,14,12,6,11,7,8,3,1,13,15,10"
15146,commdev-image-keyboard-response,507,2005008,learnblock2,444.69999998807907,img/planet2_right.png,2,Community 1,NA,TRUE,j,j,NA,NA,NA,3,6,"9,4,2,5,14,12,6,11,7,8,3,1,13,15,10"
15146,commdev-image-keyboard-response,508,2006263,learnblock2,582.8000000119209,img/planet4_right.png,4,Community 1,NA,TRUE,j,j,NA,NA,NA,3,6,"9,4,2,5,14,12,6,11,7,8,3,1,13,15,10"
15146,commdev-image-keyboard-response,509,2007515,learnblock2,451.5,img/planet14_right.png,14,Community 1,NA,TRUE,j,j,NA,NA,NA,3,6,"9,4,2,5,14,12,6,11,7,8,3,1,13,15,10"
15146,commdev-image-keyboard-response,510,2008767,learnblock2,459.19999998807907,img/planet9_left.png,9,Community 1,NA,TRUE,f,f,NA,NA,NA,3,6,"9,4,2,5,14,12,6,11,7,8,3,1,13,15,10"
15146,commdev-image-keyboard-response,511,2010019,learnblock2,563.6999999880791,img/planet5_right.png,5,Community 1,NA,TRUE,j,j,NA,NA,NA,3,6,"9,4,2,5,14,12,6,11,7,8,3,1,13,15,10"
15146,commdev-image-keyboard-response,512,2011286,learnblock2,535.5,img/planet12_right.png,12,Community 2,NA,TRUE,j,j,NA,NA,NA,3,6,"9,4,2,5,14,12,6,11,7,8,3,1,13,15,10"
15146,commdev-image-keyboard-response,513,2012541,learnblock2,419.69999998807907,img/planet7_left.png,7,Community 2,NA,TRUE,f,f,NA,NA,NA,3,6,"9,4,2,5,14,12,6,11,7,8,3,1,13,15,10"
15146,commdev-image-keyboard-response,514,2013802,learnblock2,495.10000002384186,img/planet6_right.png,6,Community 2,NA,TRUE,j,j,NA,NA,NA,3,6,"9,4,2,5,14,12,6,11,7,8,3,1,13,15,10"
15146,commdev-image-keyboard-response,515,2015057,learnblock2,473.69999998807907,img/planet11_left.png,11,Community 2,NA,TRUE,f,f,NA,NA,NA,3,6,"9,4,2,5,14,12,6,11,7,8,3,1,13,15,10"
15146,commdev-image-keyboard-response,516,2016315,learnblock2,482.4000000357628,img/planet6_left.png,6,Community 2,NA,TRUE,f,f,NA,NA,NA,3,6,"9,4,2,5,14,12,6,11,7,8,3,1,13,15,10"
15146,commdev-image-keyboard-response,517,2017571,learnblock2,445,img/planet8_right.png,8,Community 2,NA,TRUE,j,j,NA,NA,NA,3,6,"9,4,2,5,14,12,6,11,7,8,3,1,13,15,10"
15146,commdev-image-keyboard-response,518,2018829,learnblock2,540.6000000238419,img/planet11_right.png,11,Community 2,NA,TRUE,j,j,NA,NA,NA,3,6,"9,4,2,5,14,12,6,11,7,8,3,1,13,15,10"
15146,commdev-image-keyboard-response,519,2020082,learnblock2,709,img/planet7_left.png,7,Community 2,NA,TRUE,f,f,NA,NA,NA,3,6,"9,4,2,5,14,12,6,11,7,8,3,1,13,15,10"
15146,commdev-image-keyboard-response,520,2021339,learnblock2,596.5,img/planet11_left.png,11,Community 2,NA,TRUE,f,f,NA,NA,NA,3,6,"9,4,2,5,14,12,6,11,7,8,3,1,13,15,10"
15146,commdev-image-keyboard-response,521,2022603,learnblock2,671.8999999761581,img/planet8_left.png,8,Community 2,NA,TRUE,f,f,NA,NA,NA,3,6,"9,4,2,5,14,12,6,11,7,8,3,1,13,15,10"
15146,commdev-image-keyboard-response,522,2023867,learnblock2,662.3000000119209,img/planet12_left.png,12,Community 2,NA,TRUE,f,f,NA,NA,NA,3,6,"9,4,2,5,14,12,6,11,7,8,3,1,13,15,10"
15146,commdev-image-keyboard-response,523,2025140,learnblock2,569.5,img/planet5_left.png,5,Community 1,NA,TRUE,f,f,NA,NA,NA,3,6,"9,4,2,5,14,12,6,11,7,8,3,1,13,15,10"
15146,commdev-image-keyboard-response,524,2026406,learnblock2,410.4000000357628,img/planet4_right.png,4,Community 1,NA,TRUE,j,j,NA,NA,NA,3,6,"9,4,2,5,14,12,6,11,7,8,3,1,13,15,10"
15146,commdev-image-keyboard-response,525,2027659,learnblock2,489.69999998807907,img/planet2_right.png,2,Community 1,NA,TRUE,j,j,NA,NA,NA,3,6,"9,4,2,5,14,12,6,11,7,8,3,1,13,15,10"
15146,commdev-image-keyboard-response,526,2028914,learnblock2,398.5,img/planet4_left.png,4,Community 1,NA,FALSE,j,f,NA,NA,NA,3,6,"9,4,2,5,14,12,6,11,7,8,3,1,13,15,10"
15146,commdev-image-keyboard-response,527,2030173,learnblock2,590.5,img/planet14_right.png,14,Community 1,NA,TRUE,j,j,NA,NA,NA,3,6,"9,4,2,5,14,12,6,11,7,8,3,1,13,15,10"
15146,commdev-image-keyboard-response,528,2031426,learnblock2,828.2999999523163,img/planet9_right.png,9,Community 1,NA,TRUE,j,j,NA,NA,NA,3,6,"9,4,2,5,14,12,6,11,7,8,3,1,13,15,10"
15146,commdev-image-keyboard-response,529,2032681,learnblock2,493.30000001192093,img/planet5_right.png,5,Community 1,NA,TRUE,j,j,NA,NA,NA,3,6,"9,4,2,5,14,12,6,11,7,8,3,1,13,15,10"
15146,commdev-image-keyboard-response,530,2033939,learnblock2,476.4000000357628,img/planet4_left.png,4,Community 1,NA,TRUE,f,f,NA,NA,NA,3,6,"9,4,2,5,14,12,6,11,7,8,3,1,13,15,10"
15146,commdev-image-keyboard-response,531,2035201,learnblock2,543.6000000238419,img/planet2_right.png,2,Community 1,NA,FALSE,f,j,NA,NA,NA,3,6,"9,4,2,5,14,12,6,11,7,8,3,1,13,15,10"
15146,commdev-image-keyboard-response,532,2036462,learnblock2,589.3999999761581,img/planet9_left.png,9,Community 1,NA,TRUE,f,f,NA,NA,NA,3,6,"9,4,2,5,14,12,6,11,7,8,3,1,13,15,10"
15146,commdev-image-keyboard-response,533,2037719,learnblock2,495.10000002384186,img/planet14_right.png,14,Community 1,NA,TRUE,j,j,NA,NA,NA,3,6,"9,4,2,5,14,12,6,11,7,8,3,1,13,15,10"
15146,commdev-image-keyboard-response,534,2038976,learnblock2,746.5,img/planet4_left.png,4,Community 1,NA,TRUE,f,f,NA,NA,NA,3,6,"9,4,2,5,14,12,6,11,7,8,3,1,13,15,10"
15146,commdev-image-keyboard-response,535,2040229,learnblock2,575.5,img/planet5_left.png,5,Community 1,NA,TRUE,f,f,NA,NA,NA,3,6,"9,4,2,5,14,12,6,11,7,8,3,1,13,15,10"
15146,commdev-image-keyboard-response,536,2041488,learnblock2,573.9000000357628,img/planet2_right.png,2,Community 1,NA,TRUE,j,j,NA,NA,NA,3,6,"9,4,2,5,14,12,6,11,7,8,3,1,13,15,10"
15146,commdev-image-keyboard-response,537,2042744,learnblock2,478.5999999642372,img/planet9_right.png,9,Community 1,NA,TRUE,j,j,NA,NA,NA,3,6,"9,4,2,5,14,12,6,11,7,8,3,1,13,15,10"
15146,commdev-image-keyboard-response,538,2044000,learnblock2,387.60000002384186,img/planet2_right.png,2,Community 1,NA,TRUE,j,j,NA,NA,NA,3,6,"9,4,2,5,14,12,6,11,7,8,3,1,13,15,10"
15146,commdev-image-keyboard-response,539,2045255,learnblock2,583.8999999761581,img/planet5_left.png,5,Community 1,NA,TRUE,f,f,NA,NA,NA,3,6,"9,4,2,5,14,12,6,11,7,8,3,1,13,15,10"
15146,commdev-image-keyboard-response,540,2046514,learnblock2,604,img/planet12_right.png,12,Community 2,NA,TRUE,j,j,NA,NA,NA,3,6,"9,4,2,5,14,12,6,11,7,8,3,1,13,15,10"
15146,commdev-image-keyboard-response,541,2047776,learnblock2,472.30000001192093,img/planet5_right.png,5,Community 1,NA,TRUE,j,j,NA,NA,NA,3,6,"9,4,2,5,14,12,6,11,7,8,3,1,13,15,10"
15146,commdev-image-keyboard-response,542,2049028,learnblock2,502.2999999523163,img/planet12_right.png,12,Community 2,NA,TRUE,j,j,NA,NA,NA,3,6,"9,4,2,5,14,12,6,11,7,8,3,1,13,15,10"
15146,commdev-image-keyboard-response,543,2050285,learnblock2,523.7999999523163,img/planet8_left.png,8,Community 2,NA,TRUE,f,f,NA,NA,NA,3,6,"9,4,2,5,14,12,6,11,7,8,3,1,13,15,10"
15146,commdev-image-keyboard-response,544,2051538,learnblock2,1042.1000000238419,img/planet7_left.png,7,Community 2,NA,TRUE,f,f,NA,NA,NA,3,6,"9,4,2,5,14,12,6,11,7,8,3,1,13,15,10"
15146,commdev-image-keyboard-response,545,2052801,learnblock2,632.0999999642372,img/planet11_left.png,11,Community 2,NA,TRUE,f,f,NA,NA,NA,3,6,"9,4,2,5,14,12,6,11,7,8,3,1,13,15,10"
15146,commdev-image-keyboard-response,546,2054056,learnblock2,551.9000000357628,img/planet7_right.png,7,Community 2,NA,TRUE,j,j,NA,NA,NA,3,6,"9,4,2,5,14,12,6,11,7,8,3,1,13,15,10"
15146,commdev-image-keyboard-response,547,2055314,learnblock2,552.2999999523163,img/planet8_left.png,8,Community 2,NA,TRUE,f,f,NA,NA,NA,3,6,"9,4,2,5,14,12,6,11,7,8,3,1,13,15,10"
15146,commdev-image-keyboard-response,548,2056581,learnblock2,721.9000000357628,img/planet12_right.png,12,Community 2,NA,TRUE,j,j,NA,NA,NA,3,6,"9,4,2,5,14,12,6,11,7,8,3,1,13,15,10"
15146,commdev-image-keyboard-response,549,2057846,learnblock2,871.4000000357628,img/planet5_right.png,5,Community 1,NA,FALSE,f,j,NA,NA,NA,3,6,"9,4,2,5,14,12,6,11,7,8,3,1,13,15,10"
15146,commdev-image-keyboard-response,550,2059106,learnblock2,573.8999999761581,img/planet4_left.png,4,Community 1,NA,TRUE,f,f,NA,NA,NA,3,6,"9,4,2,5,14,12,6,11,7,8,3,1,13,15,10"
15146,commdev-image-keyboard-response,551,2060360,learnblock2,453.5999999642372,img/planet5_left.png,5,Community 1,NA,TRUE,f,f,NA,NA,NA,3,6,"9,4,2,5,14,12,6,11,7,8,3,1,13,15,10"
15146,commdev-image-keyboard-response,552,2061615,learnblock2,495.2999999523163,img/planet12_right.png,12,Community 2,NA,TRUE,j,j,NA,NA,NA,3,6,"9,4,2,5,14,12,6,11,7,8,3,1,13,15,10"
15146,commdev-image-keyboard-response,553,2062874,learnblock2,442.30000001192093,img/planet5_right.png,5,Community 1,NA,TRUE,j,j,NA,NA,NA,3,6,"9,4,2,5,14,12,6,11,7,8,3,1,13,15,10"
15146,commdev-image-keyboard-response,554,2064133,learnblock2,469.10000002384186,img/planet12_right.png,12,Community 2,NA,TRUE,j,j,NA,NA,NA,3,6,"9,4,2,5,14,12,6,11,7,8,3,1,13,15,10"
15146,commdev-image-keyboard-response,555,2065393,learnblock2,484.5,img/planet7_left.png,7,Community 2,NA,TRUE,f,f,NA,NA,NA,3,6,"9,4,2,5,14,12,6,11,7,8,3,1,13,15,10"
15146,commdev-image-keyboard-response,556,2066655,learnblock2,398.5999999642372,img/planet6_left.png,6,Community 2,NA,TRUE,f,f,NA,NA,NA,3,6,"9,4,2,5,14,12,6,11,7,8,3,1,13,15,10"
15146,commdev-image-keyboard-response,557,2067911,learnblock2,446,img/planet8_right.png,8,Community 2,NA,TRUE,j,j,NA,NA,NA,3,6,"9,4,2,5,14,12,6,11,7,8,3,1,13,15,10"
15146,commdev-image-keyboard-response,558,2069169,learnblock2,721,img/planet11_left.png,11,Community 2,NA,FALSE,j,f,NA,NA,NA,3,6,"9,4,2,5,14,12,6,11,7,8,3,1,13,15,10"
15146,commdev-image-keyboard-response,559,2070426,learnblock2,441,img/planet1_right.png,1,Community 3,NA,TRUE,j,j,NA,NA,NA,3,6,"9,4,2,5,14,12,6,11,7,8,3,1,13,15,10"
15146,commdev-image-keyboard-response,560,2071684,learnblock2,549.1999999880791,img/planet15_right.png,15,Community 3,NA,TRUE,j,j,NA,NA,NA,3,6,"9,4,2,5,14,12,6,11,7,8,3,1,13,15,10"
15146,commdev-image-keyboard-response,561,2072943,learnblock2,606.1999999880791,img/planet10_left.png,10,Community 3,NA,TRUE,f,f,NA,NA,NA,3,6,"9,4,2,5,14,12,6,11,7,8,3,1,13,15,10"
15146,commdev-image-keyboard-response,562,2074213,learnblock2,705,img/planet3_right.png,3,Community 3,NA,TRUE,j,j,NA,NA,NA,3,6,"9,4,2,5,14,12,6,11,7,8,3,1,13,15,10"
15146,commdev-image-keyboard-response,563,2075469,learnblock2,588.3000000119209,img/planet13_left.png,13,Community 3,NA,FALSE,j,f,NA,NA,NA,3,6,"9,4,2,5,14,12,6,11,7,8,3,1,13,15,10"
15146,commdev-image-keyboard-response,564,2076726,learnblock2,690.0999999642372,img/planet10_left.png,10,Community 3,NA,TRUE,f,f,NA,NA,NA,3,6,"9,4,2,5,14,12,6,11,7,8,3,1,13,15,10"
15146,commdev-image-keyboard-response,565,2077986,learnblock2,549.6000000238419,img/planet1_left.png,1,Community 3,NA,TRUE,f,f,NA,NA,NA,3,6,"9,4,2,5,14,12,6,11,7,8,3,1,13,15,10"
15146,commdev-image-keyboard-response,566,2079247,learnblock2,444.5,img/planet11_right.png,11,Community 2,NA,TRUE,j,j,NA,NA,NA,3,6,"9,4,2,5,14,12,6,11,7,8,3,1,13,15,10"
15146,commdev-image-keyboard-response,567,2080504,learnblock2,501.69999998807907,img/planet6_right.png,6,Community 2,NA,TRUE,j,j,NA,NA,NA,3,6,"9,4,2,5,14,12,6,11,7,8,3,1,13,15,10"
15146,commdev-image-keyboard-response,568,2081764,learnblock2,602.1999999880791,img/planet8_right.png,8,Community 2,NA,TRUE,j,j,NA,NA,NA,3,6,"9,4,2,5,14,12,6,11,7,8,3,1,13,15,10"
15146,commdev-image-keyboard-response,569,2083030,learnblock2,612.1999999880791,img/planet6_left.png,6,Community 2,NA,TRUE,f,f,NA,NA,NA,3,6,"9,4,2,5,14,12,6,11,7,8,3,1,13,15,10"
15146,commdev-image-keyboard-response,570,2084295,learnblock2,485.0999999642372,img/planet7_right.png,7,Community 2,NA,TRUE,j,j,NA,NA,NA,3,6,"9,4,2,5,14,12,6,11,7,8,3,1,13,15,10"
15146,commdev-image-keyboard-response,571,2085551,learnblock2,434.4000000357628,img/planet12_left.png,12,Community 2,NA,TRUE,f,f,NA,NA,NA,3,6,"9,4,2,5,14,12,6,11,7,8,3,1,13,15,10"
15146,commdev-image-keyboard-response,572,2086807,learnblock2,539.3000000119209,img/planet8_right.png,8,Community 2,NA,TRUE,j,j,NA,NA,NA,3,6,"9,4,2,5,14,12,6,11,7,8,3,1,13,15,10"
15146,commdev-image-keyboard-response,573,2088067,learnblock2,477.2000000476837,img/planet12_right.png,12,Community 2,NA,TRUE,j,j,NA,NA,NA,3,6,"9,4,2,5,14,12,6,11,7,8,3,1,13,15,10"
15146,commdev-image-keyboard-response,574,2089320,learnblock2,492.39999997615814,img/planet7_left.png,7,Community 2,NA,TRUE,f,f,NA,NA,NA,3,6,"9,4,2,5,14,12,6,11,7,8,3,1,13,15,10"
15146,commdev-image-keyboard-response,575,2090577,learnblock2,758,img/planet12_left.png,12,Community 2,NA,FALSE,j,f,NA,NA,NA,3,6,"9,4,2,5,14,12,6,11,7,8,3,1,13,15,10"
15146,commdev-image-keyboard-response,576,2091845,learnblock2,471.60000002384186,img/planet6_right.png,6,Community 2,NA,TRUE,j,j,NA,NA,NA,3,6,"9,4,2,5,14,12,6,11,7,8,3,1,13,15,10"
15146,commdev-image-keyboard-response,577,2093107,learnblock2,603.3000000119209,img/planet7_right.png,7,Community 2,NA,TRUE,j,j,NA,NA,NA,3,6,"9,4,2,5,14,12,6,11,7,8,3,1,13,15,10"
15146,commdev-image-keyboard-response,578,2094360,learnblock2,494.80000001192093,img/planet6_left.png,6,Community 2,NA,TRUE,f,f,NA,NA,NA,3,6,"9,4,2,5,14,12,6,11,7,8,3,1,13,15,10"
15146,commdev-image-keyboard-response,579,2095615,learnblock2,539,img/planet7_left.png,7,Community 2,NA,TRUE,f,f,NA,NA,NA,3,6,"9,4,2,5,14,12,6,11,7,8,3,1,13,15,10"
15146,commdev-image-keyboard-response,580,2096874,learnblock2,522.1000000238419,img/planet8_left.png,8,Community 2,NA,TRUE,f,f,NA,NA,NA,3,6,"9,4,2,5,14,12,6,11,7,8,3,1,13,15,10"
15146,commdev-image-keyboard-response,581,2098132,learnblock2,506.30000001192093,img/planet6_left.png,6,Community 2,NA,TRUE,f,f,NA,NA,NA,3,6,"9,4,2,5,14,12,6,11,7,8,3,1,13,15,10"
15146,commdev-image-keyboard-response,582,2099401,learnblock2,461.30000001192093,img/planet11_right.png,11,Community 2,NA,TRUE,j,j,NA,NA,NA,3,6,"9,4,2,5,14,12,6,11,7,8,3,1,13,15,10"
15146,commdev-image-keyboard-response,583,2100660,learnblock2,435.19999998807907,img/planet7_left.png,7,Community 2,NA,TRUE,f,f,NA,NA,NA,3,6,"9,4,2,5,14,12,6,11,7,8,3,1,13,15,10"
15146,commdev-image-keyboard-response,584,2101913,learnblock2,545.8999999761581,img/planet8_left.png,8,Community 2,NA,TRUE,f,f,NA,NA,NA,3,6,"9,4,2,5,14,12,6,11,7,8,3,1,13,15,10"
15146,commdev-image-keyboard-response,585,2103176,learnblock2,491.80000001192093,img/planet12_right.png,12,Community 2,NA,TRUE,j,j,NA,NA,NA,3,6,"9,4,2,5,14,12,6,11,7,8,3,1,13,15,10"
15146,commdev-image-keyboard-response,586,2104429,learnblock2,518.8000000119209,img/planet7_left.png,7,Community 2,NA,TRUE,f,f,NA,NA,NA,3,6,"9,4,2,5,14,12,6,11,7,8,3,1,13,15,10"
15146,commdev-image-keyboard-response,587,2105686,learnblock2,604.1999999880791,img/planet12_right.png,12,Community 2,NA,TRUE,j,j,NA,NA,NA,3,6,"9,4,2,5,14,12,6,11,7,8,3,1,13,15,10"
15146,commdev-image-keyboard-response,588,2106942,learnblock2,674.5,img/planet7_right.png,7,Community 2,NA,TRUE,j,j,NA,NA,NA,3,6,"9,4,2,5,14,12,6,11,7,8,3,1,13,15,10"
15146,commdev-image-keyboard-response,589,2108198,learnblock2,592,img/planet8_left.png,8,Community 2,NA,TRUE,f,f,NA,NA,NA,3,6,"9,4,2,5,14,12,6,11,7,8,3,1,13,15,10"
15146,commdev-image-keyboard-response,590,2109454,learnblock2,536,img/planet12_left.png,12,Community 2,NA,TRUE,f,f,NA,NA,NA,3,6,"9,4,2,5,14,12,6,11,7,8,3,1,13,15,10"
15146,commdev-image-keyboard-response,591,2110709,learnblock2,461.30000001192093,img/planet8_right.png,8,Community 2,NA,TRUE,j,j,NA,NA,NA,3,6,"9,4,2,5,14,12,6,11,7,8,3,1,13,15,10"
15146,commdev-image-keyboard-response,592,2111967,learnblock2,538.1999999880791,img/planet6_right.png,6,Community 2,NA,TRUE,j,j,NA,NA,NA,3,6,"9,4,2,5,14,12,6,11,7,8,3,1,13,15,10"
15146,commdev-image-keyboard-response,593,2113220,learnblock2,625.6999999880791,img/planet11_right.png,11,Community 2,NA,TRUE,j,j,NA,NA,NA,3,6,"9,4,2,5,14,12,6,11,7,8,3,1,13,15,10"
15146,commdev-image-keyboard-response,594,2114474,learnblock2,545.8000000119209,img/planet7_right.png,7,Community 2,NA,TRUE,j,j,NA,NA,NA,3,6,"9,4,2,5,14,12,6,11,7,8,3,1,13,15,10"
15146,commdev-image-keyboard-response,595,2115730,learnblock2,555.8999999761581,img/planet12_left.png,12,Community 2,NA,TRUE,f,f,NA,NA,NA,3,6,"9,4,2,5,14,12,6,11,7,8,3,1,13,15,10"
15146,commdev-image-keyboard-response,596,2116996,learnblock2,638.5999999642372,img/planet8_right.png,8,Community 2,NA,TRUE,j,j,NA,NA,NA,3,6,"9,4,2,5,14,12,6,11,7,8,3,1,13,15,10"
15146,commdev-image-keyboard-response,597,2118251,learnblock2,460.7000000476837,img/planet7_right.png,7,Community 2,NA,TRUE,j,j,NA,NA,NA,3,6,"9,4,2,5,14,12,6,11,7,8,3,1,13,15,10"
15146,commdev-image-keyboard-response,598,2119516,learnblock2,801.3000000119209,img/planet8_right.png,8,Community 2,NA,TRUE,j,j,NA,NA,NA,3,6,"9,4,2,5,14,12,6,11,7,8,3,1,13,15,10"
15146,commdev-image-keyboard-response,599,2120769,learnblock2,608.6000000238419,img/planet11_right.png,11,Community 2,NA,TRUE,j,j,NA,NA,NA,3,6,"9,4,2,5,14,12,6,11,7,8,3,1,13,15,10"
15146,commdev-image-keyboard-response,600,2122024,learnblock2,581.5,img/planet7_right.png,7,Community 2,NA,TRUE,j,j,NA,NA,NA,3,6,"9,4,2,5,14,12,6,11,7,8,3,1,13,15,10"
15146,commdev-image-keyboard-response,601,2123279,learnblock2,565.8000000119209,img/planet6_left.png,6,Community 2,NA,TRUE,f,f,NA,NA,NA,3,6,"9,4,2,5,14,12,6,11,7,8,3,1,13,15,10"
15146,commdev-image-keyboard-response,602,2124545,learnblock2,483.5999999642372,img/planet7_right.png,7,Community 2,NA,TRUE,j,j,NA,NA,NA,3,6,"9,4,2,5,14,12,6,11,7,8,3,1,13,15,10"
15146,commdev-image-keyboard-response,603,2125801,learnblock2,494.5,img/planet11_left.png,11,Community 2,NA,TRUE,f,f,NA,NA,NA,3,6,"9,4,2,5,14,12,6,11,7,8,3,1,13,15,10"
15146,commdev-image-keyboard-response,604,2127062,learnblock2,567.5,img/planet7_left.png,7,Community 2,NA,TRUE,f,f,NA,NA,NA,3,6,"9,4,2,5,14,12,6,11,7,8,3,1,13,15,10"
15146,commdev-image-keyboard-response,605,2128314,learnblock2,544.5,img/planet8_right.png,8,Community 2,NA,TRUE,j,j,NA,NA,NA,3,6,"9,4,2,5,14,12,6,11,7,8,3,1,13,15,10"
15146,commdev-image-keyboard-response,606,2129567,learnblock2,716.1000000238419,img/planet6_left.png,6,Community 2,NA,TRUE,f,f,NA,NA,NA,3,6,"9,4,2,5,14,12,6,11,7,8,3,1,13,15,10"
15146,commdev-image-keyboard-response,607,2130827,learnblock2,523.0999999642372,img/planet7_right.png,7,Community 2,NA,TRUE,j,j,NA,NA,NA,3,6,"9,4,2,5,14,12,6,11,7,8,3,1,13,15,10"
15146,commdev-image-keyboard-response,608,2132079,learnblock2,629.8000000119209,img/planet8_right.png,8,Community 2,NA,TRUE,j,j,NA,NA,NA,3,6,"9,4,2,5,14,12,6,11,7,8,3,1,13,15,10"
15146,commdev-image-keyboard-response,609,2133340,learnblock2,569.1000000238419,img/planet12_left.png,12,Community 2,NA,TRUE,f,f,NA,NA,NA,3,6,"9,4,2,5,14,12,6,11,7,8,3,1,13,15,10"
15146,commdev-image-keyboard-response,610,2134596,learnblock2,489.69999998807907,img/planet8_right.png,8,Community 2,NA,TRUE,j,j,NA,NA,NA,3,6,"9,4,2,5,14,12,6,11,7,8,3,1,13,15,10"
15146,commdev-image-keyboard-response,611,2135852,learnblock2,560.7999999523163,img/planet7_right.png,7,Community 2,NA,TRUE,j,j,NA,NA,NA,3,6,"9,4,2,5,14,12,6,11,7,8,3,1,13,15,10"
15146,commdev-image-keyboard-response,612,2137111,learnblock2,502.9000000357628,img/planet11_right.png,11,Community 2,NA,TRUE,j,j,NA,NA,NA,3,6,"9,4,2,5,14,12,6,11,7,8,3,1,13,15,10"
15146,commdev-image-keyboard-response,613,2138362,learnblock2,497.0999999642372,img/planet8_left.png,8,Community 2,NA,TRUE,f,f,NA,NA,NA,3,6,"9,4,2,5,14,12,6,11,7,8,3,1,13,15,10"
15146,commdev-image-keyboard-response,614,2139617,learnblock2,529.2999999523163,img/planet6_left.png,6,Community 2,NA,TRUE,f,f,NA,NA,NA,3,6,"9,4,2,5,14,12,6,11,7,8,3,1,13,15,10"
15146,commdev-image-keyboard-response,615,2140878,learnblock2,690.9000000357628,img/planet11_left.png,11,Community 2,NA,TRUE,f,f,NA,NA,NA,3,6,"9,4,2,5,14,12,6,11,7,8,3,1,13,15,10"
15146,commdev-image-keyboard-response,616,2142134,learnblock2,636.3000000119209,img/planet1_left.png,1,Community 3,NA,TRUE,f,f,NA,NA,NA,3,6,"9,4,2,5,14,12,6,11,7,8,3,1,13,15,10"
15146,commdev-image-keyboard-response,617,2143388,learnblock2,457.7999999523163,img/planet11_right.png,11,Community 2,NA,TRUE,j,j,NA,NA,NA,3,6,"9,4,2,5,14,12,6,11,7,8,3,1,13,15,10"
15146,commdev-image-keyboard-response,618,2144641,learnblock2,546.0999999642372,img/planet6_right.png,6,Community 2,NA,TRUE,j,j,NA,NA,NA,3,6,"9,4,2,5,14,12,6,11,7,8,3,1,13,15,10"
15146,commdev-image-keyboard-response,619,2145901,learnblock2,401.60000002384186,img/planet11_left.png,11,Community 2,NA,TRUE,f,f,NA,NA,NA,3,6,"9,4,2,5,14,12,6,11,7,8,3,1,13,15,10"
15146,commdev-image-keyboard-response,620,2147159,learnblock2,608.3999999761581,img/planet7_left.png,7,Community 2,NA,TRUE,f,f,NA,NA,NA,3,6,"9,4,2,5,14,12,6,11,7,8,3,1,13,15,10"
15146,commdev-image-keyboard-response,621,2148427,learnblock2,483.80000001192093,img/planet8_right.png,8,Community 2,NA,TRUE,j,j,NA,NA,NA,3,6,"9,4,2,5,14,12,6,11,7,8,3,1,13,15,10"
15146,commdev-image-keyboard-response,622,2149685,learnblock2,509.69999998807907,img/planet6_right.png,6,Community 2,NA,TRUE,j,j,NA,NA,NA,3,6,"9,4,2,5,14,12,6,11,7,8,3,1,13,15,10"
15146,commdev-image-keyboard-response,623,2150946,learnblock2,540.4000000357628,img/planet12_left.png,12,Community 2,NA,TRUE,f,f,NA,NA,NA,3,6,"9,4,2,5,14,12,6,11,7,8,3,1,13,15,10"
15146,commdev-image-keyboard-response,624,2152204,learnblock2,553.6999999880791,img/planet8_right.png,8,Community 2,NA,TRUE,j,j,NA,NA,NA,3,6,"9,4,2,5,14,12,6,11,7,8,3,1,13,15,10"
15146,commdev-image-keyboard-response,625,2153464,learnblock2,568.0999999642372,img/planet12_right.png,12,Community 2,NA,TRUE,j,j,NA,NA,NA,3,6,"9,4,2,5,14,12,6,11,7,8,3,1,13,15,10"
15146,commdev-image-keyboard-response,626,2154721,learnblock2,489.69999998807907,img/planet8_right.png,8,Community 2,NA,TRUE,j,j,NA,NA,NA,3,6,"9,4,2,5,14,12,6,11,7,8,3,1,13,15,10"
15146,commdev-image-keyboard-response,627,2155972,learnblock2,496,img/planet7_left.png,7,Community 2,NA,TRUE,f,f,NA,NA,NA,3,6,"9,4,2,5,14,12,6,11,7,8,3,1,13,15,10"
15146,commdev-image-keyboard-response,628,2157228,learnblock2,568,img/planet8_right.png,8,Community 2,NA,TRUE,j,j,NA,NA,NA,3,6,"9,4,2,5,14,12,6,11,7,8,3,1,13,15,10"
15146,commdev-image-keyboard-response,629,2158488,learnblock2,712.5,img/planet12_left.png,12,Community 2,NA,TRUE,f,f,NA,NA,NA,3,6,"9,4,2,5,14,12,6,11,7,8,3,1,13,15,10"
15146,commdev-image-keyboard-response,630,2159747,learnblock2,716.5999999642372,img/planet8_left.png,8,Community 2,NA,TRUE,f,f,NA,NA,NA,3,6,"9,4,2,5,14,12,6,11,7,8,3,1,13,15,10"
15146,commdev-image-keyboard-response,631,2161006,learnblock2,520.1000000238419,img/planet12_left.png,12,Community 2,NA,TRUE,f,f,NA,NA,NA,3,6,"9,4,2,5,14,12,6,11,7,8,3,1,13,15,10"
15146,commdev-image-keyboard-response,632,2162264,learnblock2,457.0999999642372,img/planet8_right.png,8,Community 2,NA,TRUE,j,j,NA,NA,NA,3,6,"9,4,2,5,14,12,6,11,7,8,3,1,13,15,10"
15146,commdev-image-keyboard-response,633,2163521,learnblock2,543.8999999761581,img/planet7_right.png,7,Community 2,NA,TRUE,j,j,NA,NA,NA,3,6,"9,4,2,5,14,12,6,11,7,8,3,1,13,15,10"
15146,commdev-image-keyboard-response,634,2164777,learnblock2,627.9000000357628,img/planet8_right.png,8,Community 2,NA,TRUE,j,j,NA,NA,NA,3,6,"9,4,2,5,14,12,6,11,7,8,3,1,13,15,10"
15146,commdev-image-keyboard-response,635,2166029,learnblock2,501.0999999642372,img/planet6_left.png,6,Community 2,NA,TRUE,f,f,NA,NA,NA,3,6,"9,4,2,5,14,12,6,11,7,8,3,1,13,15,10"
15146,commdev-image-keyboard-response,636,2167283,learnblock2,568.3999999761581,img/planet11_left.png,11,Community 2,NA,TRUE,f,f,NA,NA,NA,3,6,"9,4,2,5,14,12,6,11,7,8,3,1,13,15,10"
15146,commdev-image-keyboard-response,637,2168541,learnblock2,443,img/planet7_right.png,7,Community 2,NA,TRUE,j,j,NA,NA,NA,3,6,"9,4,2,5,14,12,6,11,7,8,3,1,13,15,10"
15146,commdev-image-keyboard-response,638,2169797,learnblock2,561.5999999642372,img/planet8_left.png,8,Community 2,NA,TRUE,f,f,NA,NA,NA,3,6,"9,4,2,5,14,12,6,11,7,8,3,1,13,15,10"
15146,commdev-image-keyboard-response,639,2171056,learnblock2,490.0999999642372,img/planet6_right.png,6,Community 2,NA,TRUE,j,j,NA,NA,NA,3,6,"9,4,2,5,14,12,6,11,7,8,3,1,13,15,10"
15146,commdev-image-keyboard-response,640,2172313,learnblock2,439,img/planet8_left.png,8,Community 2,NA,TRUE,f,f,NA,NA,NA,3,6,"9,4,2,5,14,12,6,11,7,8,3,1,13,15,10"
15146,commdev-image-keyboard-response,641,2173573,learnblock2,448,img/planet6_right.png,6,Community 2,NA,TRUE,j,j,NA,NA,NA,3,6,"9,4,2,5,14,12,6,11,7,8,3,1,13,15,10"
15146,commdev-image-keyboard-response,642,2174832,learnblock2,448.19999998807907,img/planet12_left.png,12,Community 2,NA,TRUE,f,f,NA,NA,NA,3,6,"9,4,2,5,14,12,6,11,7,8,3,1,13,15,10"
15146,commdev-image-keyboard-response,643,2176089,learnblock2,474.5999999642372,img/planet7_left.png,7,Community 2,NA,TRUE,f,f,NA,NA,NA,3,6,"9,4,2,5,14,12,6,11,7,8,3,1,13,15,10"
15146,commdev-image-keyboard-response,644,2177344,learnblock2,470.80000001192093,img/planet12_right.png,12,Community 2,NA,TRUE,j,j,NA,NA,NA,3,6,"9,4,2,5,14,12,6,11,7,8,3,1,13,15,10"
15146,commdev-image-keyboard-response,645,2178603,learnblock2,630.9000000357628,img/planet7_left.png,7,Community 2,NA,TRUE,f,f,NA,NA,NA,3,6,"9,4,2,5,14,12,6,11,7,8,3,1,13,15,10"
15146,commdev-image-keyboard-response,646,2179861,learnblock2,524.4000000357628,img/planet11_left.png,11,Community 2,NA,TRUE,f,f,NA,NA,NA,3,6,"9,4,2,5,14,12,6,11,7,8,3,1,13,15,10"
15146,commdev-image-keyboard-response,647,2181121,learnblock2,456.30000001192093,img/planet1_left.png,1,Community 3,NA,TRUE,f,f,NA,NA,NA,3,6,"9,4,2,5,14,12,6,11,7,8,3,1,13,15,10"
15146,commdev-image-keyboard-response,648,2182380,learnblock2,530.5999999642372,img/planet11_left.png,11,Community 2,NA,TRUE,f,f,NA,NA,NA,3,6,"9,4,2,5,14,12,6,11,7,8,3,1,13,15,10"
15146,commdev-image-keyboard-response,649,2183638,learnblock2,767.3999999761581,img/planet1_left.png,1,Community 3,NA,TRUE,f,f,NA,NA,NA,3,6,"9,4,2,5,14,12,6,11,7,8,3,1,13,15,10"
15146,commdev-image-keyboard-response,650,2184890,learnblock2,684.0999999642372,img/planet10_right.png,10,Community 3,NA,TRUE,j,j,NA,NA,NA,3,6,"9,4,2,5,14,12,6,11,7,8,3,1,13,15,10"
15146,commdev-image-keyboard-response,651,2186148,learnblock2,570.5,img/planet15_left.png,15,Community 3,NA,TRUE,f,f,NA,NA,NA,3,6,"9,4,2,5,14,12,6,11,7,8,3,1,13,15,10"
15146,commdev-image-keyboard-response,652,2187404,learnblock2,490.19999998807907,img/planet10_left.png,10,Community 3,NA,TRUE,f,f,NA,NA,NA,3,6,"9,4,2,5,14,12,6,11,7,8,3,1,13,15,10"
15146,commdev-image-keyboard-response,653,2188657,learnblock2,550.3999999761581,img/planet13_left.png,13,Community 3,NA,TRUE,f,f,NA,NA,NA,3,6,"9,4,2,5,14,12,6,11,7,8,3,1,13,15,10"
15146,commdev-image-keyboard-response,654,2189914,learnblock2,548.8000000119209,img/planet3_right.png,3,Community 3,NA,TRUE,j,j,NA,NA,NA,3,6,"9,4,2,5,14,12,6,11,7,8,3,1,13,15,10"
15146,commdev-image-keyboard-response,655,2191170,learnblock2,513.4000000357628,img/planet15_right.png,15,Community 3,NA,FALSE,f,j,NA,NA,NA,3,6,"9,4,2,5,14,12,6,11,7,8,3,1,13,15,10"
15146,commdev-image-keyboard-response,656,2192426,learnblock2,549.5999999642372,img/planet13_left.png,13,Community 3,NA,TRUE,f,f,NA,NA,NA,3,6,"9,4,2,5,14,12,6,11,7,8,3,1,13,15,10"
15146,commdev-image-keyboard-response,657,2193688,learnblock2,666.8000000119209,img/planet10_right.png,10,Community 3,NA,TRUE,j,j,NA,NA,NA,3,6,"9,4,2,5,14,12,6,11,7,8,3,1,13,15,10"
15146,commdev-image-keyboard-response,658,2194946,learnblock2,849.1000000238419,img/planet1_right.png,1,Community 3,NA,TRUE,j,j,NA,NA,NA,3,6,"9,4,2,5,14,12,6,11,7,8,3,1,13,15,10"
15146,commdev-image-keyboard-response,659,2196205,learnblock2,514.3000000119209,img/planet15_left.png,15,Community 3,NA,TRUE,f,f,NA,NA,NA,3,6,"9,4,2,5,14,12,6,11,7,8,3,1,13,15,10"
15146,commdev-image-keyboard-response,660,2197464,learnblock2,540.5,img/planet10_left.png,10,Community 3,NA,TRUE,f,f,NA,NA,NA,3,6,"9,4,2,5,14,12,6,11,7,8,3,1,13,15,10"
15146,commdev-image-keyboard-response,661,2198720,learnblock2,800.9000000357628,img/planet3_left.png,3,Community 3,NA,TRUE,f,f,NA,NA,NA,3,6,"9,4,2,5,14,12,6,11,7,8,3,1,13,15,10"
15146,commdev-image-keyboard-response,662,2199980,learnblock2,810.5,img/planet14_right.png,14,Community 1,NA,TRUE,j,j,NA,NA,NA,3,6,"9,4,2,5,14,12,6,11,7,8,3,1,13,15,10"
15146,commdev-image-keyboard-response,663,2201233,learnblock2,661.0999999642372,img/planet9_left.png,9,Community 1,NA,TRUE,f,f,NA,NA,NA,3,6,"9,4,2,5,14,12,6,11,7,8,3,1,13,15,10"
15146,commdev-image-keyboard-response,664,2202494,learnblock2,579.8000000119209,img/planet4_right.png,4,Community 1,NA,TRUE,j,j,NA,NA,NA,3,6,"9,4,2,5,14,12,6,11,7,8,3,1,13,15,10"
15146,commdev-image-keyboard-response,665,2203747,learnblock2,534.6999999880791,img/planet2_left.png,2,Community 1,NA,TRUE,f,f,NA,NA,NA,3,6,"9,4,2,5,14,12,6,11,7,8,3,1,13,15,10"
15146,commdev-image-keyboard-response,666,2205005,learnblock2,505.89999997615814,img/planet4_right.png,4,Community 1,NA,TRUE,j,j,NA,NA,NA,3,6,"9,4,2,5,14,12,6,11,7,8,3,1,13,15,10"
15146,commdev-image-keyboard-response,667,2206265,learnblock2,683.3000000119209,img/planet5_right.png,5,Community 1,NA,TRUE,j,j,NA,NA,NA,3,6,"9,4,2,5,14,12,6,11,7,8,3,1,13,15,10"
15146,commdev-image-keyboard-response,668,2207531,learnblock2,524.6000000238419,img/planet9_right.png,9,Community 1,NA,TRUE,j,j,NA,NA,NA,3,6,"9,4,2,5,14,12,6,11,7,8,3,1,13,15,10"
15146,commdev-image-keyboard-response,669,2208799,learnblock2,658.1000000238419,img/planet2_right.png,2,Community 1,NA,TRUE,j,j,NA,NA,NA,3,6,"9,4,2,5,14,12,6,11,7,8,3,1,13,15,10"
15146,commdev-image-keyboard-response,670,2210052,learnblock2,918.5999999642372,img/planet5_left.png,5,Community 1,NA,TRUE,f,f,NA,NA,NA,3,6,"9,4,2,5,14,12,6,11,7,8,3,1,13,15,10"
15146,commdev-image-keyboard-response,671,2211319,learnblock2,861.3999999761581,img/planet12_left.png,12,Community 2,NA,TRUE,f,f,NA,NA,NA,3,6,"9,4,2,5,14,12,6,11,7,8,3,1,13,15,10"
15146,commdev-image-keyboard-response,672,2212576,learnblock2,588.6999999880791,img/planet7_left.png,7,Community 2,NA,TRUE,f,f,NA,NA,NA,3,6,"9,4,2,5,14,12,6,11,7,8,3,1,13,15,10"
15146,commdev-image-keyboard-response,673,2213832,learnblock2,580.5,img/planet6_left.png,6,Community 2,NA,TRUE,f,f,NA,NA,NA,3,6,"9,4,2,5,14,12,6,11,7,8,3,1,13,15,10"
15146,commdev-image-keyboard-response,674,2215088,learnblock2,414.69999998807907,img/planet12_right.png,12,Community 2,NA,TRUE,j,j,NA,NA,NA,3,6,"9,4,2,5,14,12,6,11,7,8,3,1,13,15,10"
15146,commdev-image-keyboard-response,675,2216342,learnblock2,506.19999998807907,img/planet8_left.png,8,Community 2,NA,TRUE,f,f,NA,NA,NA,3,6,"9,4,2,5,14,12,6,11,7,8,3,1,13,15,10"
15146,commdev-image-keyboard-response,676,2217594,learnblock2,513.1000000238419,img/planet7_left.png,7,Community 2,NA,TRUE,f,f,NA,NA,NA,3,6,"9,4,2,5,14,12,6,11,7,8,3,1,13,15,10"
15146,commdev-image-keyboard-response,677,2218852,learnblock2,404.7000000476837,img/planet8_right.png,8,Community 2,NA,TRUE,j,j,NA,NA,NA,3,6,"9,4,2,5,14,12,6,11,7,8,3,1,13,15,10"
15146,commdev-image-keyboard-response,678,2220105,learnblock2,437.5,img/planet12_left.png,12,Community 2,NA,TRUE,f,f,NA,NA,NA,3,6,"9,4,2,5,14,12,6,11,7,8,3,1,13,15,10"
15146,commdev-image-keyboard-response,679,2221371,learnblock2,490.19999998807907,img/planet5_left.png,5,Community 1,NA,TRUE,f,f,NA,NA,NA,3,6,"9,4,2,5,14,12,6,11,7,8,3,1,13,15,10"
15146,commdev-image-keyboard-response,680,2222630,learnblock2,529.9000000357628,img/planet2_right.png,2,Community 1,NA,TRUE,j,j,NA,NA,NA,3,6,"9,4,2,5,14,12,6,11,7,8,3,1,13,15,10"
15146,commdev-image-keyboard-response,681,2223885,learnblock2,583.8000000119209,img/planet14_right.png,14,Community 1,NA,TRUE,j,j,NA,NA,NA,3,6,"9,4,2,5,14,12,6,11,7,8,3,1,13,15,10"
15146,commdev-image-keyboard-response,682,2225142,learnblock2,437.19999998807907,img/planet4_left.png,4,Community 1,NA,TRUE,f,f,NA,NA,NA,3,6,"9,4,2,5,14,12,6,11,7,8,3,1,13,15,10"
15146,commdev-image-keyboard-response,683,2226401,learnblock2,477.5,img/planet2_left.png,2,Community 1,NA,TRUE,f,f,NA,NA,NA,3,6,"9,4,2,5,14,12,6,11,7,8,3,1,13,15,10"
15146,commdev-image-keyboard-response,684,2227653,learnblock2,452.2999999523163,img/planet4_left.png,4,Community 1,NA,TRUE,f,f,NA,NA,NA,3,6,"9,4,2,5,14,12,6,11,7,8,3,1,13,15,10"
15146,commdev-image-keyboard-response,685,2228906,learnblock2,478.4000000357628,img/planet5_left.png,5,Community 1,NA,TRUE,f,f,NA,NA,NA,3,6,"9,4,2,5,14,12,6,11,7,8,3,1,13,15,10"
15146,commdev-image-keyboard-response,686,2230164,learnblock2,523.4000000357628,img/planet2_left.png,2,Community 1,NA,TRUE,f,f,NA,NA,NA,3,6,"9,4,2,5,14,12,6,11,7,8,3,1,13,15,10"
15146,commdev-image-keyboard-response,687,2231430,learnblock2,506.5999999642372,img/planet14_left.png,14,Community 1,NA,TRUE,f,f,NA,NA,NA,3,6,"9,4,2,5,14,12,6,11,7,8,3,1,13,15,10"
15146,commdev-image-keyboard-response,688,2232687,learnblock2,429.9000000357628,img/planet4_left.png,4,Community 1,NA,TRUE,f,f,NA,NA,NA,3,6,"9,4,2,5,14,12,6,11,7,8,3,1,13,15,10"
15146,commdev-image-keyboard-response,689,2233940,learnblock2,545.3000000119209,img/planet2_right.png,2,Community 1,NA,TRUE,j,j,NA,NA,NA,3,6,"9,4,2,5,14,12,6,11,7,8,3,1,13,15,10"
15146,commdev-image-keyboard-response,690,2235197,learnblock2,740.5999999642372,img/planet14_left.png,14,Community 1,NA,TRUE,f,f,NA,NA,NA,3,6,"9,4,2,5,14,12,6,11,7,8,3,1,13,15,10"
15146,commdev-image-keyboard-response,691,2236448,learnblock2,415.7000000476837,img/planet2_right.png,2,Community 1,NA,TRUE,j,j,NA,NA,NA,3,6,"9,4,2,5,14,12,6,11,7,8,3,1,13,15,10"
15146,commdev-image-keyboard-response,692,2237705,learnblock2,484.7000000476837,img/planet9_right.png,9,Community 1,NA,TRUE,j,j,NA,NA,NA,3,6,"9,4,2,5,14,12,6,11,7,8,3,1,13,15,10"
15146,commdev-image-keyboard-response,693,2238964,learnblock2,443.80000001192093,img/planet2_left.png,2,Community 1,NA,TRUE,f,f,NA,NA,NA,3,6,"9,4,2,5,14,12,6,11,7,8,3,1,13,15,10"
15146,commdev-image-keyboard-response,694,2240222,learnblock2,607.4000000357628,img/planet4_right.png,4,Community 1,NA,TRUE,j,j,NA,NA,NA,3,6,"9,4,2,5,14,12,6,11,7,8,3,1,13,15,10"
15146,commdev-image-keyboard-response,695,2241479,learnblock2,445.5999999642372,img/planet2_left.png,2,Community 1,NA,TRUE,f,f,NA,NA,NA,3,6,"9,4,2,5,14,12,6,11,7,8,3,1,13,15,10"
15146,commdev-image-keyboard-response,696,2242735,learnblock2,681.3999999761581,img/planet5_left.png,5,Community 1,NA,TRUE,f,f,NA,NA,NA,3,6,"9,4,2,5,14,12,6,11,7,8,3,1,13,15,10"
15146,commdev-image-keyboard-response,697,2243990,learnblock2,473.30000001192093,img/planet4_left.png,4,Community 1,NA,TRUE,f,f,NA,NA,NA,3,6,"9,4,2,5,14,12,6,11,7,8,3,1,13,15,10"
15146,commdev-image-keyboard-response,698,2245242,learnblock2,451,img/planet2_left.png,2,Community 1,NA,TRUE,f,f,NA,NA,NA,3,6,"9,4,2,5,14,12,6,11,7,8,3,1,13,15,10"
15146,commdev-image-keyboard-response,699,2246502,learnblock2,695.8000000119209,img/planet4_right.png,4,Community 1,NA,TRUE,j,j,NA,NA,NA,3,6,"9,4,2,5,14,12,6,11,7,8,3,1,13,15,10"
15146,commdev-image-keyboard-response,700,2247766,learnblock2,583.8000000119209,img/planet9_left.png,9,Community 1,NA,FALSE,j,f,NA,NA,NA,3,6,"9,4,2,5,14,12,6,11,7,8,3,1,13,15,10"
15146,commdev-image-keyboard-response,701,2249022,learnblock2,450.80000001192093,img/planet4_right.png,4,Community 1,NA,TRUE,j,j,NA,NA,NA,3,6,"9,4,2,5,14,12,6,11,7,8,3,1,13,15,10"
15146,commdev-image-keyboard-response,702,2250283,learnblock2,437.69999998807907,img/planet2_left.png,2,Community 1,NA,TRUE,f,f,NA,NA,NA,3,6,"9,4,2,5,14,12,6,11,7,8,3,1,13,15,10"
15146,commdev-image-keyboard-response,703,2251537,learnblock2,520.3999999761581,img/planet14_right.png,14,Community 1,NA,TRUE,j,j,NA,NA,NA,3,6,"9,4,2,5,14,12,6,11,7,8,3,1,13,15,10"
15146,commdev-image-keyboard-response,704,2252798,learnblock2,625.8999999761581,img/planet3_left.png,3,Community 3,NA,TRUE,f,f,NA,NA,NA,3,6,"9,4,2,5,14,12,6,11,7,8,3,1,13,15,10"
15146,commdev-image-keyboard-response,705,2254053,learnblock2,454.2999999523163,img/planet13_left.png,13,Community 3,NA,TRUE,f,f,NA,NA,NA,3,6,"9,4,2,5,14,12,6,11,7,8,3,1,13,15,10"
15146,commdev-image-keyboard-response,706,2255312,learnblock2,466,img/planet15_right.png,15,Community 3,NA,TRUE,j,j,NA,NA,NA,3,6,"9,4,2,5,14,12,6,11,7,8,3,1,13,15,10"
15146,commdev-image-keyboard-response,707,2256566,learnblock2,638.5999999642372,img/planet3_right.png,3,Community 3,NA,TRUE,j,j,NA,NA,NA,3,6,"9,4,2,5,14,12,6,11,7,8,3,1,13,15,10"
15146,commdev-image-keyboard-response,708,2257820,learnblock2,492.5,img/planet13_left.png,13,Community 3,NA,TRUE,f,f,NA,NA,NA,3,6,"9,4,2,5,14,12,6,11,7,8,3,1,13,15,10"
15146,commdev-image-keyboard-response,709,2259078,learnblock2,568.6999999880791,img/planet3_right.png,3,Community 3,NA,TRUE,j,j,NA,NA,NA,3,6,"9,4,2,5,14,12,6,11,7,8,3,1,13,15,10"
15146,commdev-image-keyboard-response,710,2260337,learnblock2,706.1999999880791,img/planet10_right.png,10,Community 3,NA,TRUE,j,j,NA,NA,NA,3,6,"9,4,2,5,14,12,6,11,7,8,3,1,13,15,10"
15146,commdev-image-keyboard-response,711,2261589,learnblock2,511.19999998807907,img/planet1_right.png,1,Community 3,NA,TRUE,j,j,NA,NA,NA,3,6,"9,4,2,5,14,12,6,11,7,8,3,1,13,15,10"
15146,commdev-image-keyboard-response,712,2262850,learnblock2,490.89999997615814,img/planet15_left.png,15,Community 3,NA,TRUE,f,f,NA,NA,NA,3,6,"9,4,2,5,14,12,6,11,7,8,3,1,13,15,10"
15146,commdev-image-keyboard-response,713,2264104,learnblock2,515.3999999761581,img/planet1_left.png,1,Community 3,NA,TRUE,f,f,NA,NA,NA,3,6,"9,4,2,5,14,12,6,11,7,8,3,1,13,15,10"
15146,commdev-image-keyboard-response,714,2265370,learnblock2,622.0999999642372,img/planet15_left.png,15,Community 3,NA,TRUE,f,f,NA,NA,NA,3,6,"9,4,2,5,14,12,6,11,7,8,3,1,13,15,10"
15146,commdev-image-keyboard-response,715,2266624,learnblock2,523.3999999761581,img/planet1_left.png,1,Community 3,NA,TRUE,f,f,NA,NA,NA,3,6,"9,4,2,5,14,12,6,11,7,8,3,1,13,15,10"
15146,commdev-image-keyboard-response,716,2267884,learnblock2,390.5,img/planet11_right.png,11,Community 2,NA,TRUE,j,j,NA,NA,NA,3,6,"9,4,2,5,14,12,6,11,7,8,3,1,13,15,10"
15146,commdev-image-keyboard-response,717,2269141,learnblock2,583.9000000357628,img/planet7_left.png,7,Community 2,NA,TRUE,f,f,NA,NA,NA,3,6,"9,4,2,5,14,12,6,11,7,8,3,1,13,15,10"
15146,commdev-image-keyboard-response,718,2270396,learnblock2,470.2999999523163,img/planet8_right.png,8,Community 2,NA,TRUE,j,j,NA,NA,NA,3,6,"9,4,2,5,14,12,6,11,7,8,3,1,13,15,10"
15146,commdev-image-keyboard-response,719,2271650,learnblock2,593.8000000119209,img/planet12_left.png,12,Community 2,NA,TRUE,f,f,NA,NA,NA,3,6,"9,4,2,5,14,12,6,11,7,8,3,1,13,15,10"
15146,commdev-image-keyboard-response,720,2272905,learnblock2,554.9000000357628,img/planet8_right.png,8,Community 2,NA,TRUE,j,j,NA,NA,NA,3,6,"9,4,2,5,14,12,6,11,7,8,3,1,13,15,10"
