subject_id,trial_type,trial_index,time_elapsed,block,rt,stimulus,planet,community,response,correct,key_press,learning_correct_response,parse,init_locations,final_locations,browser_interactions,num_comp,planet_map
14153,commdev-instructions,7,26777,NA,2222,"<p>In this game, you are a scientist on board a space shuttle. </p><p> On each mission, you will visit planets all across the universe.</p><img src=""img/controlroom.jpg"" width=300vw>",NA,NA,NA,NA,NA,NA,NA,NA,NA,NA,4,"4,6,2,11,15,3,1,10,13,7,12,5,14,9,8"
14153,commdev-instructions,8,31079,NA,2224.300000000745,"<p>Here are a few planets you might see:</p><img src=""img/practice1.png"" width=200vw><img src=""img/practice2.png"" width=200vw><img src=""img/practice3.png"" width=200vw>",NA,NA,NA,NA,NA,NA,NA,NA,NA,NA,4,"4,6,2,11,15,3,1,10,13,7,12,5,14,9,8"
14153,commdev-instructions,9,41153,NA,2677.800000000745,"<p>Your job as a scientist is to record which direction the winds are moving on each planet.</p><p>There are two types of wind directions:</p><img src=""img/practice1_left.png"" width=200vw><img src=""img/practice1_right.png"" width=200vw>",NA,NA,NA,NA,NA,NA,NA,NA,NA,NA,4,"4,6,2,11,15,3,1,10,13,7,12,5,14,9,8"
14153,commdev-instructions,10,48113,NA,2076.199999999255,"<p>If the winds are moving this way, press the letter <strong>F</strong> on the keyboard as fast as you can.</p><img src=""img/leftwind.png"" width=250vw>",NA,NA,NA,NA,NA,NA,NA,NA,NA,NA,4,"4,6,2,11,15,3,1,10,13,7,12,5,14,9,8"
14153,commdev-instructions,11,57800,NA,5192.10000000149,"<p>If the winds are moving this way, press the letter <strong>J</strong> on the keyboard as fast as you can.</p><img src=""img/rightwind.png"" width=350vw>",NA,NA,NA,NA,NA,NA,NA,NA,NA,NA,4,"4,6,2,11,15,3,1,10,13,7,12,5,14,9,8"
14153,commdev-instructions,12,65423,NA,3205.199999999255,<p>You will have 1 second to respond. Try to respond before the time runs out!,NA,NA,NA,NA,NA,NA,NA,NA,NA,NA,4,"4,6,2,11,15,3,1,10,13,7,12,5,14,9,8"
14153,commdev-instructions,13,72561,NA,1702.199999999255,<p>The planets you will visit will look different from each other.</p><p>You should respond <strong>only</strong> based on wind direction.,NA,NA,NA,NA,NA,NA,NA,NA,NA,NA,4,"4,6,2,11,15,3,1,10,13,7,12,5,14,9,8"
14153,commdev-instructions,14,80264,NA,2532.7999999970198,"<p> Ready to start the practice round? </p><p> Remember, press <strong>F</strong> or <strong>J</strong> depending on the wind direction.<br><img src=""img/categorize_planet_example.png""",NA,NA,NA,NA,NA,NA,NA,NA,NA,NA,4,"4,6,2,11,15,3,1,10,13,7,12,5,14,9,8"
14153,commdev-instructions,26,146098,NA,1271.699999999255,"<p>Great, now try a short practice mission. </p><p> This time, you will have 1 second to respond and you won't know whether you pressed the right or wrong key for each planet.</p>",NA,NA,NA,NA,NA,NA,NA,NA,NA,NA,4,"4,6,2,11,15,3,1,10,13,7,12,5,14,9,8"
14153,commdev-image-keyboard-response,27,147455,practice,null,img/practice4_left.png,NA,Number not found in mappings,NA,FALSE,null,f,NA,NA,NA,NA,4,"4,6,2,11,15,3,1,10,13,7,12,5,14,9,8"
14153,commdev-image-keyboard-response,28,148708,practice,266.5999999977648,img/practice2_left.png,NA,Number not found in mappings,NA,FALSE,j,f,NA,NA,NA,NA,4,"4,6,2,11,15,3,1,10,13,7,12,5,14,9,8"
14153,commdev-image-keyboard-response,29,149960,practice,99,img/practice3_left.png,NA,Number not found in mappings,NA,TRUE,f,f,NA,NA,NA,NA,4,"4,6,2,11,15,3,1,10,13,7,12,5,14,9,8"
14153,commdev-image-keyboard-response,30,151213,practice,230.40000000223517,img/practice2_right.png,NA,Number not found in mappings,NA,FALSE,f,j,NA,NA,NA,NA,4,"4,6,2,11,15,3,1,10,13,7,12,5,14,9,8"
14153,commdev-image-keyboard-response,31,152465,practice,736.8000000007451,img/practice3_left.png,NA,Number not found in mappings,NA,FALSE,j,f,NA,NA,NA,NA,4,"4,6,2,11,15,3,1,10,13,7,12,5,14,9,8"
14153,commdev-image-keyboard-response,32,153717,practice,196.39999999850988,img/practice4_left.png,NA,Number not found in mappings,NA,TRUE,f,f,NA,NA,NA,NA,4,"4,6,2,11,15,3,1,10,13,7,12,5,14,9,8"
14153,commdev-image-keyboard-response,33,154970,practice,416.19999999925494,img/practice1_left.png,NA,Number not found in mappings,NA,FALSE,j,f,NA,NA,NA,NA,4,"4,6,2,11,15,3,1,10,13,7,12,5,14,9,8"
14153,commdev-image-keyboard-response,34,156223,practice,568.3999999985099,img/practice3_left.png,NA,Number not found in mappings,NA,FALSE,j,f,NA,NA,NA,NA,4,"4,6,2,11,15,3,1,10,13,7,12,5,14,9,8"
14153,commdev-instructions,35,171291,NA,5515.800000000745,"<p>Great job with the practice round.</p><p>During real missions, you won't know whether you pressed the right or wrong key for each planet.</p><p>But between missions, we will tell you how you did overall.</p>",NA,NA,NA,NA,NA,NA,NA,NA,NA,NA,4,"4,6,2,11,15,3,1,10,13,7,12,5,14,9,8"
14153,commdev-instructions,36,181883,NA,2356.900000002235,<p>Try your best! You will be paid a bonus based on how many correct responses you make!</p><p>Responses that are too slow will not count toward your bonus.</p>,NA,NA,NA,NA,NA,NA,NA,NA,NA,NA,4,"4,6,2,11,15,3,1,10,13,7,12,5,14,9,8"
14153,commdev-instructions,37,189127,NA,1047,"<p>You are almost ready to start the real game.</p><p> First, we are going to ask you some questions about how the game works.</p>",NA,NA,NA,NA,NA,NA,NA,NA,NA,NA,4,"4,6,2,11,15,3,1,10,13,7,12,5,14,9,8"
14153,commdev-instructions,46,277859,NA,2449.89999999851,"<p> Nice work! It is now time to start the real game.<p></p>You will go on two missions to record wind directions of different planets.<p></p>Each one will take about 5 minutes. You will get to take a break between missions.<p><p> Remember, press <strong>F</strong> or <strong>J</strong> depending on the wind direction. Good luck!<br><img src=""img/categorize_planet_example.png""",NA,NA,NA,NA,NA,NA,NA,NA,NA,NA,4,"4,6,2,11,15,3,1,10,13,7,12,5,14,9,8"
14153,commdev-image-keyboard-response,48,281601,learnblock1,1179.5,img/planet15_right.png,15,Community 1,NA,TRUE,j,j,NA,NA,NA,NA,4,"4,6,2,11,15,3,1,10,13,7,12,5,14,9,8"
14153,commdev-image-keyboard-response,49,282853,learnblock1,856.6000000014901,img/planet4_right.png,4,Community 1,NA,TRUE,j,j,NA,NA,NA,NA,4,"4,6,2,11,15,3,1,10,13,7,12,5,14,9,8"
14153,commdev-image-keyboard-response,50,284105,learnblock1,67,img/planet11_right.png,11,Community 1,NA,TRUE,j,j,NA,NA,NA,NA,4,"4,6,2,11,15,3,1,10,13,7,12,5,14,9,8"
14153,commdev-image-keyboard-response,51,285357,learnblock1,762.1000000014901,img/planet2_right.png,2,Community 1,NA,TRUE,j,j,NA,NA,NA,NA,4,"4,6,2,11,15,3,1,10,13,7,12,5,14,9,8"
14153,commdev-image-keyboard-response,52,286610,learnblock1,824.1000000014901,img/planet4_right.png,4,Community 1,NA,TRUE,j,j,NA,NA,NA,NA,4,"4,6,2,11,15,3,1,10,13,7,12,5,14,9,8"
14153,commdev-image-keyboard-response,53,287862,learnblock1,701.5,img/planet2_left.png,2,Community 1,NA,TRUE,f,f,NA,NA,NA,NA,4,"4,6,2,11,15,3,1,10,13,7,12,5,14,9,8"
14153,commdev-image-keyboard-response,54,289114,learnblock1,783.9000000022352,img/planet15_right.png,15,Community 1,NA,TRUE,j,j,NA,NA,NA,NA,4,"4,6,2,11,15,3,1,10,13,7,12,5,14,9,8"
14153,commdev-image-keyboard-response,55,290365,learnblock1,745.6999999992549,img/planet6_left.png,6,Community 1,NA,TRUE,f,f,NA,NA,NA,NA,4,"4,6,2,11,15,3,1,10,13,7,12,5,14,9,8"
14153,commdev-image-keyboard-response,56,291617,learnblock1,733.3999999985099,img/planet11_right.png,11,Community 1,NA,TRUE,j,j,NA,NA,NA,NA,4,"4,6,2,11,15,3,1,10,13,7,12,5,14,9,8"
14153,commdev-image-keyboard-response,57,292869,learnblock1,745.2999999970198,img/planet6_left.png,6,Community 1,NA,TRUE,f,f,NA,NA,NA,NA,4,"4,6,2,11,15,3,1,10,13,7,12,5,14,9,8"
14153,commdev-image-keyboard-response,58,294121,learnblock1,670.6000000014901,img/planet15_right.png,15,Community 1,NA,TRUE,j,j,NA,NA,NA,NA,4,"4,6,2,11,15,3,1,10,13,7,12,5,14,9,8"
14153,commdev-image-keyboard-response,59,295373,learnblock1,953,img/planet12_left.png,12,Community 3,NA,TRUE,f,f,NA,NA,NA,NA,4,"4,6,2,11,15,3,1,10,13,7,12,5,14,9,8"
14153,commdev-image-keyboard-response,60,296624,learnblock1,779.8999999985099,img/planet15_right.png,15,Community 1,NA,TRUE,j,j,NA,NA,NA,NA,4,"4,6,2,11,15,3,1,10,13,7,12,5,14,9,8"
14153,commdev-image-keyboard-response,61,297876,learnblock1,872.6999999992549,img/planet2_left.png,2,Community 1,NA,TRUE,f,f,NA,NA,NA,NA,4,"4,6,2,11,15,3,1,10,13,7,12,5,14,9,8"
14153,commdev-image-keyboard-response,62,299129,learnblock1,null,img/planet15_right.png,15,Community 1,NA,FALSE,null,j,NA,NA,NA,NA,4,"4,6,2,11,15,3,1,10,13,7,12,5,14,9,8"
14153,commdev-image-keyboard-response,63,300382,learnblock1,116.69999999925494,img/planet6_left.png,6,Community 1,NA,FALSE,j,f,NA,NA,NA,NA,4,"4,6,2,11,15,3,1,10,13,7,12,5,14,9,8"
14153,commdev-image-keyboard-response,64,301634,learnblock1,665.7000000029802,img/planet2_left.png,2,Community 1,NA,FALSE,j,f,NA,NA,NA,NA,4,"4,6,2,11,15,3,1,10,13,7,12,5,14,9,8"
14153,commdev-image-keyboard-response,65,302886,learnblock1,72.60000000149012,img/planet15_left.png,15,Community 1,NA,TRUE,f,f,NA,NA,NA,NA,4,"4,6,2,11,15,3,1,10,13,7,12,5,14,9,8"
14153,commdev-image-keyboard-response,66,304138,learnblock1,911.8000000007451,img/planet6_left.png,6,Community 1,NA,TRUE,f,f,NA,NA,NA,NA,4,"4,6,2,11,15,3,1,10,13,7,12,5,14,9,8"
14153,commdev-image-keyboard-response,67,305391,learnblock1,862.2000000029802,img/planet15_right.png,15,Community 1,NA,TRUE,j,j,NA,NA,NA,NA,4,"4,6,2,11,15,3,1,10,13,7,12,5,14,9,8"
14153,commdev-image-keyboard-response,68,306643,learnblock1,888.3999999985099,img/planet6_right.png,6,Community 1,NA,TRUE,j,j,NA,NA,NA,NA,4,"4,6,2,11,15,3,1,10,13,7,12,5,14,9,8"
14153,commdev-image-keyboard-response,69,307895,learnblock1,863.8999999985099,img/planet2_left.png,2,Community 1,NA,TRUE,f,f,NA,NA,NA,NA,4,"4,6,2,11,15,3,1,10,13,7,12,5,14,9,8"
14153,commdev-image-keyboard-response,70,309147,learnblock1,914.1000000014901,img/planet6_left.png,6,Community 1,NA,TRUE,f,f,NA,NA,NA,NA,4,"4,6,2,11,15,3,1,10,13,7,12,5,14,9,8"
14153,commdev-image-keyboard-response,71,310398,learnblock1,845.3999999985099,img/planet15_right.png,15,Community 1,NA,TRUE,j,j,NA,NA,NA,NA,4,"4,6,2,11,15,3,1,10,13,7,12,5,14,9,8"
14153,commdev-image-keyboard-response,72,311650,learnblock1,762.5999999977648,img/planet2_left.png,2,Community 1,NA,TRUE,f,f,NA,NA,NA,NA,4,"4,6,2,11,15,3,1,10,13,7,12,5,14,9,8"
14153,commdev-image-keyboard-response,73,312902,learnblock1,1030.0999999977648,img/planet4_left.png,4,Community 1,NA,FALSE,j,f,NA,NA,NA,NA,4,"4,6,2,11,15,3,1,10,13,7,12,5,14,9,8"
14153,commdev-image-keyboard-response,74,314154,learnblock1,null,img/planet2_right.png,2,Community 1,NA,FALSE,null,j,NA,NA,NA,NA,4,"4,6,2,11,15,3,1,10,13,7,12,5,14,9,8"
14153,commdev-image-keyboard-response,75,315406,learnblock1,68.30000000074506,img/planet6_left.png,6,Community 1,NA,FALSE,j,f,NA,NA,NA,NA,4,"4,6,2,11,15,3,1,10,13,7,12,5,14,9,8"
14153,commdev-image-keyboard-response,76,316658,learnblock1,1209.300000000745,img/planet11_left.png,11,Community 1,NA,TRUE,f,f,NA,NA,NA,NA,4,"4,6,2,11,15,3,1,10,13,7,12,5,14,9,8"
14153,commdev-image-keyboard-response,77,317910,learnblock1,845.5999999977648,img/planet6_right.png,6,Community 1,NA,TRUE,j,j,NA,NA,NA,NA,4,"4,6,2,11,15,3,1,10,13,7,12,5,14,9,8"
14153,commdev-image-keyboard-response,78,319162,learnblock1,595,img/planet15_right.png,15,Community 1,NA,TRUE,j,j,NA,NA,NA,NA,4,"4,6,2,11,15,3,1,10,13,7,12,5,14,9,8"
14153,commdev-image-keyboard-response,79,320414,learnblock1,671.9000000022352,img/planet6_left.png,6,Community 1,NA,TRUE,f,f,NA,NA,NA,NA,4,"4,6,2,11,15,3,1,10,13,7,12,5,14,9,8"
14153,commdev-image-keyboard-response,80,321666,learnblock1,null,img/planet2_right.png,2,Community 1,NA,FALSE,null,j,NA,NA,NA,NA,4,"4,6,2,11,15,3,1,10,13,7,12,5,14,9,8"
14153,commdev-image-keyboard-response,81,322918,learnblock1,108,img/planet4_right.png,4,Community 1,NA,TRUE,j,j,NA,NA,NA,NA,4,"4,6,2,11,15,3,1,10,13,7,12,5,14,9,8"
14153,commdev-image-keyboard-response,82,324170,learnblock1,884.8999999985099,img/planet2_right.png,2,Community 1,NA,TRUE,j,j,NA,NA,NA,NA,4,"4,6,2,11,15,3,1,10,13,7,12,5,14,9,8"
14153,commdev-image-keyboard-response,83,325422,learnblock1,835.6999999992549,img/planet6_right.png,6,Community 1,NA,TRUE,j,j,NA,NA,NA,NA,4,"4,6,2,11,15,3,1,10,13,7,12,5,14,9,8"
14153,commdev-image-keyboard-response,84,326674,learnblock1,682,img/planet4_left.png,4,Community 1,NA,TRUE,f,f,NA,NA,NA,NA,4,"4,6,2,11,15,3,1,10,13,7,12,5,14,9,8"
14153,commdev-image-keyboard-response,85,327925,learnblock1,785.9000000022352,img/planet15_left.png,15,Community 1,NA,TRUE,f,f,NA,NA,NA,NA,4,"4,6,2,11,15,3,1,10,13,7,12,5,14,9,8"
14153,commdev-image-keyboard-response,86,329177,learnblock1,717.8000000007451,img/planet4_left.png,4,Community 1,NA,TRUE,f,f,NA,NA,NA,NA,4,"4,6,2,11,15,3,1,10,13,7,12,5,14,9,8"
14153,commdev-image-keyboard-response,87,330429,learnblock1,740.3000000007451,img/planet6_right.png,6,Community 1,NA,TRUE,j,j,NA,NA,NA,NA,4,"4,6,2,11,15,3,1,10,13,7,12,5,14,9,8"
14153,commdev-image-keyboard-response,88,331681,learnblock1,658.3999999985099,img/planet11_left.png,11,Community 1,NA,TRUE,f,f,NA,NA,NA,NA,4,"4,6,2,11,15,3,1,10,13,7,12,5,14,9,8"
14153,commdev-image-keyboard-response,89,332933,learnblock1,757.3999999985099,img/planet4_left.png,4,Community 1,NA,TRUE,f,f,NA,NA,NA,NA,4,"4,6,2,11,15,3,1,10,13,7,12,5,14,9,8"
14153,commdev-image-keyboard-response,90,334185,learnblock1,577.3000000007451,img/planet6_left.png,6,Community 1,NA,TRUE,f,f,NA,NA,NA,NA,4,"4,6,2,11,15,3,1,10,13,7,12,5,14,9,8"
14153,commdev-image-keyboard-response,91,335437,learnblock1,665,img/planet4_right.png,4,Community 1,NA,TRUE,j,j,NA,NA,NA,NA,4,"4,6,2,11,15,3,1,10,13,7,12,5,14,9,8"
14153,commdev-image-keyboard-response,92,336689,learnblock1,834.6999999992549,img/planet15_left.png,15,Community 1,NA,TRUE,f,f,NA,NA,NA,NA,4,"4,6,2,11,15,3,1,10,13,7,12,5,14,9,8"
14153,commdev-image-keyboard-response,93,337941,learnblock1,833,img/planet4_right.png,4,Community 1,NA,TRUE,j,j,NA,NA,NA,NA,4,"4,6,2,11,15,3,1,10,13,7,12,5,14,9,8"
14153,commdev-image-keyboard-response,94,339193,learnblock1,852.1999999992549,img/planet11_left.png,11,Community 1,NA,FALSE,j,f,NA,NA,NA,NA,4,"4,6,2,11,15,3,1,10,13,7,12,5,14,9,8"
14153,commdev-image-keyboard-response,95,340444,learnblock1,911.5,img/planet4_left.png,4,Community 1,NA,FALSE,j,f,NA,NA,NA,NA,4,"4,6,2,11,15,3,1,10,13,7,12,5,14,9,8"
14153,commdev-image-keyboard-response,96,341696,learnblock1,736.2000000029802,img/planet6_right.png,6,Community 1,NA,FALSE,f,j,NA,NA,NA,NA,4,"4,6,2,11,15,3,1,10,13,7,12,5,14,9,8"
14153,commdev-image-keyboard-response,97,342948,learnblock1,null,img/planet2_right.png,2,Community 1,NA,FALSE,null,j,NA,NA,NA,NA,4,"4,6,2,11,15,3,1,10,13,7,12,5,14,9,8"
14153,commdev-image-keyboard-response,98,344200,learnblock1,897.5,img/planet4_left.png,4,Community 1,NA,TRUE,f,f,NA,NA,NA,NA,4,"4,6,2,11,15,3,1,10,13,7,12,5,14,9,8"
14153,commdev-image-keyboard-response,99,345452,learnblock1,947.8000000007451,img/planet15_right.png,15,Community 1,NA,TRUE,j,j,NA,NA,NA,NA,4,"4,6,2,11,15,3,1,10,13,7,12,5,14,9,8"
14153,commdev-image-keyboard-response,100,346704,learnblock1,null,img/planet12_right.png,12,Community 3,NA,FALSE,null,j,NA,NA,NA,NA,4,"4,6,2,11,15,3,1,10,13,7,12,5,14,9,8"
14153,commdev-image-keyboard-response,101,347955,learnblock1,1213.2999999970198,img/planet14_left.png,14,Community 3,NA,TRUE,f,f,NA,NA,NA,NA,4,"4,6,2,11,15,3,1,10,13,7,12,5,14,9,8"
14153,commdev-image-keyboard-response,102,349207,learnblock1,706.5,img/planet12_left.png,12,Community 3,NA,FALSE,j,f,NA,NA,NA,NA,4,"4,6,2,11,15,3,1,10,13,7,12,5,14,9,8"
14153,commdev-image-keyboard-response,103,350459,learnblock1,666,img/planet15_left.png,15,Community 1,NA,TRUE,f,f,NA,NA,NA,NA,4,"4,6,2,11,15,3,1,10,13,7,12,5,14,9,8"
14153,commdev-image-keyboard-response,104,351711,learnblock1,650.5,img/planet2_left.png,2,Community 1,NA,TRUE,f,f,NA,NA,NA,NA,4,"4,6,2,11,15,3,1,10,13,7,12,5,14,9,8"
14153,commdev-image-keyboard-response,105,352963,learnblock1,833.4000000022352,img/planet15_right.png,15,Community 1,NA,TRUE,j,j,NA,NA,NA,NA,4,"4,6,2,11,15,3,1,10,13,7,12,5,14,9,8"
14153,commdev-image-keyboard-response,106,354215,learnblock1,647.8000000007451,img/planet2_left.png,2,Community 1,NA,TRUE,f,f,NA,NA,NA,NA,4,"4,6,2,11,15,3,1,10,13,7,12,5,14,9,8"
14153,commdev-image-keyboard-response,107,355467,learnblock1,920.8000000007451,img/planet4_left.png,4,Community 1,NA,TRUE,f,f,NA,NA,NA,NA,4,"4,6,2,11,15,3,1,10,13,7,12,5,14,9,8"
14153,commdev-image-keyboard-response,108,356719,learnblock1,713.3000000007451,img/planet11_left.png,11,Community 1,NA,TRUE,f,f,NA,NA,NA,NA,4,"4,6,2,11,15,3,1,10,13,7,12,5,14,9,8"
14153,commdev-image-keyboard-response,109,357971,learnblock1,1224.6000000014901,img/planet3_left.png,3,Community 2,NA,TRUE,f,f,NA,NA,NA,NA,4,"4,6,2,11,15,3,1,10,13,7,12,5,14,9,8"
14153,commdev-image-keyboard-response,110,359223,learnblock1,610.0999999977648,img/planet1_left.png,1,Community 2,NA,TRUE,f,f,NA,NA,NA,NA,4,"4,6,2,11,15,3,1,10,13,7,12,5,14,9,8"
14153,commdev-image-keyboard-response,111,360475,learnblock1,696.8999999985099,img/planet13_left.png,13,Community 2,NA,TRUE,f,f,NA,NA,NA,NA,4,"4,6,2,11,15,3,1,10,13,7,12,5,14,9,8"
14153,commdev-image-keyboard-response,112,361727,learnblock1,770.1000000014901,img/planet10_right.png,10,Community 2,NA,TRUE,j,j,NA,NA,NA,NA,4,"4,6,2,11,15,3,1,10,13,7,12,5,14,9,8"
14153,commdev-image-keyboard-response,113,362979,learnblock1,831.3000000007451,img/planet7_right.png,7,Community 2,NA,TRUE,j,j,NA,NA,NA,NA,4,"4,6,2,11,15,3,1,10,13,7,12,5,14,9,8"
14153,commdev-image-keyboard-response,114,364231,learnblock1,884.8000000007451,img/planet3_right.png,3,Community 2,NA,TRUE,j,j,NA,NA,NA,NA,4,"4,6,2,11,15,3,1,10,13,7,12,5,14,9,8"
14153,commdev-image-keyboard-response,115,365484,learnblock1,820.8000000007451,img/planet7_right.png,7,Community 2,NA,TRUE,j,j,NA,NA,NA,NA,4,"4,6,2,11,15,3,1,10,13,7,12,5,14,9,8"
14153,commdev-image-keyboard-response,116,366736,learnblock1,835.1000000014901,img/planet10_right.png,10,Community 2,NA,TRUE,j,j,NA,NA,NA,NA,4,"4,6,2,11,15,3,1,10,13,7,12,5,14,9,8"
14153,commdev-image-keyboard-response,117,367988,learnblock1,1022.8999999985099,img/planet1_left.png,1,Community 2,NA,FALSE,j,f,NA,NA,NA,NA,4,"4,6,2,11,15,3,1,10,13,7,12,5,14,9,8"
14153,commdev-image-keyboard-response,118,369241,learnblock1,133,img/planet10_right.png,10,Community 2,NA,FALSE,f,j,NA,NA,NA,NA,4,"4,6,2,11,15,3,1,10,13,7,12,5,14,9,8"
14153,commdev-image-keyboard-response,119,370494,learnblock1,null,img/planet13_left.png,13,Community 2,NA,FALSE,null,f,NA,NA,NA,NA,4,"4,6,2,11,15,3,1,10,13,7,12,5,14,9,8"
14153,commdev-image-keyboard-response,120,371746,learnblock1,21.300000000745058,img/planet10_right.png,10,Community 2,NA,FALSE,f,j,NA,NA,NA,NA,4,"4,6,2,11,15,3,1,10,13,7,12,5,14,9,8"
14153,commdev-image-keyboard-response,121,372998,learnblock1,666,img/planet5_right.png,5,Community 3,NA,TRUE,j,j,NA,NA,NA,NA,4,"4,6,2,11,15,3,1,10,13,7,12,5,14,9,8"
14153,commdev-image-keyboard-response,122,374250,learnblock1,353.80000000074506,img/planet9_right.png,9,Community 3,NA,TRUE,j,j,NA,NA,NA,NA,4,"4,6,2,11,15,3,1,10,13,7,12,5,14,9,8"
14153,commdev-image-keyboard-response,123,375503,learnblock1,null,img/planet12_left.png,12,Community 3,NA,FALSE,null,f,NA,NA,NA,NA,4,"4,6,2,11,15,3,1,10,13,7,12,5,14,9,8"
14153,commdev-image-keyboard-response,124,376755,learnblock1,369,img/planet15_left.png,15,Community 1,NA,TRUE,f,f,NA,NA,NA,NA,4,"4,6,2,11,15,3,1,10,13,7,12,5,14,9,8"
14153,commdev-image-keyboard-response,125,378007,learnblock1,495.30000000074506,img/planet12_left.png,12,Community 3,NA,FALSE,j,f,NA,NA,NA,NA,4,"4,6,2,11,15,3,1,10,13,7,12,5,14,9,8"
14153,commdev-image-keyboard-response,126,379259,learnblock1,null,img/planet8_left.png,8,Community 3,NA,FALSE,null,f,NA,NA,NA,NA,4,"4,6,2,11,15,3,1,10,13,7,12,5,14,9,8"
14153,commdev-image-keyboard-response,127,380511,learnblock1,147.10000000149012,img/planet9_right.png,9,Community 3,NA,FALSE,f,j,NA,NA,NA,NA,4,"4,6,2,11,15,3,1,10,13,7,12,5,14,9,8"
14153,commdev-image-keyboard-response,128,381763,learnblock1,173,img/planet12_right.png,12,Community 3,NA,TRUE,j,j,NA,NA,NA,NA,4,"4,6,2,11,15,3,1,10,13,7,12,5,14,9,8"
14153,commdev-image-keyboard-response,129,383015,learnblock1,935.1999999992549,img/planet8_right.png,8,Community 3,NA,FALSE,f,j,NA,NA,NA,NA,4,"4,6,2,11,15,3,1,10,13,7,12,5,14,9,8"
14153,commdev-image-keyboard-response,130,384267,learnblock1,1074.300000000745,img/planet5_left.png,5,Community 3,NA,TRUE,f,f,NA,NA,NA,NA,4,"4,6,2,11,15,3,1,10,13,7,12,5,14,9,8"
14153,commdev-image-keyboard-response,131,385519,learnblock1,739.3999999985099,img/planet8_left.png,8,Community 3,NA,TRUE,f,f,NA,NA,NA,NA,4,"4,6,2,11,15,3,1,10,13,7,12,5,14,9,8"
14153,commdev-image-keyboard-response,132,386771,learnblock1,692.4000000022352,img/planet12_left.png,12,Community 3,NA,TRUE,f,f,NA,NA,NA,NA,4,"4,6,2,11,15,3,1,10,13,7,12,5,14,9,8"
14153,commdev-image-keyboard-response,133,388023,learnblock1,681.3999999985099,img/planet15_left.png,15,Community 1,NA,TRUE,f,f,NA,NA,NA,NA,4,"4,6,2,11,15,3,1,10,13,7,12,5,14,9,8"
14153,commdev-image-keyboard-response,134,389275,learnblock1,686.6000000014901,img/planet12_left.png,12,Community 3,NA,TRUE,f,f,NA,NA,NA,NA,4,"4,6,2,11,15,3,1,10,13,7,12,5,14,9,8"
14153,commdev-image-keyboard-response,135,390527,learnblock1,843.9000000022352,img/planet8_right.png,8,Community 3,NA,TRUE,j,j,NA,NA,NA,NA,4,"4,6,2,11,15,3,1,10,13,7,12,5,14,9,8"
14153,commdev-image-keyboard-response,136,391779,learnblock1,771.4000000022352,img/planet14_left.png,14,Community 3,NA,TRUE,f,f,NA,NA,NA,NA,4,"4,6,2,11,15,3,1,10,13,7,12,5,14,9,8"
14153,commdev-image-keyboard-response,137,393032,learnblock1,907.6000000014901,img/planet5_left.png,5,Community 3,NA,TRUE,f,f,NA,NA,NA,NA,4,"4,6,2,11,15,3,1,10,13,7,12,5,14,9,8"
14153,commdev-image-keyboard-response,138,394284,learnblock1,1162.5999999977648,img/planet9_right.png,9,Community 3,NA,TRUE,j,j,NA,NA,NA,NA,4,"4,6,2,11,15,3,1,10,13,7,12,5,14,9,8"
14153,commdev-image-keyboard-response,139,395536,learnblock1,1103.5,img/planet8_left.png,8,Community 3,NA,TRUE,f,f,NA,NA,NA,NA,4,"4,6,2,11,15,3,1,10,13,7,12,5,14,9,8"
14153,commdev-image-keyboard-response,140,396788,learnblock1,1148,img/planet12_left.png,12,Community 3,NA,TRUE,f,f,NA,NA,NA,NA,4,"4,6,2,11,15,3,1,10,13,7,12,5,14,9,8"
14153,commdev-image-keyboard-response,141,398040,learnblock1,1023.6000000014901,img/planet15_left.png,15,Community 1,NA,TRUE,f,f,NA,NA,NA,NA,4,"4,6,2,11,15,3,1,10,13,7,12,5,14,9,8"
14153,commdev-image-keyboard-response,142,399292,learnblock1,1137.3999999985099,img/planet12_left.png,12,Community 3,NA,TRUE,f,f,NA,NA,NA,NA,4,"4,6,2,11,15,3,1,10,13,7,12,5,14,9,8"
14153,commdev-image-keyboard-response,143,400544,learnblock1,null,img/planet15_left.png,15,Community 1,NA,FALSE,null,f,NA,NA,NA,NA,4,"4,6,2,11,15,3,1,10,13,7,12,5,14,9,8"
14153,commdev-image-keyboard-response,144,401796,learnblock1,796.3000000007451,img/planet2_right.png,2,Community 1,NA,TRUE,j,j,NA,NA,NA,NA,4,"4,6,2,11,15,3,1,10,13,7,12,5,14,9,8"
14153,commdev-image-keyboard-response,145,403048,learnblock1,732.6999999992549,img/planet4_right.png,4,Community 1,NA,TRUE,j,j,NA,NA,NA,NA,4,"4,6,2,11,15,3,1,10,13,7,12,5,14,9,8"
14153,commdev-image-keyboard-response,146,404300,learnblock1,548.5,img/planet2_right.png,2,Community 1,NA,TRUE,j,j,NA,NA,NA,NA,4,"4,6,2,11,15,3,1,10,13,7,12,5,14,9,8"
14153,commdev-image-keyboard-response,147,405552,learnblock1,774.2000000029802,img/planet4_left.png,4,Community 1,NA,TRUE,f,f,NA,NA,NA,NA,4,"4,6,2,11,15,3,1,10,13,7,12,5,14,9,8"
14153,commdev-image-keyboard-response,148,406804,learnblock1,638,img/planet2_right.png,2,Community 1,NA,TRUE,j,j,NA,NA,NA,NA,4,"4,6,2,11,15,3,1,10,13,7,12,5,14,9,8"
14153,commdev-image-keyboard-response,149,408056,learnblock1,1003.7000000029802,img/planet11_right.png,11,Community 1,NA,TRUE,j,j,NA,NA,NA,NA,4,"4,6,2,11,15,3,1,10,13,7,12,5,14,9,8"
14153,commdev-image-keyboard-response,150,409308,learnblock1,716.1000000014901,img/planet2_left.png,2,Community 1,NA,TRUE,f,f,NA,NA,NA,NA,4,"4,6,2,11,15,3,1,10,13,7,12,5,14,9,8"
14153,commdev-image-keyboard-response,151,410560,learnblock1,null,img/planet11_right.png,11,Community 1,NA,FALSE,null,j,NA,NA,NA,NA,4,"4,6,2,11,15,3,1,10,13,7,12,5,14,9,8"
14153,commdev-image-keyboard-response,152,411812,learnblock1,420,img/planet4_left.png,4,Community 1,NA,FALSE,j,f,NA,NA,NA,NA,4,"4,6,2,11,15,3,1,10,13,7,12,5,14,9,8"
14153,commdev-image-keyboard-response,153,413064,learnblock1,466.30000000074506,img/planet2_right.png,2,Community 1,NA,FALSE,f,j,NA,NA,NA,NA,4,"4,6,2,11,15,3,1,10,13,7,12,5,14,9,8"
14153,commdev-image-keyboard-response,154,414316,learnblock1,60.5,img/planet4_right.png,4,Community 1,NA,TRUE,j,j,NA,NA,NA,NA,4,"4,6,2,11,15,3,1,10,13,7,12,5,14,9,8"
14153,commdev-image-keyboard-response,155,415568,learnblock1,137.59999999776483,img/planet2_right.png,2,Community 1,NA,TRUE,j,j,NA,NA,NA,NA,4,"4,6,2,11,15,3,1,10,13,7,12,5,14,9,8"
14153,commdev-image-keyboard-response,156,416820,learnblock1,771.0999999977648,img/planet11_left.png,11,Community 1,NA,TRUE,f,f,NA,NA,NA,NA,4,"4,6,2,11,15,3,1,10,13,7,12,5,14,9,8"
14153,commdev-image-keyboard-response,157,418072,learnblock1,444.5999999977648,img/planet4_left.png,4,Community 1,NA,FALSE,j,f,NA,NA,NA,NA,4,"4,6,2,11,15,3,1,10,13,7,12,5,14,9,8"
14153,commdev-image-keyboard-response,158,419325,learnblock1,822.1999999992549,img/planet6_left.png,6,Community 1,NA,TRUE,f,f,NA,NA,NA,NA,4,"4,6,2,11,15,3,1,10,13,7,12,5,14,9,8"
14153,commdev-image-keyboard-response,159,420577,learnblock1,809,img/planet11_right.png,11,Community 1,NA,TRUE,j,j,NA,NA,NA,NA,4,"4,6,2,11,15,3,1,10,13,7,12,5,14,9,8"
14153,commdev-image-keyboard-response,160,421829,learnblock1,1023.0999999977648,img/planet2_left.png,2,Community 1,NA,TRUE,f,f,NA,NA,NA,NA,4,"4,6,2,11,15,3,1,10,13,7,12,5,14,9,8"
14153,commdev-image-keyboard-response,161,423081,learnblock1,1049.199999999255,img/planet6_left.png,6,Community 1,NA,TRUE,f,f,NA,NA,NA,NA,4,"4,6,2,11,15,3,1,10,13,7,12,5,14,9,8"
14153,commdev-image-keyboard-response,162,424333,learnblock1,514.8000000007451,img/planet15_right.png,15,Community 1,NA,FALSE,f,j,NA,NA,NA,NA,4,"4,6,2,11,15,3,1,10,13,7,12,5,14,9,8"
14153,commdev-image-keyboard-response,163,425585,learnblock1,1121.699999999255,img/planet6_right.png,6,Community 1,NA,FALSE,f,j,NA,NA,NA,NA,4,"4,6,2,11,15,3,1,10,13,7,12,5,14,9,8"
14153,commdev-image-keyboard-response,164,426837,learnblock1,71.20000000298023,img/planet4_left.png,4,Community 1,NA,FALSE,j,f,NA,NA,NA,NA,4,"4,6,2,11,15,3,1,10,13,7,12,5,14,9,8"
14153,commdev-image-keyboard-response,165,428089,learnblock1,628.1999999992549,img/planet2_right.png,2,Community 1,NA,TRUE,j,j,NA,NA,NA,NA,4,"4,6,2,11,15,3,1,10,13,7,12,5,14,9,8"
14153,commdev-image-keyboard-response,166,429341,learnblock1,700,img/planet4_left.png,4,Community 1,NA,TRUE,f,f,NA,NA,NA,NA,4,"4,6,2,11,15,3,1,10,13,7,12,5,14,9,8"
14153,commdev-image-keyboard-response,167,430593,learnblock1,838.3999999985099,img/planet15_left.png,15,Community 1,NA,TRUE,f,f,NA,NA,NA,NA,4,"4,6,2,11,15,3,1,10,13,7,12,5,14,9,8"
14153,commdev-image-keyboard-response,168,431845,learnblock1,699.1000000014901,img/planet2_left.png,2,Community 1,NA,TRUE,f,f,NA,NA,NA,NA,4,"4,6,2,11,15,3,1,10,13,7,12,5,14,9,8"
14153,commdev-image-keyboard-response,169,433098,learnblock1,670.8999999985099,img/planet6_left.png,6,Community 1,NA,TRUE,f,f,NA,NA,NA,NA,4,"4,6,2,11,15,3,1,10,13,7,12,5,14,9,8"
14153,commdev-image-keyboard-response,170,434350,learnblock1,540.8999999985099,img/planet2_left.png,2,Community 1,NA,TRUE,f,f,NA,NA,NA,NA,4,"4,6,2,11,15,3,1,10,13,7,12,5,14,9,8"
14153,commdev-image-keyboard-response,171,435602,learnblock1,796.5,img/planet11_right.png,11,Community 1,NA,TRUE,j,j,NA,NA,NA,NA,4,"4,6,2,11,15,3,1,10,13,7,12,5,14,9,8"
14153,commdev-image-keyboard-response,172,436854,learnblock1,1004.5,img/planet4_left.png,4,Community 1,NA,TRUE,f,f,NA,NA,NA,NA,4,"4,6,2,11,15,3,1,10,13,7,12,5,14,9,8"
14153,commdev-image-keyboard-response,173,438106,learnblock1,781.6000000014901,img/planet15_right.png,15,Community 1,NA,TRUE,j,j,NA,NA,NA,NA,4,"4,6,2,11,15,3,1,10,13,7,12,5,14,9,8"
14153,commdev-image-keyboard-response,174,439360,learnblock1,1083.699999999255,img/planet12_right.png,12,Community 3,NA,TRUE,j,j,NA,NA,NA,NA,4,"4,6,2,11,15,3,1,10,13,7,12,5,14,9,8"
14153,commdev-image-keyboard-response,175,440612,learnblock1,683.1000000014901,img/planet15_left.png,15,Community 1,NA,TRUE,f,f,NA,NA,NA,NA,4,"4,6,2,11,15,3,1,10,13,7,12,5,14,9,8"
14153,commdev-image-keyboard-response,176,441864,learnblock1,638.8999999985099,img/planet2_right.png,2,Community 1,NA,TRUE,j,j,NA,NA,NA,NA,4,"4,6,2,11,15,3,1,10,13,7,12,5,14,9,8"
14153,commdev-image-keyboard-response,177,443116,learnblock1,798.5,img/planet6_right.png,6,Community 1,NA,TRUE,j,j,NA,NA,NA,NA,4,"4,6,2,11,15,3,1,10,13,7,12,5,14,9,8"
14153,commdev-image-keyboard-response,178,444368,learnblock1,888.5,img/planet2_left.png,2,Community 1,NA,TRUE,f,f,NA,NA,NA,NA,4,"4,6,2,11,15,3,1,10,13,7,12,5,14,9,8"
14153,commdev-image-keyboard-response,179,445620,learnblock1,null,img/planet6_right.png,6,Community 1,NA,FALSE,null,j,NA,NA,NA,NA,4,"4,6,2,11,15,3,1,10,13,7,12,5,14,9,8"
14153,commdev-image-keyboard-response,180,446872,learnblock1,226.80000000074506,img/planet2_right.png,2,Community 1,NA,TRUE,j,j,NA,NA,NA,NA,4,"4,6,2,11,15,3,1,10,13,7,12,5,14,9,8"
14153,commdev-image-keyboard-response,181,448124,learnblock1,802.3000000007451,img/planet6_left.png,6,Community 1,NA,FALSE,j,f,NA,NA,NA,NA,4,"4,6,2,11,15,3,1,10,13,7,12,5,14,9,8"
14153,commdev-image-keyboard-response,182,449376,learnblock1,617.1000000014901,img/planet11_left.png,11,Community 1,NA,TRUE,f,f,NA,NA,NA,NA,4,"4,6,2,11,15,3,1,10,13,7,12,5,14,9,8"
14153,commdev-image-keyboard-response,183,450628,learnblock1,1232.8999999985099,img/planet6_left.png,6,Community 1,NA,FALSE,j,f,NA,NA,NA,NA,4,"4,6,2,11,15,3,1,10,13,7,12,5,14,9,8"
14153,commdev-image-keyboard-response,184,451880,learnblock1,844.3000000007451,img/planet11_right.png,11,Community 1,NA,FALSE,f,j,NA,NA,NA,NA,4,"4,6,2,11,15,3,1,10,13,7,12,5,14,9,8"
14153,commdev-image-keyboard-response,185,453132,learnblock1,657.5,img/planet6_left.png,6,Community 1,NA,TRUE,f,f,NA,NA,NA,NA,4,"4,6,2,11,15,3,1,10,13,7,12,5,14,9,8"
14153,commdev-image-keyboard-response,186,454384,learnblock1,null,img/planet11_right.png,11,Community 1,NA,FALSE,null,j,NA,NA,NA,NA,4,"4,6,2,11,15,3,1,10,13,7,12,5,14,9,8"
14153,commdev-image-keyboard-response,187,455636,learnblock1,null,img/planet6_right.png,6,Community 1,NA,FALSE,null,j,NA,NA,NA,NA,4,"4,6,2,11,15,3,1,10,13,7,12,5,14,9,8"
14153,commdev-image-keyboard-response,188,456888,learnblock1,761.5,img/planet2_left.png,2,Community 1,NA,TRUE,f,f,NA,NA,NA,NA,4,"4,6,2,11,15,3,1,10,13,7,12,5,14,9,8"
14153,commdev-image-keyboard-response,189,458140,learnblock1,560.4000000022352,img/planet6_right.png,6,Community 1,NA,TRUE,j,j,NA,NA,NA,NA,4,"4,6,2,11,15,3,1,10,13,7,12,5,14,9,8"
14153,commdev-image-keyboard-response,190,459392,learnblock1,671,img/planet11_left.png,11,Community 1,NA,TRUE,f,f,NA,NA,NA,NA,4,"4,6,2,11,15,3,1,10,13,7,12,5,14,9,8"
14153,commdev-image-keyboard-response,191,460644,learnblock1,null,img/planet3_left.png,3,Community 2,NA,FALSE,null,f,NA,NA,NA,NA,4,"4,6,2,11,15,3,1,10,13,7,12,5,14,9,8"
14153,commdev-image-keyboard-response,192,461896,learnblock1,108.5,img/planet11_left.png,11,Community 1,NA,TRUE,f,f,NA,NA,NA,NA,4,"4,6,2,11,15,3,1,10,13,7,12,5,14,9,8"
14153,commdev-image-keyboard-response,193,463148,learnblock1,596.6000000014901,img/planet2_left.png,2,Community 1,NA,TRUE,f,f,NA,NA,NA,NA,4,"4,6,2,11,15,3,1,10,13,7,12,5,14,9,8"
14153,commdev-image-keyboard-response,194,464400,learnblock1,308,img/planet4_right.png,4,Community 1,NA,FALSE,f,j,NA,NA,NA,NA,4,"4,6,2,11,15,3,1,10,13,7,12,5,14,9,8"
14153,commdev-image-keyboard-response,195,465652,learnblock1,704.0999999977648,img/planet2_right.png,2,Community 1,NA,TRUE,j,j,NA,NA,NA,NA,4,"4,6,2,11,15,3,1,10,13,7,12,5,14,9,8"
14153,commdev-image-keyboard-response,196,466904,learnblock1,611.6000000014901,img/planet6_right.png,6,Community 1,NA,TRUE,j,j,NA,NA,NA,NA,4,"4,6,2,11,15,3,1,10,13,7,12,5,14,9,8"
14153,commdev-image-keyboard-response,197,468156,learnblock1,562.8000000007451,img/planet4_left.png,4,Community 1,NA,FALSE,j,f,NA,NA,NA,NA,4,"4,6,2,11,15,3,1,10,13,7,12,5,14,9,8"
14153,commdev-image-keyboard-response,198,469408,learnblock1,745.5,img/planet15_left.png,15,Community 1,NA,FALSE,j,f,NA,NA,NA,NA,4,"4,6,2,11,15,3,1,10,13,7,12,5,14,9,8"
14153,commdev-image-keyboard-response,199,470660,learnblock1,263.1000000014901,img/planet4_right.png,4,Community 1,NA,FALSE,f,j,NA,NA,NA,NA,4,"4,6,2,11,15,3,1,10,13,7,12,5,14,9,8"
14153,commdev-image-keyboard-response,200,471912,learnblock1,null,img/planet11_right.png,11,Community 1,NA,FALSE,null,j,NA,NA,NA,NA,4,"4,6,2,11,15,3,1,10,13,7,12,5,14,9,8"
14153,commdev-image-keyboard-response,201,473164,learnblock1,null,img/planet4_left.png,4,Community 1,NA,FALSE,null,f,NA,NA,NA,NA,4,"4,6,2,11,15,3,1,10,13,7,12,5,14,9,8"
14153,commdev-image-keyboard-response,202,474416,learnblock1,null,img/planet15_left.png,15,Community 1,NA,FALSE,null,f,NA,NA,NA,NA,4,"4,6,2,11,15,3,1,10,13,7,12,5,14,9,8"
14153,commdev-image-keyboard-response,203,475668,learnblock1,268.8999999985099,img/planet6_left.png,6,Community 1,NA,TRUE,f,f,NA,NA,NA,NA,4,"4,6,2,11,15,3,1,10,13,7,12,5,14,9,8"
14153,commdev-image-keyboard-response,204,476920,learnblock1,285.79999999701977,img/planet15_right.png,15,Community 1,NA,FALSE,f,j,NA,NA,NA,NA,4,"4,6,2,11,15,3,1,10,13,7,12,5,14,9,8"
14153,commdev-image-keyboard-response,205,478172,learnblock1,688.0999999977648,img/planet12_left.png,12,Community 3,NA,TRUE,f,f,NA,NA,NA,NA,4,"4,6,2,11,15,3,1,10,13,7,12,5,14,9,8"
14153,commdev-image-keyboard-response,206,479424,learnblock1,784.1000000014901,img/planet15_right.png,15,Community 1,NA,TRUE,j,j,NA,NA,NA,NA,4,"4,6,2,11,15,3,1,10,13,7,12,5,14,9,8"
14153,commdev-image-keyboard-response,207,480676,learnblock1,1154.5999999977648,img/planet12_right.png,12,Community 3,NA,TRUE,j,j,NA,NA,NA,NA,4,"4,6,2,11,15,3,1,10,13,7,12,5,14,9,8"
14153,commdev-image-keyboard-response,208,481928,learnblock1,961.5999999977648,img/planet15_right.png,15,Community 1,NA,TRUE,j,j,NA,NA,NA,NA,4,"4,6,2,11,15,3,1,10,13,7,12,5,14,9,8"
14153,commdev-image-keyboard-response,209,483180,learnblock1,1062.800000000745,img/planet2_right.png,2,Community 1,NA,TRUE,j,j,NA,NA,NA,NA,4,"4,6,2,11,15,3,1,10,13,7,12,5,14,9,8"
14153,commdev-image-keyboard-response,210,484432,learnblock1,null,img/planet11_left.png,11,Community 1,NA,FALSE,null,f,NA,NA,NA,NA,4,"4,6,2,11,15,3,1,10,13,7,12,5,14,9,8"
14153,commdev-image-keyboard-response,211,485684,learnblock1,397,img/planet6_left.png,6,Community 1,NA,FALSE,j,f,NA,NA,NA,NA,4,"4,6,2,11,15,3,1,10,13,7,12,5,14,9,8"
14153,commdev-image-keyboard-response,212,486936,learnblock1,847.4000000022352,img/planet15_left.png,15,Community 1,NA,TRUE,f,f,NA,NA,NA,NA,4,"4,6,2,11,15,3,1,10,13,7,12,5,14,9,8"
14153,commdev-image-keyboard-response,213,488188,learnblock1,746.4000000022352,img/planet2_left.png,2,Community 1,NA,TRUE,f,f,NA,NA,NA,NA,4,"4,6,2,11,15,3,1,10,13,7,12,5,14,9,8"
14153,commdev-image-keyboard-response,214,489440,learnblock1,668.0999999977648,img/planet4_right.png,4,Community 1,NA,TRUE,j,j,NA,NA,NA,NA,4,"4,6,2,11,15,3,1,10,13,7,12,5,14,9,8"
14153,commdev-image-keyboard-response,215,490692,learnblock1,819.6000000014901,img/planet6_right.png,6,Community 1,NA,TRUE,j,j,NA,NA,NA,NA,4,"4,6,2,11,15,3,1,10,13,7,12,5,14,9,8"
14153,commdev-image-keyboard-response,216,491944,learnblock1,866.3000000007451,img/planet11_right.png,11,Community 1,NA,TRUE,j,j,NA,NA,NA,NA,4,"4,6,2,11,15,3,1,10,13,7,12,5,14,9,8"
14153,commdev-image-keyboard-response,217,493196,learnblock1,716.8000000007451,img/planet3_right.png,3,Community 2,NA,TRUE,j,j,NA,NA,NA,NA,4,"4,6,2,11,15,3,1,10,13,7,12,5,14,9,8"
14153,commdev-image-keyboard-response,218,494448,learnblock1,917.6999999992549,img/planet13_left.png,13,Community 2,NA,TRUE,f,f,NA,NA,NA,NA,4,"4,6,2,11,15,3,1,10,13,7,12,5,14,9,8"
14153,commdev-image-keyboard-response,219,495700,learnblock1,969.4000000022352,img/planet10_right.png,10,Community 2,NA,TRUE,j,j,NA,NA,NA,NA,4,"4,6,2,11,15,3,1,10,13,7,12,5,14,9,8"
14153,commdev-image-keyboard-response,220,496952,learnblock1,null,img/planet1_right.png,1,Community 2,NA,FALSE,null,j,NA,NA,NA,NA,4,"4,6,2,11,15,3,1,10,13,7,12,5,14,9,8"
14153,commdev-image-keyboard-response,221,498204,learnblock1,571.9000000022352,img/planet7_right.png,7,Community 2,NA,TRUE,j,j,NA,NA,NA,NA,4,"4,6,2,11,15,3,1,10,13,7,12,5,14,9,8"
14153,commdev-image-keyboard-response,222,499457,learnblock1,762.4000000022352,img/planet3_left.png,3,Community 2,NA,TRUE,f,f,NA,NA,NA,NA,4,"4,6,2,11,15,3,1,10,13,7,12,5,14,9,8"
14153,commdev-image-keyboard-response,223,500709,learnblock1,77.59999999776483,img/planet11_left.png,11,Community 1,NA,FALSE,j,f,NA,NA,NA,NA,4,"4,6,2,11,15,3,1,10,13,7,12,5,14,9,8"
14153,commdev-image-keyboard-response,224,501961,learnblock1,228.19999999925494,img/planet3_right.png,3,Community 2,NA,FALSE,f,j,NA,NA,NA,NA,4,"4,6,2,11,15,3,1,10,13,7,12,5,14,9,8"
14153,commdev-image-keyboard-response,225,503213,learnblock1,23.400000002235174,img/planet13_left.png,13,Community 2,NA,FALSE,j,f,NA,NA,NA,NA,4,"4,6,2,11,15,3,1,10,13,7,12,5,14,9,8"
14153,commdev-image-keyboard-response,226,504465,learnblock1,188.20000000298023,img/planet1_right.png,1,Community 2,NA,TRUE,j,j,NA,NA,NA,NA,4,"4,6,2,11,15,3,1,10,13,7,12,5,14,9,8"
14153,commdev-image-keyboard-response,227,505717,learnblock1,61.899999998509884,img/planet3_right.png,3,Community 2,NA,FALSE,f,j,NA,NA,NA,NA,4,"4,6,2,11,15,3,1,10,13,7,12,5,14,9,8"
14153,commdev-image-keyboard-response,228,506969,learnblock1,389.30000000074506,img/planet1_right.png,1,Community 2,NA,FALSE,f,j,NA,NA,NA,NA,4,"4,6,2,11,15,3,1,10,13,7,12,5,14,9,8"
14153,commdev-image-keyboard-response,229,508221,learnblock1,370.8999999985099,img/planet13_left.png,13,Community 2,NA,TRUE,f,f,NA,NA,NA,NA,4,"4,6,2,11,15,3,1,10,13,7,12,5,14,9,8"
14153,commdev-image-keyboard-response,230,509473,learnblock1,236.10000000149012,img/planet10_right.png,10,Community 2,NA,FALSE,f,j,NA,NA,NA,NA,4,"4,6,2,11,15,3,1,10,13,7,12,5,14,9,8"
14153,commdev-image-keyboard-response,231,510725,learnblock1,377.20000000298023,img/planet13_left.png,13,Community 2,NA,TRUE,f,f,NA,NA,NA,NA,4,"4,6,2,11,15,3,1,10,13,7,12,5,14,9,8"
14153,commdev-image-keyboard-response,232,511977,learnblock1,362.6000000014901,img/planet7_left.png,7,Community 2,NA,FALSE,j,f,NA,NA,NA,NA,4,"4,6,2,11,15,3,1,10,13,7,12,5,14,9,8"
14153,commdev-image-keyboard-response,233,513229,learnblock1,321.70000000298023,img/planet1_left.png,1,Community 2,NA,TRUE,f,f,NA,NA,NA,NA,4,"4,6,2,11,15,3,1,10,13,7,12,5,14,9,8"
14153,commdev-image-keyboard-response,234,514481,learnblock1,342.0999999977648,img/planet7_right.png,7,Community 2,NA,TRUE,j,j,NA,NA,NA,NA,4,"4,6,2,11,15,3,1,10,13,7,12,5,14,9,8"
14153,commdev-image-keyboard-response,235,515733,learnblock1,479.9000000022352,img/planet3_right.png,3,Community 2,NA,FALSE,f,j,NA,NA,NA,NA,4,"4,6,2,11,15,3,1,10,13,7,12,5,14,9,8"
14153,commdev-image-keyboard-response,236,516985,learnblock1,766.6000000014901,img/planet1_left.png,1,Community 2,NA,FALSE,j,f,NA,NA,NA,NA,4,"4,6,2,11,15,3,1,10,13,7,12,5,14,9,8"
14153,commdev-image-keyboard-response,237,518237,learnblock1,129.40000000223517,img/planet10_left.png,10,Community 2,NA,TRUE,f,f,NA,NA,NA,NA,4,"4,6,2,11,15,3,1,10,13,7,12,5,14,9,8"
14153,commdev-image-keyboard-response,238,519489,learnblock1,null,img/planet5_right.png,5,Community 3,NA,FALSE,null,j,NA,NA,NA,NA,4,"4,6,2,11,15,3,1,10,13,7,12,5,14,9,8"
14153,commdev-image-keyboard-response,239,520741,learnblock1,null,img/planet10_left.png,10,Community 2,NA,FALSE,null,f,NA,NA,NA,NA,4,"4,6,2,11,15,3,1,10,13,7,12,5,14,9,8"
14153,commdev-image-keyboard-response,240,521993,learnblock1,null,img/planet13_right.png,13,Community 2,NA,FALSE,null,j,NA,NA,NA,NA,4,"4,6,2,11,15,3,1,10,13,7,12,5,14,9,8"
14153,commdev-image-keyboard-response,241,523246,learnblock1,null,img/planet10_left.png,10,Community 2,NA,FALSE,null,f,NA,NA,NA,NA,4,"4,6,2,11,15,3,1,10,13,7,12,5,14,9,8"
14153,commdev-image-keyboard-response,242,524497,learnblock1,null,img/planet1_right.png,1,Community 2,NA,FALSE,null,j,NA,NA,NA,NA,4,"4,6,2,11,15,3,1,10,13,7,12,5,14,9,8"
14153,commdev-image-keyboard-response,243,525749,learnblock1,null,img/planet13_right.png,13,Community 2,NA,FALSE,null,j,NA,NA,NA,NA,4,"4,6,2,11,15,3,1,10,13,7,12,5,14,9,8"
14153,commdev-image-keyboard-response,244,527001,learnblock1,231,img/planet7_right.png,7,Community 2,NA,FALSE,f,j,NA,NA,NA,NA,4,"4,6,2,11,15,3,1,10,13,7,12,5,14,9,8"
14153,commdev-image-keyboard-response,245,528253,learnblock1,941,img/planet1_right.png,1,Community 2,NA,TRUE,j,j,NA,NA,NA,NA,4,"4,6,2,11,15,3,1,10,13,7,12,5,14,9,8"
14153,commdev-image-keyboard-response,246,529505,learnblock1,413.5,img/planet13_left.png,13,Community 2,NA,TRUE,f,f,NA,NA,NA,NA,4,"4,6,2,11,15,3,1,10,13,7,12,5,14,9,8"
14153,commdev-image-keyboard-response,247,530757,learnblock1,632.0999999977648,img/planet10_right.png,10,Community 2,NA,TRUE,j,j,NA,NA,NA,NA,4,"4,6,2,11,15,3,1,10,13,7,12,5,14,9,8"
14153,commdev-image-keyboard-response,248,532009,learnblock1,903.9000000022352,img/planet7_left.png,7,Community 2,NA,TRUE,f,f,NA,NA,NA,NA,4,"4,6,2,11,15,3,1,10,13,7,12,5,14,9,8"
14153,commdev-image-keyboard-response,249,533261,learnblock1,566,img/planet10_right.png,10,Community 2,NA,TRUE,j,j,NA,NA,NA,NA,4,"4,6,2,11,15,3,1,10,13,7,12,5,14,9,8"
14153,commdev-image-keyboard-response,250,534514,learnblock1,455.30000000074506,img/planet13_left.png,13,Community 2,NA,TRUE,f,f,NA,NA,NA,NA,4,"4,6,2,11,15,3,1,10,13,7,12,5,14,9,8"
14153,commdev-image-keyboard-response,251,535765,learnblock1,592.1000000014901,img/planet3_left.png,3,Community 2,NA,FALSE,j,f,NA,NA,NA,NA,4,"4,6,2,11,15,3,1,10,13,7,12,5,14,9,8"
14153,commdev-image-keyboard-response,252,537018,learnblock1,null,img/planet1_right.png,1,Community 2,NA,FALSE,null,j,NA,NA,NA,NA,4,"4,6,2,11,15,3,1,10,13,7,12,5,14,9,8"
14153,commdev-image-keyboard-response,253,538270,learnblock1,904.8000000007451,img/planet13_right.png,13,Community 2,NA,FALSE,f,j,NA,NA,NA,NA,4,"4,6,2,11,15,3,1,10,13,7,12,5,14,9,8"
14153,commdev-image-keyboard-response,254,539522,learnblock1,566.0999999977648,img/planet10_right.png,10,Community 2,NA,TRUE,j,j,NA,NA,NA,NA,4,"4,6,2,11,15,3,1,10,13,7,12,5,14,9,8"
14153,commdev-image-keyboard-response,255,540774,learnblock1,409.5999999977648,img/planet7_left.png,7,Community 2,NA,FALSE,j,f,NA,NA,NA,NA,4,"4,6,2,11,15,3,1,10,13,7,12,5,14,9,8"
14153,commdev-image-keyboard-response,256,542026,learnblock1,691.1999999992549,img/planet13_right.png,13,Community 2,NA,TRUE,j,j,NA,NA,NA,NA,4,"4,6,2,11,15,3,1,10,13,7,12,5,14,9,8"
14153,commdev-image-keyboard-response,257,543278,learnblock1,305.19999999925494,img/planet10_right.png,10,Community 2,NA,FALSE,f,j,NA,NA,NA,NA,4,"4,6,2,11,15,3,1,10,13,7,12,5,14,9,8"
14153,commdev-image-keyboard-response,258,544530,learnblock1,null,img/planet1_left.png,1,Community 2,NA,FALSE,null,f,NA,NA,NA,NA,4,"4,6,2,11,15,3,1,10,13,7,12,5,14,9,8"
14153,commdev-image-keyboard-response,259,545782,learnblock1,773.6000000014901,img/planet10_left.png,10,Community 2,NA,TRUE,f,f,NA,NA,NA,NA,4,"4,6,2,11,15,3,1,10,13,7,12,5,14,9,8"
14153,commdev-image-keyboard-response,260,547034,learnblock1,364.80000000074506,img/planet5_left.png,5,Community 3,NA,TRUE,f,f,NA,NA,NA,NA,4,"4,6,2,11,15,3,1,10,13,7,12,5,14,9,8"
14153,commdev-image-keyboard-response,261,548286,learnblock1,null,img/planet10_right.png,10,Community 2,NA,FALSE,null,j,NA,NA,NA,NA,4,"4,6,2,11,15,3,1,10,13,7,12,5,14,9,8"
14153,commdev-image-keyboard-response,262,549538,learnblock1,255.40000000223517,img/planet5_left.png,5,Community 3,NA,FALSE,j,f,NA,NA,NA,NA,4,"4,6,2,11,15,3,1,10,13,7,12,5,14,9,8"
14153,commdev-image-keyboard-response,263,550790,learnblock1,10.099999997764826,img/planet9_right.png,9,Community 3,NA,FALSE,f,j,NA,NA,NA,NA,4,"4,6,2,11,15,3,1,10,13,7,12,5,14,9,8"
14153,commdev-image-keyboard-response,264,552042,learnblock1,null,img/planet8_left.png,8,Community 3,NA,FALSE,null,f,NA,NA,NA,NA,4,"4,6,2,11,15,3,1,10,13,7,12,5,14,9,8"
14153,commdev-image-keyboard-response,265,553294,learnblock1,null,img/planet9_left.png,9,Community 3,NA,FALSE,null,f,NA,NA,NA,NA,4,"4,6,2,11,15,3,1,10,13,7,12,5,14,9,8"
14153,commdev-image-keyboard-response,266,554546,learnblock1,null,img/planet12_right.png,12,Community 3,NA,FALSE,null,j,NA,NA,NA,NA,4,"4,6,2,11,15,3,1,10,13,7,12,5,14,9,8"
14153,commdev-image-keyboard-response,267,555798,learnblock1,null,img/planet14_left.png,14,Community 3,NA,FALSE,null,f,NA,NA,NA,NA,4,"4,6,2,11,15,3,1,10,13,7,12,5,14,9,8"
14153,commdev-image-keyboard-response,268,557050,learnblock1,1081.0999999977648,img/planet9_right.png,9,Community 3,NA,FALSE,f,j,NA,NA,NA,NA,4,"4,6,2,11,15,3,1,10,13,7,12,5,14,9,8"
14153,commdev-image-keyboard-response,269,558302,learnblock1,75.90000000223517,img/planet14_left.png,14,Community 3,NA,FALSE,j,f,NA,NA,NA,NA,4,"4,6,2,11,15,3,1,10,13,7,12,5,14,9,8"
14153,commdev-image-keyboard-response,270,559554,learnblock1,1002.3000000007451,img/planet8_right.png,8,Community 3,NA,TRUE,j,j,NA,NA,NA,NA,4,"4,6,2,11,15,3,1,10,13,7,12,5,14,9,8"
14153,commdev-image-keyboard-response,271,560807,learnblock1,616,img/planet12_right.png,12,Community 3,NA,TRUE,j,j,NA,NA,NA,NA,4,"4,6,2,11,15,3,1,10,13,7,12,5,14,9,8"
14153,commdev-image-keyboard-response,272,562059,learnblock1,748.9000000022352,img/planet9_right.png,9,Community 3,NA,TRUE,j,j,NA,NA,NA,NA,4,"4,6,2,11,15,3,1,10,13,7,12,5,14,9,8"
14153,commdev-image-keyboard-response,273,563311,learnblock1,821.5,img/planet5_right.png,5,Community 3,NA,TRUE,j,j,NA,NA,NA,NA,4,"4,6,2,11,15,3,1,10,13,7,12,5,14,9,8"
14153,commdev-image-keyboard-response,274,564563,learnblock1,945,img/planet8_left.png,8,Community 3,NA,TRUE,f,f,NA,NA,NA,NA,4,"4,6,2,11,15,3,1,10,13,7,12,5,14,9,8"
14153,commdev-image-keyboard-response,275,565815,learnblock1,712,img/planet12_left.png,12,Community 3,NA,TRUE,f,f,NA,NA,NA,NA,4,"4,6,2,11,15,3,1,10,13,7,12,5,14,9,8"
14153,commdev-image-keyboard-response,276,567068,learnblock1,659.8999999985099,img/planet9_left.png,9,Community 3,NA,TRUE,f,f,NA,NA,NA,NA,4,"4,6,2,11,15,3,1,10,13,7,12,5,14,9,8"
14153,commdev-image-keyboard-response,277,568320,learnblock1,793.0999999977648,img/planet8_left.png,8,Community 3,NA,TRUE,f,f,NA,NA,NA,NA,4,"4,6,2,11,15,3,1,10,13,7,12,5,14,9,8"
14153,commdev-image-keyboard-response,278,569572,learnblock1,null,img/planet9_right.png,9,Community 3,NA,FALSE,null,j,NA,NA,NA,NA,4,"4,6,2,11,15,3,1,10,13,7,12,5,14,9,8"
14153,commdev-image-keyboard-response,279,570824,learnblock1,null,img/planet12_left.png,12,Community 3,NA,FALSE,null,f,NA,NA,NA,NA,4,"4,6,2,11,15,3,1,10,13,7,12,5,14,9,8"
14153,commdev-image-keyboard-response,280,572076,learnblock1,146.69999999925494,img/planet15_right.png,15,Community 1,NA,FALSE,f,j,NA,NA,NA,NA,4,"4,6,2,11,15,3,1,10,13,7,12,5,14,9,8"
14153,commdev-image-keyboard-response,281,573328,learnblock1,115.5,img/planet12_right.png,12,Community 3,NA,FALSE,f,j,NA,NA,NA,NA,4,"4,6,2,11,15,3,1,10,13,7,12,5,14,9,8"
14153,commdev-image-keyboard-response,282,574580,learnblock1,null,img/planet8_right.png,8,Community 3,NA,FALSE,null,j,NA,NA,NA,NA,4,"4,6,2,11,15,3,1,10,13,7,12,5,14,9,8"
14153,commdev-image-keyboard-response,283,575832,learnblock1,792.7000000029802,img/planet12_left.png,12,Community 3,NA,TRUE,f,f,NA,NA,NA,NA,4,"4,6,2,11,15,3,1,10,13,7,12,5,14,9,8"
14153,commdev-image-keyboard-response,284,577084,learnblock1,247.80000000074506,img/planet8_right.png,8,Community 3,NA,TRUE,j,j,NA,NA,NA,NA,4,"4,6,2,11,15,3,1,10,13,7,12,5,14,9,8"
14153,commdev-image-keyboard-response,285,578336,learnblock1,null,img/planet12_right.png,12,Community 3,NA,FALSE,null,j,NA,NA,NA,NA,4,"4,6,2,11,15,3,1,10,13,7,12,5,14,9,8"
14153,commdev-image-keyboard-response,286,579588,learnblock1,null,img/planet8_right.png,8,Community 3,NA,FALSE,null,j,NA,NA,NA,NA,4,"4,6,2,11,15,3,1,10,13,7,12,5,14,9,8"
14153,commdev-image-keyboard-response,287,580840,learnblock1,null,img/planet5_left.png,5,Community 3,NA,FALSE,null,f,NA,NA,NA,NA,4,"4,6,2,11,15,3,1,10,13,7,12,5,14,9,8"
14153,commdev-image-keyboard-response,288,582093,learnblock1,1239.8999999985099,img/planet14_right.png,14,Community 3,NA,FALSE,f,j,NA,NA,NA,NA,4,"4,6,2,11,15,3,1,10,13,7,12,5,14,9,8"
14153,commdev-image-keyboard-response,289,583345,learnblock1,null,img/planet9_right.png,9,Community 3,NA,FALSE,null,j,NA,NA,NA,NA,4,"4,6,2,11,15,3,1,10,13,7,12,5,14,9,8"
14153,commdev-image-keyboard-response,290,584597,learnblock1,829.1000000014901,img/planet12_right.png,12,Community 3,NA,FALSE,f,j,NA,NA,NA,NA,4,"4,6,2,11,15,3,1,10,13,7,12,5,14,9,8"
14153,commdev-image-keyboard-response,291,585849,learnblock1,817.6999999992549,img/planet9_right.png,9,Community 3,NA,TRUE,j,j,NA,NA,NA,NA,4,"4,6,2,11,15,3,1,10,13,7,12,5,14,9,8"
14153,commdev-image-keyboard-response,292,587101,learnblock1,876.6000000014901,img/planet5_left.png,5,Community 3,NA,TRUE,f,f,NA,NA,NA,NA,4,"4,6,2,11,15,3,1,10,13,7,12,5,14,9,8"
14153,commdev-image-keyboard-response,293,588353,learnblock1,668.6999999992549,img/planet14_left.png,14,Community 3,NA,FALSE,j,f,NA,NA,NA,NA,4,"4,6,2,11,15,3,1,10,13,7,12,5,14,9,8"
14153,commdev-image-keyboard-response,294,589605,learnblock1,null,img/planet12_right.png,12,Community 3,NA,FALSE,null,j,NA,NA,NA,NA,4,"4,6,2,11,15,3,1,10,13,7,12,5,14,9,8"
14153,commdev-image-keyboard-response,295,590857,learnblock1,673.3000000007451,img/planet9_left.png,9,Community 3,NA,TRUE,f,f,NA,NA,NA,NA,4,"4,6,2,11,15,3,1,10,13,7,12,5,14,9,8"
14153,commdev-image-keyboard-response,296,592109,learnblock1,777.3000000007451,img/planet12_left.png,12,Community 3,NA,TRUE,f,f,NA,NA,NA,NA,4,"4,6,2,11,15,3,1,10,13,7,12,5,14,9,8"
14153,commdev-image-keyboard-response,297,593361,learnblock1,1082.699999999255,img/planet8_left.png,8,Community 3,NA,TRUE,f,f,NA,NA,NA,NA,4,"4,6,2,11,15,3,1,10,13,7,12,5,14,9,8"
14153,commdev-image-keyboard-response,298,594613,learnblock1,1121.4000000022352,img/planet5_right.png,5,Community 3,NA,TRUE,j,j,NA,NA,NA,NA,4,"4,6,2,11,15,3,1,10,13,7,12,5,14,9,8"
14153,commdev-image-keyboard-response,299,595866,learnblock1,902.3000000007451,img/planet9_left.png,9,Community 3,NA,TRUE,f,f,NA,NA,NA,NA,4,"4,6,2,11,15,3,1,10,13,7,12,5,14,9,8"
14153,commdev-image-keyboard-response,300,597118,learnblock1,653.5,img/planet5_right.png,5,Community 3,NA,TRUE,j,j,NA,NA,NA,NA,4,"4,6,2,11,15,3,1,10,13,7,12,5,14,9,8"
14153,commdev-image-keyboard-response,301,598370,learnblock1,null,img/planet14_left.png,14,Community 3,NA,FALSE,null,f,NA,NA,NA,NA,4,"4,6,2,11,15,3,1,10,13,7,12,5,14,9,8"
14153,commdev-image-keyboard-response,302,599622,learnblock1,435.30000000074506,img/planet9_left.png,9,Community 3,NA,TRUE,f,f,NA,NA,NA,NA,4,"4,6,2,11,15,3,1,10,13,7,12,5,14,9,8"
14153,commdev-image-keyboard-response,303,600874,learnblock1,9,img/planet5_right.png,5,Community 3,NA,FALSE,f,j,NA,NA,NA,NA,4,"4,6,2,11,15,3,1,10,13,7,12,5,14,9,8"
14153,commdev-image-keyboard-response,304,602127,learnblock1,28.700000002980232,img/planet8_left.png,8,Community 3,NA,TRUE,f,f,NA,NA,NA,NA,4,"4,6,2,11,15,3,1,10,13,7,12,5,14,9,8"
14153,commdev-image-keyboard-response,305,603379,learnblock1,null,img/planet12_left.png,12,Community 3,NA,FALSE,null,f,NA,NA,NA,NA,4,"4,6,2,11,15,3,1,10,13,7,12,5,14,9,8"
14153,commdev-image-keyboard-response,306,604631,learnblock1,null,img/planet14_left.png,14,Community 3,NA,FALSE,null,f,NA,NA,NA,NA,4,"4,6,2,11,15,3,1,10,13,7,12,5,14,9,8"
14153,commdev-image-keyboard-response,307,605883,learnblock1,null,img/planet12_left.png,12,Community 3,NA,FALSE,null,f,NA,NA,NA,NA,4,"4,6,2,11,15,3,1,10,13,7,12,5,14,9,8"
14153,commdev-image-keyboard-response,308,607135,learnblock1,50.5,img/planet15_right.png,15,Community 1,NA,TRUE,j,j,NA,NA,NA,NA,4,"4,6,2,11,15,3,1,10,13,7,12,5,14,9,8"
14153,commdev-image-keyboard-response,309,608387,learnblock1,539.3999999985099,img/planet12_right.png,12,Community 3,NA,TRUE,j,j,NA,NA,NA,NA,4,"4,6,2,11,15,3,1,10,13,7,12,5,14,9,8"
14153,commdev-image-keyboard-response,310,609639,learnblock1,150.39999999850988,img/planet14_left.png,14,Community 3,NA,FALSE,j,f,NA,NA,NA,NA,4,"4,6,2,11,15,3,1,10,13,7,12,5,14,9,8"
14153,commdev-image-keyboard-response,311,610892,learnblock1,548.6999999992549,img/planet9_left.png,9,Community 3,NA,FALSE,j,f,NA,NA,NA,NA,4,"4,6,2,11,15,3,1,10,13,7,12,5,14,9,8"
14153,commdev-image-keyboard-response,312,612143,learnblock1,1008.7000000029802,img/planet12_right.png,12,Community 3,NA,TRUE,j,j,NA,NA,NA,NA,4,"4,6,2,11,15,3,1,10,13,7,12,5,14,9,8"
14153,commdev-image-keyboard-response,313,613396,learnblock1,911.6999999992549,img/planet14_right.png,14,Community 3,NA,FALSE,f,j,NA,NA,NA,NA,4,"4,6,2,11,15,3,1,10,13,7,12,5,14,9,8"
14153,commdev-image-keyboard-response,314,614648,learnblock1,960.8000000007451,img/planet9_right.png,9,Community 3,NA,TRUE,j,j,NA,NA,NA,NA,4,"4,6,2,11,15,3,1,10,13,7,12,5,14,9,8"
14153,commdev-image-keyboard-response,315,615900,learnblock1,null,img/planet12_right.png,12,Community 3,NA,FALSE,null,j,NA,NA,NA,NA,4,"4,6,2,11,15,3,1,10,13,7,12,5,14,9,8"
14153,commdev-image-keyboard-response,316,617152,learnblock1,null,img/planet15_left.png,15,Community 1,NA,FALSE,null,f,NA,NA,NA,NA,4,"4,6,2,11,15,3,1,10,13,7,12,5,14,9,8"
14153,commdev-image-keyboard-response,317,618404,learnblock1,null,img/planet12_right.png,12,Community 3,NA,FALSE,null,j,NA,NA,NA,NA,4,"4,6,2,11,15,3,1,10,13,7,12,5,14,9,8"
14153,commdev-image-keyboard-response,318,619656,learnblock1,null,img/planet14_left.png,14,Community 3,NA,FALSE,null,f,NA,NA,NA,NA,4,"4,6,2,11,15,3,1,10,13,7,12,5,14,9,8"
14153,commdev-image-keyboard-response,319,620908,learnblock1,null,img/planet5_left.png,5,Community 3,NA,FALSE,null,f,NA,NA,NA,NA,4,"4,6,2,11,15,3,1,10,13,7,12,5,14,9,8"
14153,commdev-image-keyboard-response,320,622160,learnblock1,null,img/planet10_right.png,10,Community 2,NA,FALSE,null,j,NA,NA,NA,NA,4,"4,6,2,11,15,3,1,10,13,7,12,5,14,9,8"
14153,commdev-image-keyboard-response,321,623412,learnblock1,null,img/planet13_right.png,13,Community 2,NA,FALSE,null,j,NA,NA,NA,NA,4,"4,6,2,11,15,3,1,10,13,7,12,5,14,9,8"
14153,commdev-image-keyboard-response,322,624664,learnblock1,98.89999999850988,img/planet3_left.png,3,Community 2,NA,TRUE,f,f,NA,NA,NA,NA,4,"4,6,2,11,15,3,1,10,13,7,12,5,14,9,8"
14153,commdev-image-keyboard-response,323,625916,learnblock1,658.7999999970198,img/planet11_right.png,11,Community 1,NA,TRUE,j,j,NA,NA,NA,NA,4,"4,6,2,11,15,3,1,10,13,7,12,5,14,9,8"
14153,commdev-image-keyboard-response,324,627168,learnblock1,null,img/planet6_right.png,6,Community 1,NA,FALSE,null,j,NA,NA,NA,NA,4,"4,6,2,11,15,3,1,10,13,7,12,5,14,9,8"
14153,commdev-image-keyboard-response,325,628420,learnblock1,null,img/planet4_right.png,4,Community 1,NA,FALSE,null,j,NA,NA,NA,NA,4,"4,6,2,11,15,3,1,10,13,7,12,5,14,9,8"
14153,commdev-image-keyboard-response,326,629672,learnblock1,null,img/planet15_right.png,15,Community 1,NA,FALSE,null,j,NA,NA,NA,NA,4,"4,6,2,11,15,3,1,10,13,7,12,5,14,9,8"
14153,commdev-image-keyboard-response,327,630924,learnblock1,null,img/planet12_right.png,12,Community 3,NA,FALSE,null,j,NA,NA,NA,NA,4,"4,6,2,11,15,3,1,10,13,7,12,5,14,9,8"
14153,commdev-image-keyboard-response,328,632176,learnblock1,null,img/planet9_left.png,9,Community 3,NA,FALSE,null,f,NA,NA,NA,NA,4,"4,6,2,11,15,3,1,10,13,7,12,5,14,9,8"
14153,commdev-image-keyboard-response,329,633428,learnblock1,null,img/planet8_right.png,8,Community 3,NA,FALSE,null,j,NA,NA,NA,NA,4,"4,6,2,11,15,3,1,10,13,7,12,5,14,9,8"
14153,commdev-image-keyboard-response,330,634680,learnblock1,null,img/planet9_left.png,9,Community 3,NA,FALSE,null,f,NA,NA,NA,NA,4,"4,6,2,11,15,3,1,10,13,7,12,5,14,9,8"
14153,commdev-image-keyboard-response,331,635932,learnblock1,null,img/planet12_left.png,12,Community 3,NA,FALSE,null,f,NA,NA,NA,NA,4,"4,6,2,11,15,3,1,10,13,7,12,5,14,9,8"
14153,commdev-image-keyboard-response,332,637184,learnblock1,null,img/planet15_right.png,15,Community 1,NA,FALSE,null,j,NA,NA,NA,NA,4,"4,6,2,11,15,3,1,10,13,7,12,5,14,9,8"
14153,commdev-image-keyboard-response,333,638436,learnblock1,null,img/planet2_left.png,2,Community 1,NA,FALSE,null,f,NA,NA,NA,NA,4,"4,6,2,11,15,3,1,10,13,7,12,5,14,9,8"
14153,commdev-image-keyboard-response,334,639688,learnblock1,null,img/planet15_right.png,15,Community 1,NA,FALSE,null,j,NA,NA,NA,NA,4,"4,6,2,11,15,3,1,10,13,7,12,5,14,9,8"
14153,commdev-image-keyboard-response,335,640940,learnblock1,null,img/planet6_right.png,6,Community 1,NA,FALSE,null,j,NA,NA,NA,NA,4,"4,6,2,11,15,3,1,10,13,7,12,5,14,9,8"
14153,commdev-image-keyboard-response,336,642192,learnblock1,null,img/planet2_left.png,2,Community 1,NA,FALSE,null,f,NA,NA,NA,NA,4,"4,6,2,11,15,3,1,10,13,7,12,5,14,9,8"
14153,commdev-image-keyboard-response,337,643444,learnblock1,null,img/planet6_left.png,6,Community 1,NA,FALSE,null,f,NA,NA,NA,NA,4,"4,6,2,11,15,3,1,10,13,7,12,5,14,9,8"
14153,commdev-image-keyboard-response,338,644696,learnblock1,569.0999999977648,img/planet4_left.png,4,Community 1,NA,FALSE,j,f,NA,NA,NA,NA,4,"4,6,2,11,15,3,1,10,13,7,12,5,14,9,8"
14153,commdev-image-keyboard-response,339,645949,learnblock1,368.3999999985099,img/planet15_left.png,15,Community 1,NA,TRUE,f,f,NA,NA,NA,NA,4,"4,6,2,11,15,3,1,10,13,7,12,5,14,9,8"
14153,commdev-image-keyboard-response,340,647200,learnblock1,499.1000000014901,img/planet12_right.png,12,Community 3,NA,FALSE,f,j,NA,NA,NA,NA,4,"4,6,2,11,15,3,1,10,13,7,12,5,14,9,8"
14153,commdev-image-keyboard-response,341,648453,learnblock1,null,img/planet15_right.png,15,Community 1,NA,FALSE,null,j,NA,NA,NA,NA,4,"4,6,2,11,15,3,1,10,13,7,12,5,14,9,8"
14153,commdev-image-keyboard-response,342,649705,learnblock1,null,img/planet4_right.png,4,Community 1,NA,FALSE,null,j,NA,NA,NA,NA,4,"4,6,2,11,15,3,1,10,13,7,12,5,14,9,8"
14153,commdev-image-keyboard-response,343,650957,learnblock1,null,img/planet15_left.png,15,Community 1,NA,FALSE,null,f,NA,NA,NA,NA,4,"4,6,2,11,15,3,1,10,13,7,12,5,14,9,8"
14153,commdev-image-keyboard-response,344,652209,learnblock1,688,img/planet2_left.png,2,Community 1,NA,TRUE,f,f,NA,NA,NA,NA,4,"4,6,2,11,15,3,1,10,13,7,12,5,14,9,8"
14153,commdev-image-keyboard-response,345,653461,learnblock1,189.19999999925494,img/planet11_right.png,11,Community 1,NA,TRUE,j,j,NA,NA,NA,NA,4,"4,6,2,11,15,3,1,10,13,7,12,5,14,9,8"
14153,commdev-image-keyboard-response,346,654713,learnblock1,673,img/planet2_right.png,2,Community 1,NA,FALSE,f,j,NA,NA,NA,NA,4,"4,6,2,11,15,3,1,10,13,7,12,5,14,9,8"
14153,commdev-image-keyboard-response,347,655965,learnblock1,null,img/planet11_left.png,11,Community 1,NA,FALSE,null,f,NA,NA,NA,NA,4,"4,6,2,11,15,3,1,10,13,7,12,5,14,9,8"
14153,commdev-image-keyboard-response,351,1144608,learnblock2,941.1999999992549,img/planet2_right.png,2,Community 1,NA,TRUE,j,j,NA,NA,NA,NA,4,"4,6,2,11,15,3,1,10,13,7,12,5,14,9,8"
14153,commdev-image-keyboard-response,352,1145860,learnblock2,623.8999999985099,img/planet4_right.png,4,Community 1,NA,TRUE,j,j,NA,NA,NA,NA,4,"4,6,2,11,15,3,1,10,13,7,12,5,14,9,8"
14153,commdev-image-keyboard-response,353,1147112,learnblock2,419.5,img/planet2_left.png,2,Community 1,NA,TRUE,f,f,NA,NA,NA,NA,4,"4,6,2,11,15,3,1,10,13,7,12,5,14,9,8"
14153,commdev-image-keyboard-response,354,1148364,learnblock2,771.7000000029802,img/planet11_right.png,11,Community 1,NA,TRUE,j,j,NA,NA,NA,NA,4,"4,6,2,11,15,3,1,10,13,7,12,5,14,9,8"
14153,commdev-image-keyboard-response,355,1149616,learnblock2,682.3000000007451,img/planet3_left.png,3,Community 2,NA,TRUE,f,f,NA,NA,NA,NA,4,"4,6,2,11,15,3,1,10,13,7,12,5,14,9,8"
14153,commdev-image-keyboard-response,356,1150868,learnblock2,665.2000000029802,img/planet1_left.png,1,Community 2,NA,TRUE,f,f,NA,NA,NA,NA,4,"4,6,2,11,15,3,1,10,13,7,12,5,14,9,8"
14153,commdev-image-keyboard-response,357,1152120,learnblock2,683.1000000014901,img/planet13_left.png,13,Community 2,NA,TRUE,f,f,NA,NA,NA,NA,4,"4,6,2,11,15,3,1,10,13,7,12,5,14,9,8"
14153,commdev-image-keyboard-response,358,1153373,learnblock2,672.8000000007451,img/planet10_right.png,10,Community 2,NA,TRUE,j,j,NA,NA,NA,NA,4,"4,6,2,11,15,3,1,10,13,7,12,5,14,9,8"
14153,commdev-image-keyboard-response,359,1154625,learnblock2,586.5,img/planet5_left.png,5,Community 3,NA,TRUE,f,f,NA,NA,NA,NA,4,"4,6,2,11,15,3,1,10,13,7,12,5,14,9,8"
14153,commdev-image-keyboard-response,360,1155877,learnblock2,804.6999999992549,img/planet8_left.png,8,Community 3,NA,TRUE,f,f,NA,NA,NA,NA,4,"4,6,2,11,15,3,1,10,13,7,12,5,14,9,8"
14153,commdev-image-keyboard-response,361,1157129,learnblock2,629.5,img/planet5_left.png,5,Community 3,NA,TRUE,f,f,NA,NA,NA,NA,4,"4,6,2,11,15,3,1,10,13,7,12,5,14,9,8"
14153,commdev-image-keyboard-response,362,1158381,learnblock2,506.5999999977648,img/planet14_right.png,14,Community 3,NA,TRUE,j,j,NA,NA,NA,NA,4,"4,6,2,11,15,3,1,10,13,7,12,5,14,9,8"
14153,commdev-image-keyboard-response,363,1159633,learnblock2,619.3000000007451,img/planet12_left.png,12,Community 3,NA,TRUE,f,f,NA,NA,NA,NA,4,"4,6,2,11,15,3,1,10,13,7,12,5,14,9,8"
14153,commdev-image-keyboard-response,364,1160886,learnblock2,683.5,img/planet8_left.png,8,Community 3,NA,TRUE,f,f,NA,NA,NA,NA,4,"4,6,2,11,15,3,1,10,13,7,12,5,14,9,8"
14153,commdev-image-keyboard-response,365,1162138,learnblock2,573.8000000007451,img/planet14_left.png,14,Community 3,NA,TRUE,f,f,NA,NA,NA,NA,4,"4,6,2,11,15,3,1,10,13,7,12,5,14,9,8"
14153,commdev-image-keyboard-response,366,1163389,learnblock2,614.2000000029802,img/planet8_right.png,8,Community 3,NA,TRUE,j,j,NA,NA,NA,NA,4,"4,6,2,11,15,3,1,10,13,7,12,5,14,9,8"
14153,commdev-image-keyboard-response,367,1164641,learnblock2,586.7000000029802,img/planet12_left.png,12,Community 3,NA,TRUE,f,f,NA,NA,NA,NA,4,"4,6,2,11,15,3,1,10,13,7,12,5,14,9,8"
14153,commdev-image-keyboard-response,368,1165893,learnblock2,473.80000000074506,img/planet9_right.png,9,Community 3,NA,TRUE,j,j,NA,NA,NA,NA,4,"4,6,2,11,15,3,1,10,13,7,12,5,14,9,8"
14153,commdev-image-keyboard-response,369,1167145,learnblock2,713.2999999970198,img/planet12_right.png,12,Community 3,NA,FALSE,f,j,NA,NA,NA,NA,4,"4,6,2,11,15,3,1,10,13,7,12,5,14,9,8"
14153,commdev-image-keyboard-response,370,1168397,learnblock2,126.90000000223517,img/planet8_right.png,8,Community 3,NA,TRUE,j,j,NA,NA,NA,NA,4,"4,6,2,11,15,3,1,10,13,7,12,5,14,9,8"
14153,commdev-image-keyboard-response,371,1169649,learnblock2,853.4000000022352,img/planet12_left.png,12,Community 3,NA,TRUE,f,f,NA,NA,NA,NA,4,"4,6,2,11,15,3,1,10,13,7,12,5,14,9,8"
14153,commdev-image-keyboard-response,372,1170902,learnblock2,783.6000000014901,img/planet15_right.png,15,Community 1,NA,TRUE,j,j,NA,NA,NA,NA,4,"4,6,2,11,15,3,1,10,13,7,12,5,14,9,8"
14153,commdev-image-keyboard-response,373,1172154,learnblock2,863.8999999985099,img/planet2_left.png,2,Community 1,NA,TRUE,f,f,NA,NA,NA,NA,4,"4,6,2,11,15,3,1,10,13,7,12,5,14,9,8"
14153,commdev-image-keyboard-response,374,1173406,learnblock2,617.3000000007451,img/planet11_right.png,11,Community 1,NA,TRUE,j,j,NA,NA,NA,NA,4,"4,6,2,11,15,3,1,10,13,7,12,5,14,9,8"
14153,commdev-image-keyboard-response,375,1174658,learnblock2,649.3000000007451,img/planet4_right.png,4,Community 1,NA,TRUE,j,j,NA,NA,NA,NA,4,"4,6,2,11,15,3,1,10,13,7,12,5,14,9,8"
14153,commdev-image-keyboard-response,376,1175911,learnblock2,596.5,img/planet6_right.png,6,Community 1,NA,TRUE,j,j,NA,NA,NA,NA,4,"4,6,2,11,15,3,1,10,13,7,12,5,14,9,8"
14153,commdev-image-keyboard-response,377,1177162,learnblock2,543.2000000029802,img/planet2_right.png,2,Community 1,NA,TRUE,j,j,NA,NA,NA,NA,4,"4,6,2,11,15,3,1,10,13,7,12,5,14,9,8"
14153,commdev-image-keyboard-response,378,1178414,learnblock2,655.8000000007451,img/planet6_left.png,6,Community 1,NA,TRUE,f,f,NA,NA,NA,NA,4,"4,6,2,11,15,3,1,10,13,7,12,5,14,9,8"
14153,commdev-image-keyboard-response,379,1179667,learnblock2,902.9000000022352,img/planet4_right.png,4,Community 1,NA,TRUE,j,j,NA,NA,NA,NA,4,"4,6,2,11,15,3,1,10,13,7,12,5,14,9,8"
14153,commdev-image-keyboard-response,380,1180919,learnblock2,760.6000000014901,img/planet2_left.png,2,Community 1,NA,TRUE,f,f,NA,NA,NA,NA,4,"4,6,2,11,15,3,1,10,13,7,12,5,14,9,8"
14153,commdev-image-keyboard-response,381,1182171,learnblock2,864.6999999992549,img/planet11_left.png,11,Community 1,NA,TRUE,f,f,NA,NA,NA,NA,4,"4,6,2,11,15,3,1,10,13,7,12,5,14,9,8"
14153,commdev-image-keyboard-response,382,1183423,learnblock2,709.6000000014901,img/planet4_left.png,4,Community 1,NA,TRUE,f,f,NA,NA,NA,NA,4,"4,6,2,11,15,3,1,10,13,7,12,5,14,9,8"
14153,commdev-image-keyboard-response,383,1184675,learnblock2,616.5,img/planet2_right.png,2,Community 1,NA,TRUE,j,j,NA,NA,NA,NA,4,"4,6,2,11,15,3,1,10,13,7,12,5,14,9,8"
14153,commdev-image-keyboard-response,384,1185927,learnblock2,922.7000000029802,img/planet4_right.png,4,Community 1,NA,TRUE,j,j,NA,NA,NA,NA,4,"4,6,2,11,15,3,1,10,13,7,12,5,14,9,8"
14153,commdev-image-keyboard-response,385,1187179,learnblock2,639.6000000014901,img/planet11_left.png,11,Community 1,NA,TRUE,f,f,NA,NA,NA,NA,4,"4,6,2,11,15,3,1,10,13,7,12,5,14,9,8"
14153,commdev-image-keyboard-response,386,1188431,learnblock2,594.0999999977648,img/planet4_right.png,4,Community 1,NA,TRUE,j,j,NA,NA,NA,NA,4,"4,6,2,11,15,3,1,10,13,7,12,5,14,9,8"
14153,commdev-image-keyboard-response,387,1189683,learnblock2,624.3000000007451,img/planet15_left.png,15,Community 1,NA,TRUE,f,f,NA,NA,NA,NA,4,"4,6,2,11,15,3,1,10,13,7,12,5,14,9,8"
14153,commdev-image-keyboard-response,388,1190935,learnblock2,627,img/planet4_left.png,4,Community 1,NA,TRUE,f,f,NA,NA,NA,NA,4,"4,6,2,11,15,3,1,10,13,7,12,5,14,9,8"
14153,commdev-image-keyboard-response,389,1192187,learnblock2,556.1999999992549,img/planet11_left.png,11,Community 1,NA,TRUE,f,f,NA,NA,NA,NA,4,"4,6,2,11,15,3,1,10,13,7,12,5,14,9,8"
14153,commdev-image-keyboard-response,390,1193439,learnblock2,639.1999999992549,img/planet6_left.png,6,Community 1,NA,TRUE,f,f,NA,NA,NA,NA,4,"4,6,2,11,15,3,1,10,13,7,12,5,14,9,8"
14153,commdev-image-keyboard-response,391,1194691,learnblock2,753.5,img/planet11_right.png,11,Community 1,NA,TRUE,j,j,NA,NA,NA,NA,4,"4,6,2,11,15,3,1,10,13,7,12,5,14,9,8"
14153,commdev-image-keyboard-response,392,1195943,learnblock2,null,img/planet2_left.png,2,Community 1,NA,FALSE,null,f,NA,NA,NA,NA,4,"4,6,2,11,15,3,1,10,13,7,12,5,14,9,8"
14153,commdev-image-keyboard-response,393,1197195,learnblock2,37.5,img/planet6_left.png,6,Community 1,NA,TRUE,f,f,NA,NA,NA,NA,4,"4,6,2,11,15,3,1,10,13,7,12,5,14,9,8"
14153,commdev-image-keyboard-response,394,1198448,learnblock2,32.19999999925494,img/planet2_right.png,2,Community 1,NA,FALSE,f,j,NA,NA,NA,NA,4,"4,6,2,11,15,3,1,10,13,7,12,5,14,9,8"
14153,commdev-image-keyboard-response,395,1199699,learnblock2,724,img/planet11_right.png,11,Community 1,NA,FALSE,f,j,NA,NA,NA,NA,4,"4,6,2,11,15,3,1,10,13,7,12,5,14,9,8"
14153,commdev-image-keyboard-response,396,1200951,learnblock2,595,img/planet6_right.png,6,Community 1,NA,TRUE,j,j,NA,NA,NA,NA,4,"4,6,2,11,15,3,1,10,13,7,12,5,14,9,8"
14153,commdev-image-keyboard-response,397,1202203,learnblock2,672.8999999985099,img/planet11_right.png,11,Community 1,NA,TRUE,j,j,NA,NA,NA,NA,4,"4,6,2,11,15,3,1,10,13,7,12,5,14,9,8"
14153,commdev-image-keyboard-response,398,1203456,learnblock2,723.1000000014901,img/planet4_left.png,4,Community 1,NA,TRUE,f,f,NA,NA,NA,NA,4,"4,6,2,11,15,3,1,10,13,7,12,5,14,9,8"
14153,commdev-image-keyboard-response,399,1204708,learnblock2,893.5999999977648,img/planet2_right.png,2,Community 1,NA,TRUE,j,j,NA,NA,NA,NA,4,"4,6,2,11,15,3,1,10,13,7,12,5,14,9,8"
14153,commdev-image-keyboard-response,400,1205960,learnblock2,614.9000000022352,img/planet15_left.png,15,Community 1,NA,TRUE,f,f,NA,NA,NA,NA,4,"4,6,2,11,15,3,1,10,13,7,12,5,14,9,8"
14153,commdev-image-keyboard-response,401,1207212,learnblock2,756.5,img/planet2_right.png,2,Community 1,NA,TRUE,j,j,NA,NA,NA,NA,4,"4,6,2,11,15,3,1,10,13,7,12,5,14,9,8"
14153,commdev-image-keyboard-response,402,1208464,learnblock2,649.3000000007451,img/planet15_right.png,15,Community 1,NA,TRUE,j,j,NA,NA,NA,NA,4,"4,6,2,11,15,3,1,10,13,7,12,5,14,9,8"
14153,commdev-image-keyboard-response,403,1209716,learnblock2,695.3999999985099,img/planet6_left.png,6,Community 1,NA,TRUE,f,f,NA,NA,NA,NA,4,"4,6,2,11,15,3,1,10,13,7,12,5,14,9,8"
14153,commdev-image-keyboard-response,404,1210969,learnblock2,676.1999999992549,img/planet4_right.png,4,Community 1,NA,TRUE,j,j,NA,NA,NA,NA,4,"4,6,2,11,15,3,1,10,13,7,12,5,14,9,8"
14153,commdev-image-keyboard-response,405,1212221,learnblock2,870.3000000007451,img/planet11_left.png,11,Community 1,NA,TRUE,f,f,NA,NA,NA,NA,4,"4,6,2,11,15,3,1,10,13,7,12,5,14,9,8"
14153,commdev-image-keyboard-response,406,1213473,learnblock2,654.8999999985099,img/planet2_left.png,2,Community 1,NA,TRUE,f,f,NA,NA,NA,NA,4,"4,6,2,11,15,3,1,10,13,7,12,5,14,9,8"
14153,commdev-image-keyboard-response,407,1214725,learnblock2,560.8999999985099,img/planet4_left.png,4,Community 1,NA,TRUE,f,f,NA,NA,NA,NA,4,"4,6,2,11,15,3,1,10,13,7,12,5,14,9,8"
14153,commdev-image-keyboard-response,408,1215977,learnblock2,579.8999999985099,img/planet6_left.png,6,Community 1,NA,TRUE,f,f,NA,NA,NA,NA,4,"4,6,2,11,15,3,1,10,13,7,12,5,14,9,8"
14153,commdev-image-keyboard-response,409,1217229,learnblock2,629.5,img/planet2_right.png,2,Community 1,NA,TRUE,j,j,NA,NA,NA,NA,4,"4,6,2,11,15,3,1,10,13,7,12,5,14,9,8"
14153,commdev-image-keyboard-response,410,1218482,learnblock2,null,img/planet11_right.png,11,Community 1,NA,FALSE,null,j,NA,NA,NA,NA,4,"4,6,2,11,15,3,1,10,13,7,12,5,14,9,8"
14153,commdev-image-keyboard-response,411,1219734,learnblock2,45.5,img/planet3_left.png,3,Community 2,NA,FALSE,j,f,NA,NA,NA,NA,4,"4,6,2,11,15,3,1,10,13,7,12,5,14,9,8"
14153,commdev-image-keyboard-response,412,1220986,learnblock2,646.9000000022352,img/planet1_left.png,1,Community 2,NA,TRUE,f,f,NA,NA,NA,NA,4,"4,6,2,11,15,3,1,10,13,7,12,5,14,9,8"
14153,commdev-image-keyboard-response,413,1222238,learnblock2,763.6999999992549,img/planet13_right.png,13,Community 2,NA,TRUE,j,j,NA,NA,NA,NA,4,"4,6,2,11,15,3,1,10,13,7,12,5,14,9,8"
14153,commdev-image-keyboard-response,414,1223490,learnblock2,1155.300000000745,img/planet10_left.png,10,Community 2,NA,TRUE,f,f,NA,NA,NA,NA,4,"4,6,2,11,15,3,1,10,13,7,12,5,14,9,8"
14153,commdev-image-keyboard-response,415,1224742,learnblock2,821,img/planet1_right.png,1,Community 2,NA,TRUE,j,j,NA,NA,NA,NA,4,"4,6,2,11,15,3,1,10,13,7,12,5,14,9,8"
14153,commdev-image-keyboard-response,416,1225994,learnblock2,693,img/planet13_right.png,13,Community 2,NA,TRUE,j,j,NA,NA,NA,NA,4,"4,6,2,11,15,3,1,10,13,7,12,5,14,9,8"
14153,commdev-image-keyboard-response,417,1227247,learnblock2,637,img/planet10_left.png,10,Community 2,NA,TRUE,f,f,NA,NA,NA,NA,4,"4,6,2,11,15,3,1,10,13,7,12,5,14,9,8"
14153,commdev-image-keyboard-response,418,1228499,learnblock2,637,img/planet7_right.png,7,Community 2,NA,TRUE,j,j,NA,NA,NA,NA,4,"4,6,2,11,15,3,1,10,13,7,12,5,14,9,8"
14153,commdev-image-keyboard-response,419,1229751,learnblock2,659.8000000007451,img/planet1_right.png,1,Community 2,NA,TRUE,j,j,NA,NA,NA,NA,4,"4,6,2,11,15,3,1,10,13,7,12,5,14,9,8"
14153,commdev-image-keyboard-response,420,1231003,learnblock2,610.3000000007451,img/planet7_left.png,7,Community 2,NA,TRUE,f,f,NA,NA,NA,NA,4,"4,6,2,11,15,3,1,10,13,7,12,5,14,9,8"
14153,commdev-image-keyboard-response,421,1232256,learnblock2,869.3999999985099,img/planet13_left.png,13,Community 2,NA,FALSE,j,f,NA,NA,NA,NA,4,"4,6,2,11,15,3,1,10,13,7,12,5,14,9,8"
14153,commdev-image-keyboard-response,422,1233508,learnblock2,893.2999999970198,img/planet10_left.png,10,Community 2,NA,TRUE,f,f,NA,NA,NA,NA,4,"4,6,2,11,15,3,1,10,13,7,12,5,14,9,8"
14153,commdev-image-keyboard-response,423,1234760,learnblock2,654.1999999992549,img/planet1_left.png,1,Community 2,NA,TRUE,f,f,NA,NA,NA,NA,4,"4,6,2,11,15,3,1,10,13,7,12,5,14,9,8"
14153,commdev-image-keyboard-response,424,1236012,learnblock2,837.9000000022352,img/planet7_right.png,7,Community 2,NA,TRUE,j,j,NA,NA,NA,NA,4,"4,6,2,11,15,3,1,10,13,7,12,5,14,9,8"
14153,commdev-image-keyboard-response,425,1237264,learnblock2,814.3000000007451,img/planet13_left.png,13,Community 2,NA,TRUE,f,f,NA,NA,NA,NA,4,"4,6,2,11,15,3,1,10,13,7,12,5,14,9,8"
14153,commdev-image-keyboard-response,426,1238516,learnblock2,641.4000000022352,img/planet1_left.png,1,Community 2,NA,TRUE,f,f,NA,NA,NA,NA,4,"4,6,2,11,15,3,1,10,13,7,12,5,14,9,8"
14153,commdev-image-keyboard-response,427,1239769,learnblock2,599.5999999977648,img/planet13_left.png,13,Community 2,NA,TRUE,f,f,NA,NA,NA,NA,4,"4,6,2,11,15,3,1,10,13,7,12,5,14,9,8"
14153,commdev-image-keyboard-response,428,1241021,learnblock2,691.2000000029802,img/planet10_right.png,10,Community 2,NA,TRUE,j,j,NA,NA,NA,NA,4,"4,6,2,11,15,3,1,10,13,7,12,5,14,9,8"
14153,commdev-image-keyboard-response,429,1242273,learnblock2,732,img/planet5_right.png,5,Community 3,NA,TRUE,j,j,NA,NA,NA,NA,4,"4,6,2,11,15,3,1,10,13,7,12,5,14,9,8"
14153,commdev-image-keyboard-response,430,1243525,learnblock2,742.5999999977648,img/planet10_right.png,10,Community 2,NA,TRUE,j,j,NA,NA,NA,NA,4,"4,6,2,11,15,3,1,10,13,7,12,5,14,9,8"
14153,commdev-image-keyboard-response,431,1244777,learnblock2,815,img/planet13_left.png,13,Community 2,NA,TRUE,f,f,NA,NA,NA,NA,4,"4,6,2,11,15,3,1,10,13,7,12,5,14,9,8"
14153,commdev-image-keyboard-response,432,1246029,learnblock2,null,img/planet10_right.png,10,Community 2,NA,FALSE,null,j,NA,NA,NA,NA,4,"4,6,2,11,15,3,1,10,13,7,12,5,14,9,8"
14153,commdev-image-keyboard-response,433,1247281,learnblock2,363.5,img/planet7_left.png,7,Community 2,NA,FALSE,j,f,NA,NA,NA,NA,4,"4,6,2,11,15,3,1,10,13,7,12,5,14,9,8"
14153,commdev-image-keyboard-response,434,1248535,learnblock2,993.1999999992549,img/planet13_left.png,13,Community 2,NA,TRUE,f,f,NA,NA,NA,NA,4,"4,6,2,11,15,3,1,10,13,7,12,5,14,9,8"
14153,commdev-image-keyboard-response,435,1249787,learnblock2,584.8000000007451,img/planet3_left.png,3,Community 2,NA,TRUE,f,f,NA,NA,NA,NA,4,"4,6,2,11,15,3,1,10,13,7,12,5,14,9,8"
14153,commdev-image-keyboard-response,436,1251039,learnblock2,857.3999999985099,img/planet11_right.png,11,Community 1,NA,TRUE,j,j,NA,NA,NA,NA,4,"4,6,2,11,15,3,1,10,13,7,12,5,14,9,8"
14153,commdev-image-keyboard-response,437,1252291,learnblock2,674.5999999977648,img/planet3_left.png,3,Community 2,NA,TRUE,f,f,NA,NA,NA,NA,4,"4,6,2,11,15,3,1,10,13,7,12,5,14,9,8"
14153,commdev-image-keyboard-response,438,1253543,learnblock2,578.0999999977648,img/planet13_right.png,13,Community 2,NA,TRUE,j,j,NA,NA,NA,NA,4,"4,6,2,11,15,3,1,10,13,7,12,5,14,9,8"
14153,commdev-image-keyboard-response,439,1254796,learnblock2,862.5999999977648,img/planet7_right.png,7,Community 2,NA,TRUE,j,j,NA,NA,NA,NA,4,"4,6,2,11,15,3,1,10,13,7,12,5,14,9,8"
14153,commdev-image-keyboard-response,440,1256048,learnblock2,972,img/planet3_right.png,3,Community 2,NA,TRUE,j,j,NA,NA,NA,NA,4,"4,6,2,11,15,3,1,10,13,7,12,5,14,9,8"
14153,commdev-image-keyboard-response,441,1257299,learnblock2,701.1999999992549,img/planet13_left.png,13,Community 2,NA,TRUE,f,f,NA,NA,NA,NA,4,"4,6,2,11,15,3,1,10,13,7,12,5,14,9,8"
14153,commdev-image-keyboard-response,442,1258552,learnblock2,679.8000000007451,img/planet7_left.png,7,Community 2,NA,TRUE,f,f,NA,NA,NA,NA,4,"4,6,2,11,15,3,1,10,13,7,12,5,14,9,8"
14153,commdev-image-keyboard-response,443,1259804,learnblock2,730.8999999985099,img/planet1_right.png,1,Community 2,NA,TRUE,j,j,NA,NA,NA,NA,4,"4,6,2,11,15,3,1,10,13,7,12,5,14,9,8"
14153,commdev-image-keyboard-response,444,1261056,learnblock2,697.5,img/planet13_right.png,13,Community 2,NA,TRUE,j,j,NA,NA,NA,NA,4,"4,6,2,11,15,3,1,10,13,7,12,5,14,9,8"
14153,commdev-image-keyboard-response,445,1262308,learnblock2,711.7000000029802,img/planet3_left.png,3,Community 2,NA,TRUE,f,f,NA,NA,NA,NA,4,"4,6,2,11,15,3,1,10,13,7,12,5,14,9,8"
14153,commdev-image-keyboard-response,446,1263560,learnblock2,822.6000000014901,img/planet11_left.png,11,Community 1,NA,TRUE,f,f,NA,NA,NA,NA,4,"4,6,2,11,15,3,1,10,13,7,12,5,14,9,8"
14153,commdev-image-keyboard-response,447,1264812,learnblock2,723.3999999985099,img/planet2_right.png,2,Community 1,NA,FALSE,f,j,NA,NA,NA,NA,4,"4,6,2,11,15,3,1,10,13,7,12,5,14,9,8"
14153,commdev-image-keyboard-response,448,1266064,learnblock2,883,img/planet4_right.png,4,Community 1,NA,TRUE,j,j,NA,NA,NA,NA,4,"4,6,2,11,15,3,1,10,13,7,12,5,14,9,8"
14153,commdev-image-keyboard-response,449,1267317,learnblock2,746.3000000007451,img/planet15_right.png,15,Community 1,NA,TRUE,j,j,NA,NA,NA,NA,4,"4,6,2,11,15,3,1,10,13,7,12,5,14,9,8"
14153,commdev-image-keyboard-response,450,1268569,learnblock2,756.2000000029802,img/planet6_right.png,6,Community 1,NA,TRUE,j,j,NA,NA,NA,NA,4,"4,6,2,11,15,3,1,10,13,7,12,5,14,9,8"
14153,commdev-image-keyboard-response,451,1269821,learnblock2,745.0999999977648,img/planet11_left.png,11,Community 1,NA,TRUE,f,f,NA,NA,NA,NA,4,"4,6,2,11,15,3,1,10,13,7,12,5,14,9,8"
14153,commdev-image-keyboard-response,452,1271073,learnblock2,561.3999999985099,img/planet3_right.png,3,Community 2,NA,TRUE,j,j,NA,NA,NA,NA,4,"4,6,2,11,15,3,1,10,13,7,12,5,14,9,8"
14153,commdev-image-keyboard-response,453,1272326,learnblock2,653.1999999992549,img/planet11_right.png,11,Community 1,NA,TRUE,j,j,NA,NA,NA,NA,4,"4,6,2,11,15,3,1,10,13,7,12,5,14,9,8"
14153,commdev-image-keyboard-response,454,1273577,learnblock2,849.5,img/planet4_left.png,4,Community 1,NA,TRUE,f,f,NA,NA,NA,NA,4,"4,6,2,11,15,3,1,10,13,7,12,5,14,9,8"
14153,commdev-image-keyboard-response,455,1274830,learnblock2,837.5,img/planet2_left.png,2,Community 1,NA,TRUE,f,f,NA,NA,NA,NA,4,"4,6,2,11,15,3,1,10,13,7,12,5,14,9,8"
14153,commdev-image-keyboard-response,456,1276082,learnblock2,833.5,img/planet6_right.png,6,Community 1,NA,TRUE,j,j,NA,NA,NA,NA,4,"4,6,2,11,15,3,1,10,13,7,12,5,14,9,8"
14153,commdev-image-keyboard-response,457,1277334,learnblock2,775.4000000022352,img/planet4_left.png,4,Community 1,NA,TRUE,f,f,NA,NA,NA,NA,4,"4,6,2,11,15,3,1,10,13,7,12,5,14,9,8"
14153,commdev-image-keyboard-response,458,1278586,learnblock2,736.6000000014901,img/planet6_right.png,6,Community 1,NA,TRUE,j,j,NA,NA,NA,NA,4,"4,6,2,11,15,3,1,10,13,7,12,5,14,9,8"
14153,commdev-image-keyboard-response,459,1279838,learnblock2,702.6999999992549,img/planet11_right.png,11,Community 1,NA,TRUE,j,j,NA,NA,NA,NA,4,"4,6,2,11,15,3,1,10,13,7,12,5,14,9,8"
14153,commdev-image-keyboard-response,460,1281091,learnblock2,814.1999999992549,img/planet4_right.png,4,Community 1,NA,TRUE,j,j,NA,NA,NA,NA,4,"4,6,2,11,15,3,1,10,13,7,12,5,14,9,8"
14153,commdev-image-keyboard-response,461,1282342,learnblock2,625.1999999992549,img/planet6_right.png,6,Community 1,NA,TRUE,j,j,NA,NA,NA,NA,4,"4,6,2,11,15,3,1,10,13,7,12,5,14,9,8"
14153,commdev-image-keyboard-response,462,1283594,learnblock2,468,img/planet15_left.png,15,Community 1,NA,TRUE,f,f,NA,NA,NA,NA,4,"4,6,2,11,15,3,1,10,13,7,12,5,14,9,8"
14153,commdev-image-keyboard-response,463,1284847,learnblock2,787.3000000007451,img/planet12_left.png,12,Community 3,NA,TRUE,f,f,NA,NA,NA,NA,4,"4,6,2,11,15,3,1,10,13,7,12,5,14,9,8"
14153,commdev-image-keyboard-response,464,1286099,learnblock2,657.5999999977648,img/planet8_left.png,8,Community 3,NA,TRUE,f,f,NA,NA,NA,NA,4,"4,6,2,11,15,3,1,10,13,7,12,5,14,9,8"
14153,commdev-image-keyboard-response,465,1287351,learnblock2,755.6000000014901,img/planet5_right.png,5,Community 3,NA,TRUE,j,j,NA,NA,NA,NA,4,"4,6,2,11,15,3,1,10,13,7,12,5,14,9,8"
14153,commdev-image-keyboard-response,466,1288603,learnblock2,710.3999999985099,img/planet10_right.png,10,Community 2,NA,TRUE,j,j,NA,NA,NA,NA,4,"4,6,2,11,15,3,1,10,13,7,12,5,14,9,8"
14153,commdev-image-keyboard-response,467,1289855,learnblock2,714.5,img/planet5_left.png,5,Community 3,NA,TRUE,f,f,NA,NA,NA,NA,4,"4,6,2,11,15,3,1,10,13,7,12,5,14,9,8"
14153,commdev-image-keyboard-response,468,1291107,learnblock2,728.5,img/planet14_left.png,14,Community 3,NA,TRUE,f,f,NA,NA,NA,NA,4,"4,6,2,11,15,3,1,10,13,7,12,5,14,9,8"
14153,commdev-image-keyboard-response,469,1292359,learnblock2,621,img/planet9_right.png,9,Community 3,NA,TRUE,j,j,NA,NA,NA,NA,4,"4,6,2,11,15,3,1,10,13,7,12,5,14,9,8"
14153,commdev-image-keyboard-response,470,1293612,learnblock2,706.8000000007451,img/planet5_left.png,5,Community 3,NA,TRUE,f,f,NA,NA,NA,NA,4,"4,6,2,11,15,3,1,10,13,7,12,5,14,9,8"
14153,commdev-image-keyboard-response,471,1294864,learnblock2,583.3999999985099,img/planet10_right.png,10,Community 2,NA,TRUE,j,j,NA,NA,NA,NA,4,"4,6,2,11,15,3,1,10,13,7,12,5,14,9,8"
14153,commdev-image-keyboard-response,472,1296116,learnblock2,640.3000000007451,img/planet13_left.png,13,Community 2,NA,TRUE,f,f,NA,NA,NA,NA,4,"4,6,2,11,15,3,1,10,13,7,12,5,14,9,8"
14153,commdev-image-keyboard-response,473,1297368,learnblock2,643.7999999970198,img/planet3_left.png,3,Community 2,NA,FALSE,j,f,NA,NA,NA,NA,4,"4,6,2,11,15,3,1,10,13,7,12,5,14,9,8"
14153,commdev-image-keyboard-response,474,1298621,learnblock2,682.8000000007451,img/planet7_right.png,7,Community 2,NA,TRUE,j,j,NA,NA,NA,NA,4,"4,6,2,11,15,3,1,10,13,7,12,5,14,9,8"
14153,commdev-image-keyboard-response,475,1299873,learnblock2,636.5999999977648,img/planet10_left.png,10,Community 2,NA,TRUE,f,f,NA,NA,NA,NA,4,"4,6,2,11,15,3,1,10,13,7,12,5,14,9,8"
14153,commdev-image-keyboard-response,476,1301125,learnblock2,763.2999999970198,img/planet13_left.png,13,Community 2,NA,TRUE,f,f,NA,NA,NA,NA,4,"4,6,2,11,15,3,1,10,13,7,12,5,14,9,8"
14153,commdev-image-keyboard-response,477,1302378,learnblock2,574.4000000022352,img/planet7_left.png,7,Community 2,NA,TRUE,f,f,NA,NA,NA,NA,4,"4,6,2,11,15,3,1,10,13,7,12,5,14,9,8"
14153,commdev-image-keyboard-response,478,1303630,learnblock2,718.8999999985099,img/planet13_left.png,13,Community 2,NA,TRUE,f,f,NA,NA,NA,NA,4,"4,6,2,11,15,3,1,10,13,7,12,5,14,9,8"
14153,commdev-image-keyboard-response,479,1304882,learnblock2,1084.5,img/planet10_right.png,10,Community 2,NA,FALSE,f,j,NA,NA,NA,NA,4,"4,6,2,11,15,3,1,10,13,7,12,5,14,9,8"
14153,commdev-image-keyboard-response,480,1306134,learnblock2,730.3000000007451,img/planet7_left.png,7,Community 2,NA,TRUE,f,f,NA,NA,NA,NA,4,"4,6,2,11,15,3,1,10,13,7,12,5,14,9,8"
14153,commdev-image-keyboard-response,481,1307386,learnblock2,631.1000000014901,img/planet13_left.png,13,Community 2,NA,TRUE,f,f,NA,NA,NA,NA,4,"4,6,2,11,15,3,1,10,13,7,12,5,14,9,8"
14153,commdev-image-keyboard-response,482,1308638,learnblock2,654.5,img/planet7_right.png,7,Community 2,NA,TRUE,j,j,NA,NA,NA,NA,4,"4,6,2,11,15,3,1,10,13,7,12,5,14,9,8"
14153,commdev-image-keyboard-response,483,1309890,learnblock2,990,img/planet13_right.png,13,Community 2,NA,TRUE,j,j,NA,NA,NA,NA,4,"4,6,2,11,15,3,1,10,13,7,12,5,14,9,8"
14153,commdev-image-keyboard-response,484,1311142,learnblock2,764.5999999977648,img/planet3_left.png,3,Community 2,NA,TRUE,f,f,NA,NA,NA,NA,4,"4,6,2,11,15,3,1,10,13,7,12,5,14,9,8"
14153,commdev-image-keyboard-response,485,1312394,learnblock2,799.3000000007451,img/planet13_left.png,13,Community 2,NA,TRUE,f,f,NA,NA,NA,NA,4,"4,6,2,11,15,3,1,10,13,7,12,5,14,9,8"
14153,commdev-image-keyboard-response,486,1313647,learnblock2,766.8000000007451,img/planet3_left.png,3,Community 2,NA,TRUE,f,f,NA,NA,NA,NA,4,"4,6,2,11,15,3,1,10,13,7,12,5,14,9,8"
14153,commdev-image-keyboard-response,487,1314899,learnblock2,714.8000000007451,img/planet1_left.png,1,Community 2,NA,TRUE,f,f,NA,NA,NA,NA,4,"4,6,2,11,15,3,1,10,13,7,12,5,14,9,8"
14153,commdev-image-keyboard-response,488,1316151,learnblock2,981,img/planet10_right.png,10,Community 2,NA,TRUE,j,j,NA,NA,NA,NA,4,"4,6,2,11,15,3,1,10,13,7,12,5,14,9,8"
14153,commdev-image-keyboard-response,489,1317403,learnblock2,985.3999999985099,img/planet1_left.png,1,Community 2,NA,TRUE,f,f,NA,NA,NA,NA,4,"4,6,2,11,15,3,1,10,13,7,12,5,14,9,8"
14153,commdev-image-keyboard-response,490,1318655,learnblock2,624.6000000014901,img/planet10_right.png,10,Community 2,NA,TRUE,j,j,NA,NA,NA,NA,4,"4,6,2,11,15,3,1,10,13,7,12,5,14,9,8"
14153,commdev-image-keyboard-response,491,1319907,learnblock2,662.6000000014901,img/planet5_right.png,5,Community 3,NA,FALSE,f,j,NA,NA,NA,NA,4,"4,6,2,11,15,3,1,10,13,7,12,5,14,9,8"
14153,commdev-image-keyboard-response,492,1321159,learnblock2,909.0999999977648,img/planet9_left.png,9,Community 3,NA,TRUE,f,f,NA,NA,NA,NA,4,"4,6,2,11,15,3,1,10,13,7,12,5,14,9,8"
14153,commdev-image-keyboard-response,493,1322411,learnblock2,940.1000000014901,img/planet8_right.png,8,Community 3,NA,TRUE,j,j,NA,NA,NA,NA,4,"4,6,2,11,15,3,1,10,13,7,12,5,14,9,8"
14153,commdev-image-keyboard-response,494,1323664,learnblock2,827.8000000007451,img/planet9_right.png,9,Community 3,NA,TRUE,j,j,NA,NA,NA,NA,4,"4,6,2,11,15,3,1,10,13,7,12,5,14,9,8"
14153,commdev-image-keyboard-response,495,1324916,learnblock2,686.6999999992549,img/planet12_right.png,12,Community 3,NA,TRUE,j,j,NA,NA,NA,NA,4,"4,6,2,11,15,3,1,10,13,7,12,5,14,9,8"
14153,commdev-image-keyboard-response,496,1326168,learnblock2,568.6000000014901,img/planet15_left.png,15,Community 1,NA,TRUE,f,f,NA,NA,NA,NA,4,"4,6,2,11,15,3,1,10,13,7,12,5,14,9,8"
14153,commdev-image-keyboard-response,497,1327420,learnblock2,641.5,img/planet6_left.png,6,Community 1,NA,TRUE,f,f,NA,NA,NA,NA,4,"4,6,2,11,15,3,1,10,13,7,12,5,14,9,8"
14153,commdev-image-keyboard-response,498,1328673,learnblock2,735.1999999992549,img/planet15_right.png,15,Community 1,NA,TRUE,j,j,NA,NA,NA,NA,4,"4,6,2,11,15,3,1,10,13,7,12,5,14,9,8"
14153,commdev-image-keyboard-response,499,1329925,learnblock2,918.7999999970198,img/planet2_left.png,2,Community 1,NA,TRUE,f,f,NA,NA,NA,NA,4,"4,6,2,11,15,3,1,10,13,7,12,5,14,9,8"
14153,commdev-image-keyboard-response,500,1331177,learnblock2,758.6000000014901,img/planet11_right.png,11,Community 1,NA,TRUE,j,j,NA,NA,NA,NA,4,"4,6,2,11,15,3,1,10,13,7,12,5,14,9,8"
14153,commdev-image-keyboard-response,501,1332429,learnblock2,1122.6000000014901,img/planet4_right.png,4,Community 1,NA,TRUE,j,j,NA,NA,NA,NA,4,"4,6,2,11,15,3,1,10,13,7,12,5,14,9,8"
14153,commdev-image-keyboard-response,502,1333681,learnblock2,1181,img/planet2_left.png,2,Community 1,NA,TRUE,f,f,NA,NA,NA,NA,4,"4,6,2,11,15,3,1,10,13,7,12,5,14,9,8"
14153,commdev-image-keyboard-response,503,1334933,learnblock2,988.5,img/planet11_left.png,11,Community 1,NA,TRUE,f,f,NA,NA,NA,NA,4,"4,6,2,11,15,3,1,10,13,7,12,5,14,9,8"
14153,commdev-image-keyboard-response,504,1336186,learnblock2,638,img/planet2_right.png,2,Community 1,NA,TRUE,j,j,NA,NA,NA,NA,4,"4,6,2,11,15,3,1,10,13,7,12,5,14,9,8"
14153,commdev-image-keyboard-response,505,1337438,learnblock2,null,img/planet15_right.png,15,Community 1,NA,FALSE,null,j,NA,NA,NA,NA,4,"4,6,2,11,15,3,1,10,13,7,12,5,14,9,8"
14153,commdev-image-keyboard-response,506,1338690,learnblock2,476.5999999977648,img/planet2_right.png,2,Community 1,NA,TRUE,j,j,NA,NA,NA,NA,4,"4,6,2,11,15,3,1,10,13,7,12,5,14,9,8"
14153,commdev-image-keyboard-response,507,1339943,learnblock2,628,img/planet11_right.png,11,Community 1,NA,TRUE,j,j,NA,NA,NA,NA,4,"4,6,2,11,15,3,1,10,13,7,12,5,14,9,8"
14153,commdev-image-keyboard-response,508,1341195,learnblock2,850.5999999977648,img/planet6_left.png,6,Community 1,NA,TRUE,f,f,NA,NA,NA,NA,4,"4,6,2,11,15,3,1,10,13,7,12,5,14,9,8"
14153,commdev-image-keyboard-response,509,1342448,learnblock2,781.8000000007451,img/planet15_left.png,15,Community 1,NA,TRUE,f,f,NA,NA,NA,NA,4,"4,6,2,11,15,3,1,10,13,7,12,5,14,9,8"
14153,commdev-image-keyboard-response,510,1343700,learnblock2,384,img/planet2_right.png,2,Community 1,NA,FALSE,f,j,NA,NA,NA,NA,4,"4,6,2,11,15,3,1,10,13,7,12,5,14,9,8"
14153,commdev-image-keyboard-response,511,1344953,learnblock2,1131.9000000022352,img/planet6_left.png,6,Community 1,NA,TRUE,f,f,NA,NA,NA,NA,4,"4,6,2,11,15,3,1,10,13,7,12,5,14,9,8"
14153,commdev-image-keyboard-response,512,1346205,learnblock2,458.29999999701977,img/planet2_left.png,2,Community 1,NA,TRUE,f,f,NA,NA,NA,NA,4,"4,6,2,11,15,3,1,10,13,7,12,5,14,9,8"
14153,commdev-image-keyboard-response,513,1347457,learnblock2,525.4000000022352,img/planet4_left.png,4,Community 1,NA,TRUE,f,f,NA,NA,NA,NA,4,"4,6,2,11,15,3,1,10,13,7,12,5,14,9,8"
14153,commdev-image-keyboard-response,514,1348709,learnblock2,593.3999999985099,img/planet6_left.png,6,Community 1,NA,TRUE,f,f,NA,NA,NA,NA,4,"4,6,2,11,15,3,1,10,13,7,12,5,14,9,8"
14153,commdev-image-keyboard-response,515,1349961,learnblock2,432.70000000298023,img/planet4_left.png,4,Community 1,NA,TRUE,f,f,NA,NA,NA,NA,4,"4,6,2,11,15,3,1,10,13,7,12,5,14,9,8"
14153,commdev-image-keyboard-response,516,1351213,learnblock2,642.2000000029802,img/planet11_right.png,11,Community 1,NA,TRUE,j,j,NA,NA,NA,NA,4,"4,6,2,11,15,3,1,10,13,7,12,5,14,9,8"
14153,commdev-image-keyboard-response,517,1352466,learnblock2,750.7999999970198,img/planet6_right.png,6,Community 1,NA,TRUE,j,j,NA,NA,NA,NA,4,"4,6,2,11,15,3,1,10,13,7,12,5,14,9,8"
14153,commdev-image-keyboard-response,518,1353718,learnblock2,738.1000000014901,img/planet11_left.png,11,Community 1,NA,TRUE,f,f,NA,NA,NA,NA,4,"4,6,2,11,15,3,1,10,13,7,12,5,14,9,8"
14153,commdev-image-keyboard-response,519,1354970,learnblock2,null,img/planet3_left.png,3,Community 2,NA,FALSE,null,f,NA,NA,NA,NA,4,"4,6,2,11,15,3,1,10,13,7,12,5,14,9,8"
14153,commdev-image-keyboard-response,520,1356222,learnblock2,71.19999999925494,img/planet7_left.png,7,Community 2,NA,TRUE,f,f,NA,NA,NA,NA,4,"4,6,2,11,15,3,1,10,13,7,12,5,14,9,8"
14153,commdev-image-keyboard-response,521,1357475,learnblock2,622.7999999970198,img/planet10_right.png,10,Community 2,NA,TRUE,j,j,NA,NA,NA,NA,4,"4,6,2,11,15,3,1,10,13,7,12,5,14,9,8"
14153,commdev-image-keyboard-response,522,1358727,learnblock2,927.4000000022352,img/planet1_left.png,1,Community 2,NA,TRUE,f,f,NA,NA,NA,NA,4,"4,6,2,11,15,3,1,10,13,7,12,5,14,9,8"
14153,commdev-image-keyboard-response,523,1359979,learnblock2,302.3999999985099,img/planet3_left.png,3,Community 2,NA,TRUE,f,f,NA,NA,NA,NA,4,"4,6,2,11,15,3,1,10,13,7,12,5,14,9,8"
14153,commdev-image-keyboard-response,524,1361231,learnblock2,843.6000000014901,img/planet7_right.png,7,Community 2,NA,TRUE,j,j,NA,NA,NA,NA,4,"4,6,2,11,15,3,1,10,13,7,12,5,14,9,8"
14153,commdev-image-keyboard-response,525,1362483,learnblock2,395.5,img/planet1_left.png,1,Community 2,NA,FALSE,j,f,NA,NA,NA,NA,4,"4,6,2,11,15,3,1,10,13,7,12,5,14,9,8"
14153,commdev-image-keyboard-response,526,1363735,learnblock2,878.3999999985099,img/planet13_left.png,13,Community 2,NA,TRUE,f,f,NA,NA,NA,NA,4,"4,6,2,11,15,3,1,10,13,7,12,5,14,9,8"
14153,commdev-image-keyboard-response,527,1364987,learnblock2,512.8999999985099,img/planet10_right.png,10,Community 2,NA,FALSE,f,j,NA,NA,NA,NA,4,"4,6,2,11,15,3,1,10,13,7,12,5,14,9,8"
14153,commdev-image-keyboard-response,528,1366240,learnblock2,13.300000000745058,img/planet13_right.png,13,Community 2,NA,FALSE,f,j,NA,NA,NA,NA,4,"4,6,2,11,15,3,1,10,13,7,12,5,14,9,8"
14153,commdev-image-keyboard-response,529,1367492,learnblock2,1135.6000000014901,img/planet3_left.png,3,Community 2,NA,TRUE,f,f,NA,NA,NA,NA,4,"4,6,2,11,15,3,1,10,13,7,12,5,14,9,8"
14153,commdev-image-keyboard-response,530,1368744,learnblock2,713,img/planet1_right.png,1,Community 2,NA,TRUE,j,j,NA,NA,NA,NA,4,"4,6,2,11,15,3,1,10,13,7,12,5,14,9,8"
14153,commdev-image-keyboard-response,531,1369996,learnblock2,821.3999999985099,img/planet7_left.png,7,Community 2,NA,TRUE,f,f,NA,NA,NA,NA,4,"4,6,2,11,15,3,1,10,13,7,12,5,14,9,8"
14153,commdev-image-keyboard-response,532,1371248,learnblock2,770.4000000022352,img/planet1_left.png,1,Community 2,NA,TRUE,f,f,NA,NA,NA,NA,4,"4,6,2,11,15,3,1,10,13,7,12,5,14,9,8"
14153,commdev-image-keyboard-response,533,1372500,learnblock2,604.8000000007451,img/planet10_right.png,10,Community 2,NA,TRUE,j,j,NA,NA,NA,NA,4,"4,6,2,11,15,3,1,10,13,7,12,5,14,9,8"
14153,commdev-image-keyboard-response,534,1373752,learnblock2,700.5,img/planet13_left.png,13,Community 2,NA,FALSE,j,f,NA,NA,NA,NA,4,"4,6,2,11,15,3,1,10,13,7,12,5,14,9,8"
14153,commdev-image-keyboard-response,535,1375004,learnblock2,null,img/planet7_left.png,7,Community 2,NA,FALSE,null,f,NA,NA,NA,NA,4,"4,6,2,11,15,3,1,10,13,7,12,5,14,9,8"
14153,commdev-image-keyboard-response,536,1376257,learnblock2,113.10000000149012,img/planet3_right.png,3,Community 2,NA,FALSE,f,j,NA,NA,NA,NA,4,"4,6,2,11,15,3,1,10,13,7,12,5,14,9,8"
14153,commdev-image-keyboard-response,537,1377509,learnblock2,851.5,img/planet7_right.png,7,Community 2,NA,TRUE,j,j,NA,NA,NA,NA,4,"4,6,2,11,15,3,1,10,13,7,12,5,14,9,8"
14153,commdev-image-keyboard-response,538,1378761,learnblock2,576.8000000007451,img/planet13_right.png,13,Community 2,NA,TRUE,j,j,NA,NA,NA,NA,4,"4,6,2,11,15,3,1,10,13,7,12,5,14,9,8"
14153,commdev-image-keyboard-response,539,1380014,learnblock2,729.6000000014901,img/planet7_left.png,7,Community 2,NA,TRUE,f,f,NA,NA,NA,NA,4,"4,6,2,11,15,3,1,10,13,7,12,5,14,9,8"
14153,commdev-image-keyboard-response,540,1381267,learnblock2,776.1000000014901,img/planet10_left.png,10,Community 2,NA,TRUE,f,f,NA,NA,NA,NA,4,"4,6,2,11,15,3,1,10,13,7,12,5,14,9,8"
14153,commdev-image-keyboard-response,541,1382519,learnblock2,708.7999999970198,img/planet1_left.png,1,Community 2,NA,TRUE,f,f,NA,NA,NA,NA,4,"4,6,2,11,15,3,1,10,13,7,12,5,14,9,8"
14153,commdev-image-keyboard-response,542,1383771,learnblock2,600.5,img/planet10_left.png,10,Community 2,NA,TRUE,f,f,NA,NA,NA,NA,4,"4,6,2,11,15,3,1,10,13,7,12,5,14,9,8"
14153,commdev-image-keyboard-response,543,1385023,learnblock2,681.8999999985099,img/planet1_left.png,1,Community 2,NA,TRUE,f,f,NA,NA,NA,NA,4,"4,6,2,11,15,3,1,10,13,7,12,5,14,9,8"
14153,commdev-image-keyboard-response,544,1386275,learnblock2,494.80000000074506,img/planet10_right.png,10,Community 2,NA,TRUE,j,j,NA,NA,NA,NA,4,"4,6,2,11,15,3,1,10,13,7,12,5,14,9,8"
14153,commdev-image-keyboard-response,545,1387527,learnblock2,1055,img/planet13_left.png,13,Community 2,NA,TRUE,f,f,NA,NA,NA,NA,4,"4,6,2,11,15,3,1,10,13,7,12,5,14,9,8"
14153,commdev-image-keyboard-response,546,1388779,learnblock2,898.0999999977648,img/planet3_left.png,3,Community 2,NA,TRUE,f,f,NA,NA,NA,NA,4,"4,6,2,11,15,3,1,10,13,7,12,5,14,9,8"
14153,commdev-image-keyboard-response,547,1390032,learnblock2,722.6999999992549,img/planet7_right.png,7,Community 2,NA,TRUE,j,j,NA,NA,NA,NA,4,"4,6,2,11,15,3,1,10,13,7,12,5,14,9,8"
14153,commdev-image-keyboard-response,548,1391284,learnblock2,781.1999999992549,img/planet13_left.png,13,Community 2,NA,TRUE,f,f,NA,NA,NA,NA,4,"4,6,2,11,15,3,1,10,13,7,12,5,14,9,8"
14153,commdev-image-keyboard-response,549,1392536,learnblock2,727.8000000007451,img/planet7_right.png,7,Community 2,NA,TRUE,j,j,NA,NA,NA,NA,4,"4,6,2,11,15,3,1,10,13,7,12,5,14,9,8"
14153,commdev-image-keyboard-response,550,1393788,learnblock2,1153.5,img/planet3_left.png,3,Community 2,NA,TRUE,f,f,NA,NA,NA,NA,4,"4,6,2,11,15,3,1,10,13,7,12,5,14,9,8"
14153,commdev-image-keyboard-response,551,1395040,learnblock2,959,img/planet1_right.png,1,Community 2,NA,TRUE,j,j,NA,NA,NA,NA,4,"4,6,2,11,15,3,1,10,13,7,12,5,14,9,8"
14153,commdev-image-keyboard-response,552,1396292,learnblock2,927.5,img/planet13_right.png,13,Community 2,NA,TRUE,j,j,NA,NA,NA,NA,4,"4,6,2,11,15,3,1,10,13,7,12,5,14,9,8"
14153,commdev-image-keyboard-response,553,1397545,learnblock2,696.3000000007451,img/planet1_left.png,1,Community 2,NA,TRUE,f,f,NA,NA,NA,NA,4,"4,6,2,11,15,3,1,10,13,7,12,5,14,9,8"
14153,commdev-image-keyboard-response,554,1398797,learnblock2,818.5,img/planet7_right.png,7,Community 2,NA,TRUE,j,j,NA,NA,NA,NA,4,"4,6,2,11,15,3,1,10,13,7,12,5,14,9,8"
14153,commdev-image-keyboard-response,555,1400049,learnblock2,866.0999999977648,img/planet13_left.png,13,Community 2,NA,TRUE,f,f,NA,NA,NA,NA,4,"4,6,2,11,15,3,1,10,13,7,12,5,14,9,8"
14153,commdev-image-keyboard-response,556,1401301,learnblock2,832.1999999992549,img/planet10_left.png,10,Community 2,NA,FALSE,j,f,NA,NA,NA,NA,4,"4,6,2,11,15,3,1,10,13,7,12,5,14,9,8"
14153,commdev-image-keyboard-response,557,1402553,learnblock2,1202.8999999985099,img/planet1_right.png,1,Community 2,NA,TRUE,j,j,NA,NA,NA,NA,4,"4,6,2,11,15,3,1,10,13,7,12,5,14,9,8"
14153,commdev-image-keyboard-response,558,1403805,learnblock2,1200.1000000014901,img/planet10_right.png,10,Community 2,NA,TRUE,j,j,NA,NA,NA,NA,4,"4,6,2,11,15,3,1,10,13,7,12,5,14,9,8"
14153,commdev-image-keyboard-response,559,1405057,learnblock2,1139.300000000745,img/planet1_right.png,1,Community 2,NA,TRUE,j,j,NA,NA,NA,NA,4,"4,6,2,11,15,3,1,10,13,7,12,5,14,9,8"
14153,commdev-image-keyboard-response,560,1406309,learnblock2,689.1999999992549,img/planet7_left.png,7,Community 2,NA,TRUE,f,f,NA,NA,NA,NA,4,"4,6,2,11,15,3,1,10,13,7,12,5,14,9,8"
14153,commdev-image-keyboard-response,561,1407561,learnblock2,869.5,img/planet1_right.png,1,Community 2,NA,TRUE,j,j,NA,NA,NA,NA,4,"4,6,2,11,15,3,1,10,13,7,12,5,14,9,8"
14153,commdev-image-keyboard-response,562,1408813,learnblock2,1039.9000000022352,img/planet7_right.png,7,Community 2,NA,TRUE,j,j,NA,NA,NA,NA,4,"4,6,2,11,15,3,1,10,13,7,12,5,14,9,8"
