subject_id,trial_type,trial_index,time_elapsed,block,rt,stimulus,planet,community,response,correct,key_press,learning_correct_response,parse,init_locations,final_locations,browser_interactions,num_comp,planet_map
14814,commdev-instructions,7,40930,NA,2441.0999999940395,"<p>In this game, you will be shown a 3x3 grid of patterns.</p> <p>The last one in the bottom right-hand corner, <strong>will be missing:</strong></p> <div style='width: 700px;'><div style='float: top;'><img style='width: 200px;' src='practice/p1_M1.png'></img><p class='small'>You need to select<strong> which of the four possible patterns </strong>along the bottom<strong> fits into the gap:</strong></p></div><div style='float: top;'><img style='width: 300px;' src='practice/p1_T1.png'></img></div><br>",NA,NA,NA,NA,NA,NA,NA,NA,NA,2,6,"7,11,12,5,8,2,10,14,4,13,9,1,15,3,6"
14814,commdev-instructions,8,60224,NA,1224.5,"<p>Try to be as fast and as accurate as you can be.</p> <p>If you cannot solve the puzzle then you should guess - you will not be penalised for an incorrect answer.</p> <p>The task contains a shuffled mix of easy, medium and hard puzzles.</p> <p>You will have <strong>30 seconds</strong> to complete each puzzle.</p><br>",NA,NA,NA,NA,NA,NA,NA,NA,NA,2,6,"7,11,12,5,8,2,10,14,4,13,9,1,15,3,6"
14814,commdev-instructions,15,84566,NA,1504.0999999940395,<p><strong>Success!</strong></p> <p>You seem to be getting the hang of this...</p> <p>Let's move on to the real trials.</p><br>,NA,NA,NA,NA,NA,NA,NA,NA,NA,2,6,"7,11,12,5,8,2,10,14,4,13,9,1,15,3,6"
14814,commdev-instructions,178,564655,NA,NA,NA,NA,NA,NA,NA,NA,NA,NA,NA,NA,2,6,"7,11,12,5,8,2,10,14,4,13,9,1,15,3,6"
14814,commdev-instructions,190,654152,NA,2803.5,"<p>Great, now try a short practice mission. </p><p> This time, you will have 1 second to respond and you won't know whether you pressed the right or wrong key for each planet.</p>",NA,NA,NA,NA,NA,NA,NA,NA,NA,2,6,"7,11,12,5,8,2,10,14,4,13,9,1,15,3,6"
14814,commdev-image-keyboard-response,191,655513,practice,null,img/practice3_right.png,NA,Number not found in mappings,NA,FALSE,null,j,NA,NA,NA,2,6,"7,11,12,5,8,2,10,14,4,13,9,1,15,3,6"
14814,commdev-image-keyboard-response,192,656766,practice,null,img/practice1_right.png,NA,Number not found in mappings,NA,FALSE,null,j,NA,NA,NA,2,6,"7,11,12,5,8,2,10,14,4,13,9,1,15,3,6"
14814,commdev-image-keyboard-response,193,658020,practice,47.89999997615814,img/practice3_right.png,NA,Number not found in mappings,NA,TRUE,j,j,NA,NA,NA,2,6,"7,11,12,5,8,2,10,14,4,13,9,1,15,3,6"
14814,commdev-image-keyboard-response,194,659275,practice,803,img/practice1_left.png,NA,Number not found in mappings,NA,TRUE,f,f,NA,NA,NA,2,6,"7,11,12,5,8,2,10,14,4,13,9,1,15,3,6"
14814,commdev-image-keyboard-response,195,660528,practice,860.5999999940395,img/practice2_left.png,NA,Number not found in mappings,NA,TRUE,f,f,NA,NA,NA,2,6,"7,11,12,5,8,2,10,14,4,13,9,1,15,3,6"
14814,commdev-image-keyboard-response,196,661782,practice,1143.4000000059605,img/practice1_left.png,NA,Number not found in mappings,NA,TRUE,f,f,NA,NA,NA,2,6,"7,11,12,5,8,2,10,14,4,13,9,1,15,3,6"
14814,commdev-image-keyboard-response,197,663034,practice,775.5,img/practice3_left.png,NA,Number not found in mappings,NA,TRUE,f,f,NA,NA,NA,2,6,"7,11,12,5,8,2,10,14,4,13,9,1,15,3,6"
14814,commdev-image-keyboard-response,198,664287,practice,540.7000000178814,img/practice2_left.png,NA,Number not found in mappings,NA,TRUE,f,f,NA,NA,NA,2,6,"7,11,12,5,8,2,10,14,4,13,9,1,15,3,6"
14814,commdev-instructions,199,674854,NA,1015.5999999940395,"<p>Great job with the practice round.</p><p>During real missions, you won't know whether you pressed the right or wrong key for each planet.</p><p>But between missions, we will tell you how you did overall.</p>",NA,NA,NA,NA,NA,NA,NA,NA,NA,2,6,"7,11,12,5,8,2,10,14,4,13,9,1,15,3,6"
14814,commdev-instructions,200,685203,NA,2105,<p>Try your best! You will be paid a bonus based on how many correct responses you make!</p><p>Responses that are too slow will not count toward your bonus.</p>,NA,NA,NA,NA,NA,NA,NA,NA,NA,2,6,"7,11,12,5,8,2,10,14,4,13,9,1,15,3,6"
14814,commdev-instructions,201,692289,NA,887.0999999940395,"<p>You are almost ready to start the real game.</p><p> First, we are going to ask you some questions about how the game works.</p>",NA,NA,NA,NA,NA,NA,NA,NA,NA,2,6,"7,11,12,5,8,2,10,14,4,13,9,1,15,3,6"
14814,commdev-instructions,210,773250,NA,1230.5,"<p> Nice work! It is now time to start the real game.<p></p>You will go on two missions to record wind directions of different planets.<p></p>Each one will take about 5 minutes. You will get to take a break between missions.<p><p> Remember, press <strong>F</strong> or <strong>J</strong> depending on the wind direction. Good luck!<br><img src=""img/categorize_planet_example.png""",NA,NA,NA,NA,NA,NA,NA,NA,NA,2,6,"7,11,12,5,8,2,10,14,4,13,9,1,15,3,6"
14814,commdev-image-keyboard-response,212,777785,learnblock1,910.8000000119209,img/planet9_left.png,9,Community 3,NA,TRUE,f,f,NA,NA,NA,2,6,"7,11,12,5,8,2,10,14,4,13,9,1,15,3,6"
14814,commdev-image-keyboard-response,213,779037,learnblock1,798.8000000119209,img/planet3_left.png,3,Community 3,NA,TRUE,f,f,NA,NA,NA,2,6,"7,11,12,5,8,2,10,14,4,13,9,1,15,3,6"
14814,commdev-image-keyboard-response,214,780293,learnblock1,730.6999999880791,img/planet1_left.png,1,Community 3,NA,TRUE,f,f,NA,NA,NA,2,6,"7,11,12,5,8,2,10,14,4,13,9,1,15,3,6"
14814,commdev-image-keyboard-response,215,781544,learnblock1,819.5,img/planet3_left.png,3,Community 3,NA,TRUE,f,f,NA,NA,NA,2,6,"7,11,12,5,8,2,10,14,4,13,9,1,15,3,6"
14814,commdev-image-keyboard-response,216,782800,learnblock1,896.5,img/planet1_right.png,1,Community 3,NA,TRUE,j,j,NA,NA,NA,2,6,"7,11,12,5,8,2,10,14,4,13,9,1,15,3,6"
14814,commdev-image-keyboard-response,217,784053,learnblock1,985.0999999940395,img/planet3_left.png,3,Community 3,NA,TRUE,f,f,NA,NA,NA,2,6,"7,11,12,5,8,2,10,14,4,13,9,1,15,3,6"
14814,commdev-image-keyboard-response,218,785305,learnblock1,804.2000000178814,img/planet15_right.png,15,Community 3,NA,FALSE,f,j,NA,NA,NA,2,6,"7,11,12,5,8,2,10,14,4,13,9,1,15,3,6"
14814,commdev-image-keyboard-response,219,786557,learnblock1,703.5999999940395,img/planet9_left.png,9,Community 3,NA,TRUE,f,f,NA,NA,NA,2,6,"7,11,12,5,8,2,10,14,4,13,9,1,15,3,6"
14814,commdev-image-keyboard-response,220,787811,learnblock1,691.5,img/planet15_left.png,15,Community 3,NA,TRUE,f,f,NA,NA,NA,2,6,"7,11,12,5,8,2,10,14,4,13,9,1,15,3,6"
14814,commdev-image-keyboard-response,221,789064,learnblock1,645.8999999761581,img/planet6_left.png,6,Community 3,NA,TRUE,f,f,NA,NA,NA,2,6,"7,11,12,5,8,2,10,14,4,13,9,1,15,3,6"
14814,commdev-image-keyboard-response,222,790318,learnblock1,632.6000000238419,img/planet9_right.png,9,Community 3,NA,FALSE,f,j,NA,NA,NA,2,6,"7,11,12,5,8,2,10,14,4,13,9,1,15,3,6"
14814,commdev-image-keyboard-response,223,791571,learnblock1,987.1999999880791,img/planet6_right.png,6,Community 3,NA,TRUE,j,j,NA,NA,NA,2,6,"7,11,12,5,8,2,10,14,4,13,9,1,15,3,6"
14814,commdev-image-keyboard-response,224,792823,learnblock1,1005.7000000178814,img/planet1_left.png,1,Community 3,NA,FALSE,j,f,NA,NA,NA,2,6,"7,11,12,5,8,2,10,14,4,13,9,1,15,3,6"
14814,commdev-image-keyboard-response,225,794080,learnblock1,113.5,img/planet15_right.png,15,Community 3,NA,FALSE,f,j,NA,NA,NA,2,6,"7,11,12,5,8,2,10,14,4,13,9,1,15,3,6"
14814,commdev-image-keyboard-response,226,795333,learnblock1,null,img/planet3_right.png,3,Community 3,NA,FALSE,null,j,NA,NA,NA,2,6,"7,11,12,5,8,2,10,14,4,13,9,1,15,3,6"
14814,commdev-image-keyboard-response,227,796590,learnblock1,131.40000000596046,img/planet9_right.png,9,Community 3,NA,TRUE,j,j,NA,NA,NA,2,6,"7,11,12,5,8,2,10,14,4,13,9,1,15,3,6"
14814,commdev-image-keyboard-response,228,797843,learnblock1,907.2000000178814,img/planet8_right.png,8,Community 1,NA,TRUE,j,j,NA,NA,NA,2,6,"7,11,12,5,8,2,10,14,4,13,9,1,15,3,6"
14814,commdev-image-keyboard-response,229,799097,learnblock1,885.9000000059605,img/planet11_left.png,11,Community 1,NA,TRUE,f,f,NA,NA,NA,2,6,"7,11,12,5,8,2,10,14,4,13,9,1,15,3,6"
14814,commdev-image-keyboard-response,230,800351,learnblock1,639.4000000059605,img/planet8_right.png,8,Community 1,NA,TRUE,j,j,NA,NA,NA,2,6,"7,11,12,5,8,2,10,14,4,13,9,1,15,3,6"
14814,commdev-image-keyboard-response,231,801603,learnblock1,945.7000000178814,img/planet11_right.png,11,Community 1,NA,TRUE,j,j,NA,NA,NA,2,6,"7,11,12,5,8,2,10,14,4,13,9,1,15,3,6"
14814,commdev-image-keyboard-response,232,802857,learnblock1,1052.7000000178814,img/planet8_left.png,8,Community 1,NA,TRUE,f,f,NA,NA,NA,2,6,"7,11,12,5,8,2,10,14,4,13,9,1,15,3,6"
14814,commdev-image-keyboard-response,233,804111,learnblock1,839.6999999880791,img/planet12_right.png,12,Community 1,NA,FALSE,f,j,NA,NA,NA,2,6,"7,11,12,5,8,2,10,14,4,13,9,1,15,3,6"
14814,commdev-image-keyboard-response,234,805365,learnblock1,66.09999999403954,img/planet11_right.png,11,Community 1,NA,TRUE,j,j,NA,NA,NA,2,6,"7,11,12,5,8,2,10,14,4,13,9,1,15,3,6"
14814,commdev-image-keyboard-response,235,806618,learnblock1,843.8999999761581,img/planet5_left.png,5,Community 1,NA,TRUE,f,f,NA,NA,NA,2,6,"7,11,12,5,8,2,10,14,4,13,9,1,15,3,6"
14814,commdev-image-keyboard-response,236,807871,learnblock1,839.0999999940395,img/planet2_left.png,2,Community 2,NA,TRUE,f,f,NA,NA,NA,2,6,"7,11,12,5,8,2,10,14,4,13,9,1,15,3,6"
14814,commdev-image-keyboard-response,237,809124,learnblock1,657.5999999940395,img/planet10_left.png,10,Community 2,NA,TRUE,f,f,NA,NA,NA,2,6,"7,11,12,5,8,2,10,14,4,13,9,1,15,3,6"
14814,commdev-image-keyboard-response,238,810378,learnblock1,588.5,img/planet14_left.png,14,Community 2,NA,TRUE,f,f,NA,NA,NA,2,6,"7,11,12,5,8,2,10,14,4,13,9,1,15,3,6"
14814,commdev-image-keyboard-response,239,811629,learnblock1,661.7000000178814,img/planet13_right.png,13,Community 2,NA,FALSE,f,j,NA,NA,NA,2,6,"7,11,12,5,8,2,10,14,4,13,9,1,15,3,6"
14814,commdev-image-keyboard-response,240,812884,learnblock1,755.6999999880791,img/planet2_left.png,2,Community 2,NA,FALSE,j,f,NA,NA,NA,2,6,"7,11,12,5,8,2,10,14,4,13,9,1,15,3,6"
14814,commdev-image-keyboard-response,241,814138,learnblock1,1069.5,img/planet5_left.png,5,Community 1,NA,TRUE,f,f,NA,NA,NA,2,6,"7,11,12,5,8,2,10,14,4,13,9,1,15,3,6"
14814,commdev-image-keyboard-response,242,815392,learnblock1,863.5999999940395,img/planet2_right.png,2,Community 2,NA,TRUE,j,j,NA,NA,NA,2,6,"7,11,12,5,8,2,10,14,4,13,9,1,15,3,6"
14814,commdev-image-keyboard-response,243,816648,learnblock1,768.6999999880791,img/planet5_right.png,5,Community 1,NA,TRUE,j,j,NA,NA,NA,2,6,"7,11,12,5,8,2,10,14,4,13,9,1,15,3,6"
14814,commdev-image-keyboard-response,244,817903,learnblock1,841.1000000238419,img/planet2_left.png,2,Community 2,NA,TRUE,f,f,NA,NA,NA,2,6,"7,11,12,5,8,2,10,14,4,13,9,1,15,3,6"
14814,commdev-image-keyboard-response,245,819157,learnblock1,761.6999999880791,img/planet10_left.png,10,Community 2,NA,TRUE,f,f,NA,NA,NA,2,6,"7,11,12,5,8,2,10,14,4,13,9,1,15,3,6"
14814,commdev-image-keyboard-response,246,820410,learnblock1,836.3999999761581,img/planet2_right.png,2,Community 2,NA,TRUE,j,j,NA,NA,NA,2,6,"7,11,12,5,8,2,10,14,4,13,9,1,15,3,6"
14814,commdev-image-keyboard-response,247,821666,learnblock1,966.9000000059605,img/planet4_left.png,4,Community 2,NA,TRUE,f,f,NA,NA,NA,2,6,"7,11,12,5,8,2,10,14,4,13,9,1,15,3,6"
14814,commdev-image-keyboard-response,248,822917,learnblock1,935.1999999880791,img/planet14_right.png,14,Community 2,NA,TRUE,j,j,NA,NA,NA,2,6,"7,11,12,5,8,2,10,14,4,13,9,1,15,3,6"
14814,commdev-image-keyboard-response,249,824170,learnblock1,914.2999999821186,img/planet4_right.png,4,Community 2,NA,TRUE,j,j,NA,NA,NA,2,6,"7,11,12,5,8,2,10,14,4,13,9,1,15,3,6"
14814,commdev-image-keyboard-response,250,825422,learnblock1,711.2999999821186,img/planet2_right.png,2,Community 2,NA,TRUE,j,j,NA,NA,NA,2,6,"7,11,12,5,8,2,10,14,4,13,9,1,15,3,6"
14814,commdev-image-keyboard-response,251,826676,learnblock1,723.6000000238419,img/planet5_right.png,5,Community 1,NA,TRUE,j,j,NA,NA,NA,2,6,"7,11,12,5,8,2,10,14,4,13,9,1,15,3,6"
14814,commdev-image-keyboard-response,252,827930,learnblock1,789.4000000059605,img/planet7_right.png,7,Community 1,NA,TRUE,j,j,NA,NA,NA,2,6,"7,11,12,5,8,2,10,14,4,13,9,1,15,3,6"
14814,commdev-image-keyboard-response,253,829184,learnblock1,528,img/planet11_right.png,11,Community 1,NA,TRUE,j,j,NA,NA,NA,2,6,"7,11,12,5,8,2,10,14,4,13,9,1,15,3,6"
14814,commdev-image-keyboard-response,254,830438,learnblock1,537.5,img/planet5_right.png,5,Community 1,NA,TRUE,j,j,NA,NA,NA,2,6,"7,11,12,5,8,2,10,14,4,13,9,1,15,3,6"
14814,commdev-image-keyboard-response,255,831694,learnblock1,763.1000000238419,img/planet7_right.png,7,Community 1,NA,TRUE,j,j,NA,NA,NA,2,6,"7,11,12,5,8,2,10,14,4,13,9,1,15,3,6"
14814,commdev-image-keyboard-response,256,832949,learnblock1,803.2000000178814,img/planet8_left.png,8,Community 1,NA,TRUE,f,f,NA,NA,NA,2,6,"7,11,12,5,8,2,10,14,4,13,9,1,15,3,6"
14814,commdev-image-keyboard-response,257,834202,learnblock1,716.7000000178814,img/planet9_right.png,9,Community 3,NA,TRUE,j,j,NA,NA,NA,2,6,"7,11,12,5,8,2,10,14,4,13,9,1,15,3,6"
14814,commdev-image-keyboard-response,258,835455,learnblock1,1023.4000000059605,img/planet8_right.png,8,Community 1,NA,TRUE,j,j,NA,NA,NA,2,6,"7,11,12,5,8,2,10,14,4,13,9,1,15,3,6"
14814,commdev-image-keyboard-response,259,836707,learnblock1,883.4000000059605,img/planet11_right.png,11,Community 1,NA,TRUE,j,j,NA,NA,NA,2,6,"7,11,12,5,8,2,10,14,4,13,9,1,15,3,6"
14814,commdev-image-keyboard-response,260,837962,learnblock1,806.9000000059605,img/planet8_right.png,8,Community 1,NA,TRUE,j,j,NA,NA,NA,2,6,"7,11,12,5,8,2,10,14,4,13,9,1,15,3,6"
14814,commdev-image-keyboard-response,261,839215,learnblock1,711.4000000059605,img/planet11_right.png,11,Community 1,NA,TRUE,j,j,NA,NA,NA,2,6,"7,11,12,5,8,2,10,14,4,13,9,1,15,3,6"
14814,commdev-image-keyboard-response,262,840470,learnblock1,810.7999999821186,img/planet8_left.png,8,Community 1,NA,TRUE,f,f,NA,NA,NA,2,6,"7,11,12,5,8,2,10,14,4,13,9,1,15,3,6"
14814,commdev-image-keyboard-response,263,841723,learnblock1,1099.9000000059605,img/planet11_right.png,11,Community 1,NA,TRUE,j,j,NA,NA,NA,2,6,"7,11,12,5,8,2,10,14,4,13,9,1,15,3,6"
14814,commdev-image-keyboard-response,264,842976,learnblock1,822.8999999761581,img/planet5_right.png,5,Community 1,NA,TRUE,j,j,NA,NA,NA,2,6,"7,11,12,5,8,2,10,14,4,13,9,1,15,3,6"
14814,commdev-image-keyboard-response,265,844230,learnblock1,721.7999999821186,img/planet2_right.png,2,Community 2,NA,TRUE,j,j,NA,NA,NA,2,6,"7,11,12,5,8,2,10,14,4,13,9,1,15,3,6"
14814,commdev-image-keyboard-response,266,845483,learnblock1,787.8999999761581,img/planet10_left.png,10,Community 2,NA,TRUE,f,f,NA,NA,NA,2,6,"7,11,12,5,8,2,10,14,4,13,9,1,15,3,6"
14814,commdev-image-keyboard-response,267,846737,learnblock1,null,img/planet4_left.png,4,Community 2,NA,FALSE,null,f,NA,NA,NA,2,6,"7,11,12,5,8,2,10,14,4,13,9,1,15,3,6"
14814,commdev-image-keyboard-response,268,847992,learnblock1,34.099999994039536,img/planet10_right.png,10,Community 2,NA,FALSE,f,j,NA,NA,NA,2,6,"7,11,12,5,8,2,10,14,4,13,9,1,15,3,6"
14814,commdev-image-keyboard-response,269,849248,learnblock1,725,img/planet13_left.png,13,Community 2,NA,TRUE,f,f,NA,NA,NA,2,6,"7,11,12,5,8,2,10,14,4,13,9,1,15,3,6"
14814,commdev-image-keyboard-response,270,850500,learnblock1,690.7000000178814,img/planet14_right.png,14,Community 2,NA,TRUE,j,j,NA,NA,NA,2,6,"7,11,12,5,8,2,10,14,4,13,9,1,15,3,6"
14814,commdev-image-keyboard-response,271,851754,learnblock1,733.9000000059605,img/planet13_right.png,13,Community 2,NA,FALSE,f,j,NA,NA,NA,2,6,"7,11,12,5,8,2,10,14,4,13,9,1,15,3,6"
14814,commdev-image-keyboard-response,272,853008,learnblock1,848,img/planet4_right.png,4,Community 2,NA,TRUE,j,j,NA,NA,NA,2,6,"7,11,12,5,8,2,10,14,4,13,9,1,15,3,6"
14814,commdev-image-keyboard-response,273,854261,learnblock1,754.4000000059605,img/planet13_left.png,13,Community 2,NA,TRUE,f,f,NA,NA,NA,2,6,"7,11,12,5,8,2,10,14,4,13,9,1,15,3,6"
14814,commdev-image-keyboard-response,274,855517,learnblock1,1084.1000000238419,img/planet14_right.png,14,Community 2,NA,TRUE,j,j,NA,NA,NA,2,6,"7,11,12,5,8,2,10,14,4,13,9,1,15,3,6"
14814,commdev-image-keyboard-response,275,856773,learnblock1,917.3000000119209,img/planet4_right.png,4,Community 2,NA,TRUE,j,j,NA,NA,NA,2,6,"7,11,12,5,8,2,10,14,4,13,9,1,15,3,6"
14814,commdev-image-keyboard-response,276,858029,learnblock1,669,img/planet14_left.png,14,Community 2,NA,FALSE,j,f,NA,NA,NA,2,6,"7,11,12,5,8,2,10,14,4,13,9,1,15,3,6"
14814,commdev-image-keyboard-response,277,859283,learnblock1,740.9000000059605,img/planet4_right.png,4,Community 2,NA,TRUE,j,j,NA,NA,NA,2,6,"7,11,12,5,8,2,10,14,4,13,9,1,15,3,6"
14814,commdev-image-keyboard-response,278,860537,learnblock1,1031.4000000059605,img/planet14_right.png,14,Community 2,NA,TRUE,j,j,NA,NA,NA,2,6,"7,11,12,5,8,2,10,14,4,13,9,1,15,3,6"
14814,commdev-image-keyboard-response,279,861792,learnblock1,865,img/planet10_left.png,10,Community 2,NA,TRUE,f,f,NA,NA,NA,2,6,"7,11,12,5,8,2,10,14,4,13,9,1,15,3,6"
14814,commdev-image-keyboard-response,280,863047,learnblock1,761.6000000238419,img/planet14_right.png,14,Community 2,NA,TRUE,j,j,NA,NA,NA,2,6,"7,11,12,5,8,2,10,14,4,13,9,1,15,3,6"
14814,commdev-image-keyboard-response,281,864300,learnblock1,643.3000000119209,img/planet10_left.png,10,Community 2,NA,TRUE,f,f,NA,NA,NA,2,6,"7,11,12,5,8,2,10,14,4,13,9,1,15,3,6"
14814,commdev-image-keyboard-response,282,865554,learnblock1,1046.4000000059605,img/planet14_left.png,14,Community 2,NA,TRUE,f,f,NA,NA,NA,2,6,"7,11,12,5,8,2,10,14,4,13,9,1,15,3,6"
14814,commdev-image-keyboard-response,283,866806,learnblock1,759.9000000059605,img/planet1_left.png,1,Community 3,NA,TRUE,f,f,NA,NA,NA,2,6,"7,11,12,5,8,2,10,14,4,13,9,1,15,3,6"
14814,commdev-image-keyboard-response,284,868059,learnblock1,843.4000000059605,img/planet14_right.png,14,Community 2,NA,TRUE,j,j,NA,NA,NA,2,6,"7,11,12,5,8,2,10,14,4,13,9,1,15,3,6"
14814,commdev-image-keyboard-response,285,869314,learnblock1,1063.2000000178814,img/planet4_right.png,4,Community 2,NA,TRUE,j,j,NA,NA,NA,2,6,"7,11,12,5,8,2,10,14,4,13,9,1,15,3,6"
14814,commdev-image-keyboard-response,286,870566,learnblock1,1167.4000000059605,img/planet14_right.png,14,Community 2,NA,TRUE,j,j,NA,NA,NA,2,6,"7,11,12,5,8,2,10,14,4,13,9,1,15,3,6"
14814,commdev-image-keyboard-response,287,871822,learnblock1,1092.7000000178814,img/planet4_right.png,4,Community 2,NA,TRUE,j,j,NA,NA,NA,2,6,"7,11,12,5,8,2,10,14,4,13,9,1,15,3,6"
14814,commdev-image-keyboard-response,288,873076,learnblock1,955.2999999821186,img/planet13_right.png,13,Community 2,NA,TRUE,j,j,NA,NA,NA,2,6,"7,11,12,5,8,2,10,14,4,13,9,1,15,3,6"
14814,commdev-image-keyboard-response,289,874331,learnblock1,717.5,img/planet14_right.png,14,Community 2,NA,TRUE,j,j,NA,NA,NA,2,6,"7,11,12,5,8,2,10,14,4,13,9,1,15,3,6"
14814,commdev-image-keyboard-response,290,875584,learnblock1,687.2999999821186,img/planet1_right.png,1,Community 3,NA,TRUE,j,j,NA,NA,NA,2,6,"7,11,12,5,8,2,10,14,4,13,9,1,15,3,6"
14814,commdev-image-keyboard-response,291,876838,learnblock1,562.9000000059605,img/planet14_left.png,14,Community 2,NA,FALSE,j,f,NA,NA,NA,2,6,"7,11,12,5,8,2,10,14,4,13,9,1,15,3,6"
14814,commdev-image-keyboard-response,292,878090,learnblock1,885.5,img/planet1_right.png,1,Community 3,NA,TRUE,j,j,NA,NA,NA,2,6,"7,11,12,5,8,2,10,14,4,13,9,1,15,3,6"
14814,commdev-image-keyboard-response,293,879345,learnblock1,895.6000000238419,img/planet3_left.png,3,Community 3,NA,TRUE,f,f,NA,NA,NA,2,6,"7,11,12,5,8,2,10,14,4,13,9,1,15,3,6"
14814,commdev-image-keyboard-response,294,880599,learnblock1,913.8000000119209,img/planet6_right.png,6,Community 3,NA,TRUE,j,j,NA,NA,NA,2,6,"7,11,12,5,8,2,10,14,4,13,9,1,15,3,6"
14814,commdev-image-keyboard-response,295,881854,learnblock1,1003.8999999761581,img/planet1_left.png,1,Community 3,NA,TRUE,f,f,NA,NA,NA,2,6,"7,11,12,5,8,2,10,14,4,13,9,1,15,3,6"
14814,commdev-image-keyboard-response,296,883107,learnblock1,804.1999999880791,img/planet6_right.png,6,Community 3,NA,TRUE,j,j,NA,NA,NA,2,6,"7,11,12,5,8,2,10,14,4,13,9,1,15,3,6"
14814,commdev-image-keyboard-response,297,884363,learnblock1,815.1999999880791,img/planet15_left.png,15,Community 3,NA,TRUE,f,f,NA,NA,NA,2,6,"7,11,12,5,8,2,10,14,4,13,9,1,15,3,6"
14814,commdev-image-keyboard-response,298,885615,learnblock1,935.2999999821186,img/planet6_left.png,6,Community 3,NA,TRUE,f,f,NA,NA,NA,2,6,"7,11,12,5,8,2,10,14,4,13,9,1,15,3,6"
14814,commdev-image-keyboard-response,299,886869,learnblock1,835.5999999940395,img/planet1_left.png,1,Community 3,NA,TRUE,f,f,NA,NA,NA,2,6,"7,11,12,5,8,2,10,14,4,13,9,1,15,3,6"
14814,commdev-image-keyboard-response,300,888123,learnblock1,844.8000000119209,img/planet6_left.png,6,Community 3,NA,TRUE,f,f,NA,NA,NA,2,6,"7,11,12,5,8,2,10,14,4,13,9,1,15,3,6"
14814,commdev-image-keyboard-response,301,889377,learnblock1,807.9000000059605,img/planet15_right.png,15,Community 3,NA,TRUE,j,j,NA,NA,NA,2,6,"7,11,12,5,8,2,10,14,4,13,9,1,15,3,6"
14814,commdev-image-keyboard-response,302,890630,learnblock1,833.7999999821186,img/planet9_left.png,9,Community 3,NA,TRUE,f,f,NA,NA,NA,2,6,"7,11,12,5,8,2,10,14,4,13,9,1,15,3,6"
14814,commdev-image-keyboard-response,303,891884,learnblock1,1036.5,img/planet8_right.png,8,Community 1,NA,TRUE,j,j,NA,NA,NA,2,6,"7,11,12,5,8,2,10,14,4,13,9,1,15,3,6"
14814,commdev-image-keyboard-response,304,893137,learnblock1,1078.5,img/planet7_right.png,7,Community 1,NA,TRUE,j,j,NA,NA,NA,2,6,"7,11,12,5,8,2,10,14,4,13,9,1,15,3,6"
14814,commdev-image-keyboard-response,305,894390,learnblock1,865.5999999940395,img/planet12_left.png,12,Community 1,NA,TRUE,f,f,NA,NA,NA,2,6,"7,11,12,5,8,2,10,14,4,13,9,1,15,3,6"
14814,commdev-image-keyboard-response,306,895644,learnblock1,891.8000000119209,img/planet8_left.png,8,Community 1,NA,TRUE,f,f,NA,NA,NA,2,6,"7,11,12,5,8,2,10,14,4,13,9,1,15,3,6"
14814,commdev-image-keyboard-response,307,896897,learnblock1,1023,img/planet11_right.png,11,Community 1,NA,TRUE,j,j,NA,NA,NA,2,6,"7,11,12,5,8,2,10,14,4,13,9,1,15,3,6"
14814,commdev-image-keyboard-response,308,898150,learnblock1,1002.3000000119209,img/planet7_left.png,7,Community 1,NA,TRUE,f,f,NA,NA,NA,2,6,"7,11,12,5,8,2,10,14,4,13,9,1,15,3,6"
14814,commdev-image-keyboard-response,309,899402,learnblock1,787.8999999761581,img/planet5_left.png,5,Community 1,NA,TRUE,f,f,NA,NA,NA,2,6,"7,11,12,5,8,2,10,14,4,13,9,1,15,3,6"
14814,commdev-image-keyboard-response,310,900656,learnblock1,616.5,img/planet12_right.png,12,Community 1,NA,FALSE,f,j,NA,NA,NA,2,6,"7,11,12,5,8,2,10,14,4,13,9,1,15,3,6"
14814,commdev-image-keyboard-response,311,901910,learnblock1,1147,img/planet5_left.png,5,Community 1,NA,TRUE,f,f,NA,NA,NA,2,6,"7,11,12,5,8,2,10,14,4,13,9,1,15,3,6"
14814,commdev-image-keyboard-response,312,903164,learnblock1,965.1999999880791,img/planet12_right.png,12,Community 1,NA,FALSE,f,j,NA,NA,NA,2,6,"7,11,12,5,8,2,10,14,4,13,9,1,15,3,6"
14814,commdev-image-keyboard-response,313,904418,learnblock1,158.80000001192093,img/planet11_right.png,11,Community 1,NA,TRUE,j,j,NA,NA,NA,2,6,"7,11,12,5,8,2,10,14,4,13,9,1,15,3,6"
14814,commdev-image-keyboard-response,314,905671,learnblock1,816.8000000119209,img/planet7_right.png,7,Community 1,NA,TRUE,j,j,NA,NA,NA,2,6,"7,11,12,5,8,2,10,14,4,13,9,1,15,3,6"
14814,commdev-image-keyboard-response,315,906923,learnblock1,980.6000000238419,img/planet11_right.png,11,Community 1,NA,TRUE,j,j,NA,NA,NA,2,6,"7,11,12,5,8,2,10,14,4,13,9,1,15,3,6"
14814,commdev-image-keyboard-response,316,908177,learnblock1,759.3000000119209,img/planet8_left.png,8,Community 1,NA,TRUE,f,f,NA,NA,NA,2,6,"7,11,12,5,8,2,10,14,4,13,9,1,15,3,6"
14814,commdev-image-keyboard-response,317,909430,learnblock1,857.3999999761581,img/planet9_left.png,9,Community 3,NA,TRUE,f,f,NA,NA,NA,2,6,"7,11,12,5,8,2,10,14,4,13,9,1,15,3,6"
14814,commdev-image-keyboard-response,318,910684,learnblock1,1124.800000011921,img/planet15_left.png,15,Community 3,NA,TRUE,f,f,NA,NA,NA,2,6,"7,11,12,5,8,2,10,14,4,13,9,1,15,3,6"
14814,commdev-image-keyboard-response,319,911937,learnblock1,871.2999999821186,img/planet6_left.png,6,Community 3,NA,TRUE,f,f,NA,NA,NA,2,6,"7,11,12,5,8,2,10,14,4,13,9,1,15,3,6"
14814,commdev-image-keyboard-response,320,913191,learnblock1,705.9000000059605,img/planet9_left.png,9,Community 3,NA,TRUE,f,f,NA,NA,NA,2,6,"7,11,12,5,8,2,10,14,4,13,9,1,15,3,6"
14814,commdev-image-keyboard-response,321,914443,learnblock1,580.8000000119209,img/planet3_right.png,3,Community 3,NA,FALSE,f,j,NA,NA,NA,2,6,"7,11,12,5,8,2,10,14,4,13,9,1,15,3,6"
14814,commdev-image-keyboard-response,322,915695,learnblock1,831.7000000178814,img/planet9_left.png,9,Community 3,NA,TRUE,f,f,NA,NA,NA,2,6,"7,11,12,5,8,2,10,14,4,13,9,1,15,3,6"
14814,commdev-image-keyboard-response,323,916951,learnblock1,1020.3000000119209,img/planet8_left.png,8,Community 1,NA,TRUE,f,f,NA,NA,NA,2,6,"7,11,12,5,8,2,10,14,4,13,9,1,15,3,6"
14814,commdev-image-keyboard-response,324,918204,learnblock1,812.4000000059605,img/planet9_left.png,9,Community 3,NA,TRUE,f,f,NA,NA,NA,2,6,"7,11,12,5,8,2,10,14,4,13,9,1,15,3,6"
14814,commdev-image-keyboard-response,325,919458,learnblock1,863,img/planet6_right.png,6,Community 3,NA,TRUE,j,j,NA,NA,NA,2,6,"7,11,12,5,8,2,10,14,4,13,9,1,15,3,6"
14814,commdev-image-keyboard-response,326,920710,learnblock1,633.9000000059605,img/planet1_right.png,1,Community 3,NA,TRUE,j,j,NA,NA,NA,2,6,"7,11,12,5,8,2,10,14,4,13,9,1,15,3,6"
14814,commdev-image-keyboard-response,327,921964,learnblock1,573.0999999940395,img/planet3_left.png,3,Community 3,NA,FALSE,j,f,NA,NA,NA,2,6,"7,11,12,5,8,2,10,14,4,13,9,1,15,3,6"
14814,commdev-image-keyboard-response,328,923218,learnblock1,null,img/planet9_right.png,9,Community 3,NA,FALSE,null,j,NA,NA,NA,2,6,"7,11,12,5,8,2,10,14,4,13,9,1,15,3,6"
14814,commdev-image-keyboard-response,329,924471,learnblock1,121,img/planet3_left.png,3,Community 3,NA,FALSE,j,f,NA,NA,NA,2,6,"7,11,12,5,8,2,10,14,4,13,9,1,15,3,6"
14814,commdev-image-keyboard-response,330,925724,learnblock1,1132.2000000178814,img/planet1_left.png,1,Community 3,NA,TRUE,f,f,NA,NA,NA,2,6,"7,11,12,5,8,2,10,14,4,13,9,1,15,3,6"
14814,commdev-image-keyboard-response,331,926978,learnblock1,623.1999999880791,img/planet3_left.png,3,Community 3,NA,TRUE,f,f,NA,NA,NA,2,6,"7,11,12,5,8,2,10,14,4,13,9,1,15,3,6"
14814,commdev-image-keyboard-response,332,928230,learnblock1,594,img/planet1_left.png,1,Community 3,NA,TRUE,f,f,NA,NA,NA,2,6,"7,11,12,5,8,2,10,14,4,13,9,1,15,3,6"
14814,commdev-image-keyboard-response,333,929484,learnblock1,853,img/planet6_left.png,6,Community 3,NA,TRUE,f,f,NA,NA,NA,2,6,"7,11,12,5,8,2,10,14,4,13,9,1,15,3,6"
14814,commdev-image-keyboard-response,334,930738,learnblock1,847.2999999821186,img/planet15_right.png,15,Community 3,NA,TRUE,j,j,NA,NA,NA,2,6,"7,11,12,5,8,2,10,14,4,13,9,1,15,3,6"
14814,commdev-image-keyboard-response,335,931991,learnblock1,673.7999999821186,img/planet9_right.png,9,Community 3,NA,TRUE,j,j,NA,NA,NA,2,6,"7,11,12,5,8,2,10,14,4,13,9,1,15,3,6"
14814,commdev-image-keyboard-response,336,933243,learnblock1,524.5,img/planet15_left.png,15,Community 3,NA,FALSE,j,f,NA,NA,NA,2,6,"7,11,12,5,8,2,10,14,4,13,9,1,15,3,6"
14814,commdev-image-keyboard-response,337,934498,learnblock1,1225.300000011921,img/planet1_right.png,1,Community 3,NA,FALSE,f,j,NA,NA,NA,2,6,"7,11,12,5,8,2,10,14,4,13,9,1,15,3,6"
14814,commdev-image-keyboard-response,338,935754,learnblock1,922.1000000238419,img/planet3_right.png,3,Community 3,NA,FALSE,f,j,NA,NA,NA,2,6,"7,11,12,5,8,2,10,14,4,13,9,1,15,3,6"
14814,commdev-image-keyboard-response,339,937005,learnblock1,1169.9000000059605,img/planet15_right.png,15,Community 3,NA,TRUE,j,j,NA,NA,NA,2,6,"7,11,12,5,8,2,10,14,4,13,9,1,15,3,6"
14814,commdev-image-keyboard-response,340,938262,learnblock1,806.8999999761581,img/planet9_left.png,9,Community 3,NA,TRUE,f,f,NA,NA,NA,2,6,"7,11,12,5,8,2,10,14,4,13,9,1,15,3,6"
14814,commdev-image-keyboard-response,341,939516,learnblock1,774.4000000059605,img/planet15_right.png,15,Community 3,NA,TRUE,j,j,NA,NA,NA,2,6,"7,11,12,5,8,2,10,14,4,13,9,1,15,3,6"
14814,commdev-image-keyboard-response,342,940769,learnblock1,576.0999999940395,img/planet1_left.png,1,Community 3,NA,TRUE,f,f,NA,NA,NA,2,6,"7,11,12,5,8,2,10,14,4,13,9,1,15,3,6"
14814,commdev-image-keyboard-response,343,942023,learnblock1,586.0999999940395,img/planet14_right.png,14,Community 2,NA,TRUE,j,j,NA,NA,NA,2,6,"7,11,12,5,8,2,10,14,4,13,9,1,15,3,6"
14814,commdev-image-keyboard-response,344,943277,learnblock1,420.19999998807907,img/planet10_right.png,10,Community 2,NA,FALSE,f,j,NA,NA,NA,2,6,"7,11,12,5,8,2,10,14,4,13,9,1,15,3,6"
14814,commdev-image-keyboard-response,345,944530,learnblock1,1087,img/planet13_right.png,13,Community 2,NA,TRUE,j,j,NA,NA,NA,2,6,"7,11,12,5,8,2,10,14,4,13,9,1,15,3,6"
14814,commdev-image-keyboard-response,346,945784,learnblock1,841.8999999761581,img/planet4_left.png,4,Community 2,NA,TRUE,f,f,NA,NA,NA,2,6,"7,11,12,5,8,2,10,14,4,13,9,1,15,3,6"
14814,commdev-image-keyboard-response,347,947037,learnblock1,835.0999999940395,img/planet10_left.png,10,Community 2,NA,TRUE,f,f,NA,NA,NA,2,6,"7,11,12,5,8,2,10,14,4,13,9,1,15,3,6"
14814,commdev-image-keyboard-response,348,948293,learnblock1,823.0999999940395,img/planet14_left.png,14,Community 2,NA,TRUE,f,f,NA,NA,NA,2,6,"7,11,12,5,8,2,10,14,4,13,9,1,15,3,6"
14814,commdev-image-keyboard-response,349,949549,learnblock1,959.4000000059605,img/planet4_right.png,4,Community 2,NA,TRUE,j,j,NA,NA,NA,2,6,"7,11,12,5,8,2,10,14,4,13,9,1,15,3,6"
14814,commdev-image-keyboard-response,350,950802,learnblock1,999.7999999821186,img/planet2_right.png,2,Community 2,NA,TRUE,j,j,NA,NA,NA,2,6,"7,11,12,5,8,2,10,14,4,13,9,1,15,3,6"
14814,commdev-image-keyboard-response,351,952054,learnblock1,1018,img/planet10_left.png,10,Community 2,NA,FALSE,j,f,NA,NA,NA,2,6,"7,11,12,5,8,2,10,14,4,13,9,1,15,3,6"
14814,commdev-image-keyboard-response,352,953308,learnblock1,1142.1000000238419,img/planet2_right.png,2,Community 2,NA,FALSE,f,j,NA,NA,NA,2,6,"7,11,12,5,8,2,10,14,4,13,9,1,15,3,6"
14814,commdev-image-keyboard-response,353,954562,learnblock1,1055.4000000059605,img/planet13_left.png,13,Community 2,NA,FALSE,j,f,NA,NA,NA,2,6,"7,11,12,5,8,2,10,14,4,13,9,1,15,3,6"
14814,commdev-image-keyboard-response,354,955816,learnblock1,177.7999999821186,img/planet10_left.png,10,Community 2,NA,FALSE,j,f,NA,NA,NA,2,6,"7,11,12,5,8,2,10,14,4,13,9,1,15,3,6"
14814,commdev-image-keyboard-response,355,957069,learnblock1,156.30000001192093,img/planet14_right.png,14,Community 2,NA,TRUE,j,j,NA,NA,NA,2,6,"7,11,12,5,8,2,10,14,4,13,9,1,15,3,6"
14814,commdev-image-keyboard-response,356,958321,learnblock1,646.7999999821186,img/planet10_left.png,10,Community 2,NA,TRUE,f,f,NA,NA,NA,2,6,"7,11,12,5,8,2,10,14,4,13,9,1,15,3,6"
14814,commdev-image-keyboard-response,357,959576,learnblock1,474.69999998807907,img/planet14_right.png,14,Community 2,NA,TRUE,j,j,NA,NA,NA,2,6,"7,11,12,5,8,2,10,14,4,13,9,1,15,3,6"
14814,commdev-image-keyboard-response,358,960829,learnblock1,788.8000000119209,img/planet13_left.png,13,Community 2,NA,TRUE,f,f,NA,NA,NA,2,6,"7,11,12,5,8,2,10,14,4,13,9,1,15,3,6"
14814,commdev-image-keyboard-response,359,962081,learnblock1,871.4000000059605,img/planet10_left.png,10,Community 2,NA,TRUE,f,f,NA,NA,NA,2,6,"7,11,12,5,8,2,10,14,4,13,9,1,15,3,6"
14814,commdev-image-keyboard-response,360,963334,learnblock1,874.8000000119209,img/planet13_right.png,13,Community 2,NA,TRUE,j,j,NA,NA,NA,2,6,"7,11,12,5,8,2,10,14,4,13,9,1,15,3,6"
14814,commdev-image-keyboard-response,361,964589,learnblock1,870.5,img/planet10_right.png,10,Community 2,NA,TRUE,j,j,NA,NA,NA,2,6,"7,11,12,5,8,2,10,14,4,13,9,1,15,3,6"
14814,commdev-image-keyboard-response,362,965842,learnblock1,1215.5,img/planet2_left.png,2,Community 2,NA,TRUE,f,f,NA,NA,NA,2,6,"7,11,12,5,8,2,10,14,4,13,9,1,15,3,6"
14814,commdev-image-keyboard-response,363,967096,learnblock1,970.6999999880791,img/planet5_right.png,5,Community 1,NA,TRUE,j,j,NA,NA,NA,2,6,"7,11,12,5,8,2,10,14,4,13,9,1,15,3,6"
14814,commdev-image-keyboard-response,364,968349,learnblock1,1156.7999999821186,img/planet11_right.png,11,Community 1,NA,TRUE,j,j,NA,NA,NA,2,6,"7,11,12,5,8,2,10,14,4,13,9,1,15,3,6"
14814,commdev-image-keyboard-response,365,969603,learnblock1,1055.300000011921,img/planet8_right.png,8,Community 1,NA,TRUE,j,j,NA,NA,NA,2,6,"7,11,12,5,8,2,10,14,4,13,9,1,15,3,6"
14814,commdev-image-keyboard-response,366,970856,learnblock1,881.4000000059605,img/planet7_left.png,7,Community 1,NA,TRUE,f,f,NA,NA,NA,2,6,"7,11,12,5,8,2,10,14,4,13,9,1,15,3,6"
14814,commdev-image-keyboard-response,367,972109,learnblock1,620.1999999880791,img/planet12_right.png,12,Community 1,NA,TRUE,j,j,NA,NA,NA,2,6,"7,11,12,5,8,2,10,14,4,13,9,1,15,3,6"
14814,commdev-image-keyboard-response,368,973363,learnblock1,775.3000000119209,img/planet5_left.png,5,Community 1,NA,TRUE,f,f,NA,NA,NA,2,6,"7,11,12,5,8,2,10,14,4,13,9,1,15,3,6"
14814,commdev-image-keyboard-response,369,974615,learnblock1,1234,img/planet7_right.png,7,Community 1,NA,TRUE,j,j,NA,NA,NA,2,6,"7,11,12,5,8,2,10,14,4,13,9,1,15,3,6"
14814,commdev-image-keyboard-response,370,975867,learnblock1,1093.9000000059605,img/planet12_right.png,12,Community 1,NA,TRUE,j,j,NA,NA,NA,2,6,"7,11,12,5,8,2,10,14,4,13,9,1,15,3,6"
14814,commdev-image-keyboard-response,371,977121,learnblock1,824.5,img/planet11_right.png,11,Community 1,NA,TRUE,j,j,NA,NA,NA,2,6,"7,11,12,5,8,2,10,14,4,13,9,1,15,3,6"
14814,commdev-image-keyboard-response,372,978374,learnblock1,987.8000000119209,img/planet8_right.png,8,Community 1,NA,TRUE,j,j,NA,NA,NA,2,6,"7,11,12,5,8,2,10,14,4,13,9,1,15,3,6"
14814,commdev-image-keyboard-response,373,979629,learnblock1,966.9000000059605,img/planet12_left.png,12,Community 1,NA,TRUE,f,f,NA,NA,NA,2,6,"7,11,12,5,8,2,10,14,4,13,9,1,15,3,6"
14814,commdev-image-keyboard-response,374,980883,learnblock1,831.7999999821186,img/planet11_left.png,11,Community 1,NA,TRUE,f,f,NA,NA,NA,2,6,"7,11,12,5,8,2,10,14,4,13,9,1,15,3,6"
14814,commdev-image-keyboard-response,375,982136,learnblock1,730,img/planet5_left.png,5,Community 1,NA,TRUE,f,f,NA,NA,NA,2,6,"7,11,12,5,8,2,10,14,4,13,9,1,15,3,6"
14814,commdev-image-keyboard-response,376,983390,learnblock1,875,img/planet2_right.png,2,Community 2,NA,TRUE,j,j,NA,NA,NA,2,6,"7,11,12,5,8,2,10,14,4,13,9,1,15,3,6"
14814,commdev-image-keyboard-response,377,984644,learnblock1,991.4000000059605,img/planet5_left.png,5,Community 1,NA,TRUE,f,f,NA,NA,NA,2,6,"7,11,12,5,8,2,10,14,4,13,9,1,15,3,6"
14814,commdev-image-keyboard-response,378,985895,learnblock1,640.9000000059605,img/planet2_left.png,2,Community 2,NA,FALSE,j,f,NA,NA,NA,2,6,"7,11,12,5,8,2,10,14,4,13,9,1,15,3,6"
14814,commdev-image-keyboard-response,379,987150,learnblock1,813,img/planet10_left.png,10,Community 2,NA,FALSE,j,f,NA,NA,NA,2,6,"7,11,12,5,8,2,10,14,4,13,9,1,15,3,6"
14814,commdev-image-keyboard-response,380,988403,learnblock1,942.1999999880791,img/planet2_left.png,2,Community 2,NA,TRUE,f,f,NA,NA,NA,2,6,"7,11,12,5,8,2,10,14,4,13,9,1,15,3,6"
14814,commdev-image-keyboard-response,381,989657,learnblock1,849.8999999761581,img/planet5_left.png,5,Community 1,NA,TRUE,f,f,NA,NA,NA,2,6,"7,11,12,5,8,2,10,14,4,13,9,1,15,3,6"
14814,commdev-image-keyboard-response,382,990908,learnblock1,null,img/planet7_right.png,7,Community 1,NA,FALSE,null,j,NA,NA,NA,2,6,"7,11,12,5,8,2,10,14,4,13,9,1,15,3,6"
14814,commdev-image-keyboard-response,383,992162,learnblock1,1.0999999940395355,img/planet8_left.png,8,Community 1,NA,FALSE,j,f,NA,NA,NA,2,6,"7,11,12,5,8,2,10,14,4,13,9,1,15,3,6"
14814,commdev-image-keyboard-response,384,993416,learnblock1,986.7999999821186,img/planet11_right.png,11,Community 1,NA,TRUE,j,j,NA,NA,NA,2,6,"7,11,12,5,8,2,10,14,4,13,9,1,15,3,6"
14814,commdev-image-keyboard-response,385,994670,learnblock1,null,img/planet8_right.png,8,Community 1,NA,FALSE,null,j,NA,NA,NA,2,6,"7,11,12,5,8,2,10,14,4,13,9,1,15,3,6"
14814,commdev-image-keyboard-response,386,995923,learnblock1,86.09999999403954,img/planet7_left.png,7,Community 1,NA,FALSE,j,f,NA,NA,NA,2,6,"7,11,12,5,8,2,10,14,4,13,9,1,15,3,6"
14814,commdev-image-keyboard-response,387,997177,learnblock1,null,img/planet12_left.png,12,Community 1,NA,FALSE,null,f,NA,NA,NA,2,6,"7,11,12,5,8,2,10,14,4,13,9,1,15,3,6"
14814,commdev-image-keyboard-response,388,998431,learnblock1,19.5,img/planet8_right.png,8,Community 1,NA,FALSE,f,j,NA,NA,NA,2,6,"7,11,12,5,8,2,10,14,4,13,9,1,15,3,6"
14814,commdev-image-keyboard-response,389,999684,learnblock1,1093.7999999821186,img/planet9_right.png,9,Community 3,NA,FALSE,f,j,NA,NA,NA,2,6,"7,11,12,5,8,2,10,14,4,13,9,1,15,3,6"
14814,commdev-image-keyboard-response,390,1000937,learnblock1,896.6999999880791,img/planet15_right.png,15,Community 3,NA,TRUE,j,j,NA,NA,NA,2,6,"7,11,12,5,8,2,10,14,4,13,9,1,15,3,6"
14814,commdev-image-keyboard-response,391,1002190,learnblock1,956.2999999821186,img/planet1_left.png,1,Community 3,NA,TRUE,f,f,NA,NA,NA,2,6,"7,11,12,5,8,2,10,14,4,13,9,1,15,3,6"
14814,commdev-image-keyboard-response,392,1003441,learnblock1,847.3999999761581,img/planet14_left.png,14,Community 2,NA,TRUE,f,f,NA,NA,NA,2,6,"7,11,12,5,8,2,10,14,4,13,9,1,15,3,6"
14814,commdev-image-keyboard-response,393,1004695,learnblock1,923.7999999821186,img/planet1_left.png,1,Community 3,NA,TRUE,f,f,NA,NA,NA,2,6,"7,11,12,5,8,2,10,14,4,13,9,1,15,3,6"
14814,commdev-image-keyboard-response,394,1005951,learnblock1,893.6999999880791,img/planet3_right.png,3,Community 3,NA,TRUE,j,j,NA,NA,NA,2,6,"7,11,12,5,8,2,10,14,4,13,9,1,15,3,6"
14814,commdev-image-keyboard-response,395,1007203,learnblock1,781.4000000059605,img/planet9_left.png,9,Community 3,NA,TRUE,f,f,NA,NA,NA,2,6,"7,11,12,5,8,2,10,14,4,13,9,1,15,3,6"
14814,commdev-image-keyboard-response,396,1008458,learnblock1,810.3999999761581,img/planet3_right.png,3,Community 3,NA,TRUE,j,j,NA,NA,NA,2,6,"7,11,12,5,8,2,10,14,4,13,9,1,15,3,6"
14814,commdev-image-keyboard-response,397,1009710,learnblock1,875.6999999880791,img/planet9_right.png,9,Community 3,NA,TRUE,j,j,NA,NA,NA,2,6,"7,11,12,5,8,2,10,14,4,13,9,1,15,3,6"
14814,commdev-image-keyboard-response,398,1010964,learnblock1,null,img/planet3_right.png,3,Community 3,NA,FALSE,null,j,NA,NA,NA,2,6,"7,11,12,5,8,2,10,14,4,13,9,1,15,3,6"
14814,commdev-image-keyboard-response,399,1012216,learnblock1,0.699999988079071,img/planet1_left.png,1,Community 3,NA,TRUE,f,f,NA,NA,NA,2,6,"7,11,12,5,8,2,10,14,4,13,9,1,15,3,6"
14814,commdev-image-keyboard-response,400,1013470,learnblock1,null,img/planet6_left.png,6,Community 3,NA,FALSE,null,f,NA,NA,NA,2,6,"7,11,12,5,8,2,10,14,4,13,9,1,15,3,6"
14814,commdev-image-keyboard-response,401,1014723,learnblock1,30.799999982118607,img/planet9_left.png,9,Community 3,NA,TRUE,f,f,NA,NA,NA,2,6,"7,11,12,5,8,2,10,14,4,13,9,1,15,3,6"
14814,commdev-image-keyboard-response,402,1015977,learnblock1,850.1999999880791,img/planet3_left.png,3,Community 3,NA,TRUE,f,f,NA,NA,NA,2,6,"7,11,12,5,8,2,10,14,4,13,9,1,15,3,6"
14814,commdev-image-keyboard-response,403,1017230,learnblock1,972.8000000119209,img/planet1_right.png,1,Community 3,NA,TRUE,j,j,NA,NA,NA,2,6,"7,11,12,5,8,2,10,14,4,13,9,1,15,3,6"
14814,commdev-image-keyboard-response,404,1018483,learnblock1,783.0999999940395,img/planet3_left.png,3,Community 3,NA,TRUE,f,f,NA,NA,NA,2,6,"7,11,12,5,8,2,10,14,4,13,9,1,15,3,6"
14814,commdev-image-keyboard-response,405,1019736,learnblock1,699,img/planet9_left.png,9,Community 3,NA,TRUE,f,f,NA,NA,NA,2,6,"7,11,12,5,8,2,10,14,4,13,9,1,15,3,6"
14814,commdev-image-keyboard-response,406,1020990,learnblock1,933.3000000119209,img/planet8_left.png,8,Community 1,NA,TRUE,f,f,NA,NA,NA,2,6,"7,11,12,5,8,2,10,14,4,13,9,1,15,3,6"
14814,commdev-image-keyboard-response,407,1022244,learnblock1,1048.0999999940395,img/planet12_right.png,12,Community 1,NA,TRUE,j,j,NA,NA,NA,2,6,"7,11,12,5,8,2,10,14,4,13,9,1,15,3,6"
14814,commdev-image-keyboard-response,408,1023498,learnblock1,713.9000000059605,img/planet11_left.png,11,Community 1,NA,TRUE,f,f,NA,NA,NA,2,6,"7,11,12,5,8,2,10,14,4,13,9,1,15,3,6"
14814,commdev-image-keyboard-response,409,1024751,learnblock1,948,img/planet7_right.png,7,Community 1,NA,TRUE,j,j,NA,NA,NA,2,6,"7,11,12,5,8,2,10,14,4,13,9,1,15,3,6"
14814,commdev-image-keyboard-response,410,1026002,learnblock1,1022.5,img/planet12_left.png,12,Community 1,NA,FALSE,j,f,NA,NA,NA,2,6,"7,11,12,5,8,2,10,14,4,13,9,1,15,3,6"
14814,commdev-image-keyboard-response,411,1027254,learnblock1,1099.5,img/planet11_left.png,11,Community 1,NA,FALSE,j,f,NA,NA,NA,2,6,"7,11,12,5,8,2,10,14,4,13,9,1,15,3,6"
14814,commdev-image-keyboard-response,412,1028510,learnblock1,1111.8999999761581,img/planet7_left.png,7,Community 1,NA,TRUE,f,f,NA,NA,NA,2,6,"7,11,12,5,8,2,10,14,4,13,9,1,15,3,6"
14814,commdev-image-keyboard-response,413,1029764,learnblock1,1087.199999988079,img/planet5_right.png,5,Community 1,NA,TRUE,j,j,NA,NA,NA,2,6,"7,11,12,5,8,2,10,14,4,13,9,1,15,3,6"
14814,commdev-image-keyboard-response,414,1031017,learnblock1,970.3000000119209,img/planet2_left.png,2,Community 2,NA,FALSE,j,f,NA,NA,NA,2,6,"7,11,12,5,8,2,10,14,4,13,9,1,15,3,6"
14814,commdev-image-keyboard-response,415,1032270,learnblock1,187.40000000596046,img/planet5_left.png,5,Community 1,NA,TRUE,f,f,NA,NA,NA,2,6,"7,11,12,5,8,2,10,14,4,13,9,1,15,3,6"
14814,commdev-image-keyboard-response,416,1033524,learnblock1,912,img/planet7_right.png,7,Community 1,NA,TRUE,j,j,NA,NA,NA,2,6,"7,11,12,5,8,2,10,14,4,13,9,1,15,3,6"
14814,commdev-image-keyboard-response,417,1034777,learnblock1,754.1999999880791,img/planet8_left.png,8,Community 1,NA,TRUE,f,f,NA,NA,NA,2,6,"7,11,12,5,8,2,10,14,4,13,9,1,15,3,6"
14814,commdev-image-keyboard-response,418,1036031,learnblock1,795.2999999821186,img/planet12_right.png,12,Community 1,NA,TRUE,j,j,NA,NA,NA,2,6,"7,11,12,5,8,2,10,14,4,13,9,1,15,3,6"
14814,commdev-image-keyboard-response,419,1037285,learnblock1,694.7000000178814,img/planet11_left.png,11,Community 1,NA,TRUE,f,f,NA,NA,NA,2,6,"7,11,12,5,8,2,10,14,4,13,9,1,15,3,6"
14814,commdev-image-keyboard-response,420,1038537,learnblock1,520.9000000059605,img/planet12_right.png,12,Community 1,NA,TRUE,j,j,NA,NA,NA,2,6,"7,11,12,5,8,2,10,14,4,13,9,1,15,3,6"
14814,commdev-image-keyboard-response,421,1039791,learnblock1,388.30000001192093,img/planet7_right.png,7,Community 1,NA,FALSE,f,j,NA,NA,NA,2,6,"7,11,12,5,8,2,10,14,4,13,9,1,15,3,6"
14814,commdev-image-keyboard-response,422,1041047,learnblock1,847.5,img/planet5_left.png,5,Community 1,NA,FALSE,j,f,NA,NA,NA,2,6,"7,11,12,5,8,2,10,14,4,13,9,1,15,3,6"
14814,commdev-image-keyboard-response,423,1042303,learnblock1,910.4000000059605,img/planet11_left.png,11,Community 1,NA,FALSE,j,f,NA,NA,NA,2,6,"7,11,12,5,8,2,10,14,4,13,9,1,15,3,6"
14814,commdev-image-keyboard-response,424,1043556,learnblock1,151.2999999821186,img/planet8_left.png,8,Community 1,NA,TRUE,f,f,NA,NA,NA,2,6,"7,11,12,5,8,2,10,14,4,13,9,1,15,3,6"
14814,commdev-image-keyboard-response,425,1044810,learnblock1,1081.7999999821186,img/planet7_left.png,7,Community 1,NA,TRUE,f,f,NA,NA,NA,2,6,"7,11,12,5,8,2,10,14,4,13,9,1,15,3,6"
14814,commdev-image-keyboard-response,426,1046062,learnblock1,883.5,img/planet12_right.png,12,Community 1,NA,TRUE,j,j,NA,NA,NA,2,6,"7,11,12,5,8,2,10,14,4,13,9,1,15,3,6"
14814,commdev-image-keyboard-response,427,1047316,learnblock1,839.8000000119209,img/planet8_left.png,8,Community 1,NA,TRUE,f,f,NA,NA,NA,2,6,"7,11,12,5,8,2,10,14,4,13,9,1,15,3,6"
14814,commdev-image-keyboard-response,428,1048568,learnblock1,962.2999999821186,img/planet11_right.png,11,Community 1,NA,TRUE,j,j,NA,NA,NA,2,6,"7,11,12,5,8,2,10,14,4,13,9,1,15,3,6"
14814,commdev-image-keyboard-response,429,1049823,learnblock1,750.0999999940395,img/planet8_left.png,8,Community 1,NA,TRUE,f,f,NA,NA,NA,2,6,"7,11,12,5,8,2,10,14,4,13,9,1,15,3,6"
14814,commdev-image-keyboard-response,430,1051076,learnblock1,728.8000000119209,img/planet9_right.png,9,Community 3,NA,FALSE,f,j,NA,NA,NA,2,6,"7,11,12,5,8,2,10,14,4,13,9,1,15,3,6"
14814,commdev-image-keyboard-response,431,1052330,learnblock1,1145.699999988079,img/planet3_right.png,3,Community 3,NA,TRUE,j,j,NA,NA,NA,2,6,"7,11,12,5,8,2,10,14,4,13,9,1,15,3,6"
14814,commdev-image-keyboard-response,432,1053586,learnblock1,748.7000000178814,img/planet9_left.png,9,Community 3,NA,FALSE,j,f,NA,NA,NA,2,6,"7,11,12,5,8,2,10,14,4,13,9,1,15,3,6"
14814,commdev-image-keyboard-response,433,1054840,learnblock1,220.39999997615814,img/planet3_right.png,3,Community 3,NA,TRUE,j,j,NA,NA,NA,2,6,"7,11,12,5,8,2,10,14,4,13,9,1,15,3,6"
14814,commdev-image-keyboard-response,434,1056093,learnblock1,null,img/planet15_left.png,15,Community 3,NA,FALSE,null,f,NA,NA,NA,2,6,"7,11,12,5,8,2,10,14,4,13,9,1,15,3,6"
14814,commdev-image-keyboard-response,435,1057349,learnblock1,79.90000000596046,img/planet6_right.png,6,Community 3,NA,TRUE,j,j,NA,NA,NA,2,6,"7,11,12,5,8,2,10,14,4,13,9,1,15,3,6"
14814,commdev-image-keyboard-response,436,1058603,learnblock1,839.9000000059605,img/planet9_left.png,9,Community 3,NA,TRUE,f,f,NA,NA,NA,2,6,"7,11,12,5,8,2,10,14,4,13,9,1,15,3,6"
14814,commdev-image-keyboard-response,437,1059858,learnblock1,1092.2999999821186,img/planet6_right.png,6,Community 3,NA,TRUE,j,j,NA,NA,NA,2,6,"7,11,12,5,8,2,10,14,4,13,9,1,15,3,6"
14814,commdev-image-keyboard-response,438,1061114,learnblock1,772.5,img/planet1_right.png,1,Community 3,NA,FALSE,f,j,NA,NA,NA,2,6,"7,11,12,5,8,2,10,14,4,13,9,1,15,3,6"
14814,commdev-image-keyboard-response,439,1062368,learnblock1,508.40000000596046,img/planet15_left.png,15,Community 3,NA,FALSE,j,f,NA,NA,NA,2,6,"7,11,12,5,8,2,10,14,4,13,9,1,15,3,6"
14814,commdev-image-keyboard-response,440,1063623,learnblock1,974.5,img/planet3_left.png,3,Community 3,NA,TRUE,f,f,NA,NA,NA,2,6,"7,11,12,5,8,2,10,14,4,13,9,1,15,3,6"
14814,commdev-image-keyboard-response,441,1064874,learnblock1,839.4000000059605,img/planet6_right.png,6,Community 3,NA,TRUE,j,j,NA,NA,NA,2,6,"7,11,12,5,8,2,10,14,4,13,9,1,15,3,6"
14814,commdev-image-keyboard-response,442,1066127,learnblock1,652.3999999761581,img/planet1_left.png,1,Community 3,NA,TRUE,f,f,NA,NA,NA,2,6,"7,11,12,5,8,2,10,14,4,13,9,1,15,3,6"
14814,commdev-image-keyboard-response,443,1067381,learnblock1,919.5,img/planet14_left.png,14,Community 2,NA,TRUE,f,f,NA,NA,NA,2,6,"7,11,12,5,8,2,10,14,4,13,9,1,15,3,6"
14814,commdev-image-keyboard-response,444,1068633,learnblock1,1041.9000000059605,img/planet13_left.png,13,Community 2,NA,TRUE,f,f,NA,NA,NA,2,6,"7,11,12,5,8,2,10,14,4,13,9,1,15,3,6"
14814,commdev-image-keyboard-response,445,1069887,learnblock1,957.7000000178814,img/planet14_left.png,14,Community 2,NA,TRUE,f,f,NA,NA,NA,2,6,"7,11,12,5,8,2,10,14,4,13,9,1,15,3,6"
14814,commdev-image-keyboard-response,446,1071141,learnblock1,856,img/planet13_left.png,13,Community 2,NA,TRUE,f,f,NA,NA,NA,2,6,"7,11,12,5,8,2,10,14,4,13,9,1,15,3,6"
14814,commdev-image-keyboard-response,447,1072394,learnblock1,874,img/planet4_left.png,4,Community 2,NA,TRUE,f,f,NA,NA,NA,2,6,"7,11,12,5,8,2,10,14,4,13,9,1,15,3,6"
14814,commdev-image-keyboard-response,448,1073648,learnblock1,859.3999999761581,img/planet2_right.png,2,Community 2,NA,TRUE,j,j,NA,NA,NA,2,6,"7,11,12,5,8,2,10,14,4,13,9,1,15,3,6"
14814,commdev-image-keyboard-response,449,1074901,learnblock1,887.2000000178814,img/planet10_right.png,10,Community 2,NA,TRUE,j,j,NA,NA,NA,2,6,"7,11,12,5,8,2,10,14,4,13,9,1,15,3,6"
14814,commdev-image-keyboard-response,450,1076155,learnblock1,657.6999999880791,img/planet13_right.png,13,Community 2,NA,TRUE,j,j,NA,NA,NA,2,6,"7,11,12,5,8,2,10,14,4,13,9,1,15,3,6"
14814,commdev-image-keyboard-response,451,1077410,learnblock1,563.0999999940395,img/planet10_right.png,10,Community 2,NA,TRUE,j,j,NA,NA,NA,2,6,"7,11,12,5,8,2,10,14,4,13,9,1,15,3,6"
14814,commdev-image-keyboard-response,452,1078664,learnblock1,404.60000002384186,img/planet13_right.png,13,Community 2,NA,TRUE,j,j,NA,NA,NA,2,6,"7,11,12,5,8,2,10,14,4,13,9,1,15,3,6"
14814,commdev-image-keyboard-response,453,1079915,learnblock1,302.5,img/planet2_left.png,2,Community 2,NA,FALSE,j,f,NA,NA,NA,2,6,"7,11,12,5,8,2,10,14,4,13,9,1,15,3,6"
14814,commdev-image-keyboard-response,454,1081168,learnblock1,1035.4000000059605,img/planet13_left.png,13,Community 2,NA,TRUE,f,f,NA,NA,NA,2,6,"7,11,12,5,8,2,10,14,4,13,9,1,15,3,6"
14814,commdev-image-keyboard-response,455,1082420,learnblock1,1111.5999999940395,img/planet2_left.png,2,Community 2,NA,TRUE,f,f,NA,NA,NA,2,6,"7,11,12,5,8,2,10,14,4,13,9,1,15,3,6"
14814,commdev-image-keyboard-response,456,1083674,learnblock1,850.7999999821186,img/planet13_right.png,13,Community 2,NA,TRUE,j,j,NA,NA,NA,2,6,"7,11,12,5,8,2,10,14,4,13,9,1,15,3,6"
14814,commdev-image-keyboard-response,457,1084928,learnblock1,684.8000000119209,img/planet14_right.png,14,Community 2,NA,FALSE,f,j,NA,NA,NA,2,6,"7,11,12,5,8,2,10,14,4,13,9,1,15,3,6"
14814,commdev-image-keyboard-response,458,1086181,learnblock1,934.5999999940395,img/planet1_left.png,1,Community 3,NA,TRUE,f,f,NA,NA,NA,2,6,"7,11,12,5,8,2,10,14,4,13,9,1,15,3,6"
14814,commdev-image-keyboard-response,459,1087435,learnblock1,1106.5,img/planet14_left.png,14,Community 2,NA,TRUE,f,f,NA,NA,NA,2,6,"7,11,12,5,8,2,10,14,4,13,9,1,15,3,6"
14814,commdev-image-keyboard-response,460,1088686,learnblock1,1011.9000000059605,img/planet13_right.png,13,Community 2,NA,TRUE,j,j,NA,NA,NA,2,6,"7,11,12,5,8,2,10,14,4,13,9,1,15,3,6"
14814,commdev-image-keyboard-response,461,1089942,learnblock1,1129.2999999821186,img/planet4_left.png,4,Community 2,NA,TRUE,f,f,NA,NA,NA,2,6,"7,11,12,5,8,2,10,14,4,13,9,1,15,3,6"
14814,commdev-image-keyboard-response,462,1091195,learnblock1,1208.800000011921,img/planet2_right.png,2,Community 2,NA,TRUE,j,j,NA,NA,NA,2,6,"7,11,12,5,8,2,10,14,4,13,9,1,15,3,6"
14814,commdev-image-keyboard-response,463,1092448,learnblock1,1052,img/planet5_left.png,5,Community 1,NA,TRUE,f,f,NA,NA,NA,2,6,"7,11,12,5,8,2,10,14,4,13,9,1,15,3,6"
14814,commdev-image-keyboard-response,464,1093701,learnblock1,879.3000000119209,img/planet7_right.png,7,Community 1,NA,TRUE,j,j,NA,NA,NA,2,6,"7,11,12,5,8,2,10,14,4,13,9,1,15,3,6"
14814,commdev-image-keyboard-response,465,1094954,learnblock1,null,img/planet8_right.png,8,Community 1,NA,FALSE,null,j,NA,NA,NA,2,6,"7,11,12,5,8,2,10,14,4,13,9,1,15,3,6"
14814,commdev-image-keyboard-response,466,1096207,learnblock1,92.59999999403954,img/planet7_left.png,7,Community 1,NA,TRUE,f,f,NA,NA,NA,2,6,"7,11,12,5,8,2,10,14,4,13,9,1,15,3,6"
14814,commdev-image-keyboard-response,467,1097461,learnblock1,984.2000000178814,img/planet8_left.png,8,Community 1,NA,TRUE,f,f,NA,NA,NA,2,6,"7,11,12,5,8,2,10,14,4,13,9,1,15,3,6"
14814,commdev-image-keyboard-response,468,1098715,learnblock1,610.7000000178814,img/planet11_left.png,11,Community 1,NA,TRUE,f,f,NA,NA,NA,2,6,"7,11,12,5,8,2,10,14,4,13,9,1,15,3,6"
14814,commdev-image-keyboard-response,469,1099968,learnblock1,868.8999999761581,img/planet12_right.png,12,Community 1,NA,TRUE,j,j,NA,NA,NA,2,6,"7,11,12,5,8,2,10,14,4,13,9,1,15,3,6"
14814,commdev-image-keyboard-response,470,1101222,learnblock1,919.0999999940395,img/planet8_left.png,8,Community 1,NA,TRUE,f,f,NA,NA,NA,2,6,"7,11,12,5,8,2,10,14,4,13,9,1,15,3,6"
14814,commdev-image-keyboard-response,471,1102475,learnblock1,1240.0999999940395,img/planet9_right.png,9,Community 3,NA,TRUE,j,j,NA,NA,NA,2,6,"7,11,12,5,8,2,10,14,4,13,9,1,15,3,6"
14814,commdev-image-keyboard-response,472,1103731,learnblock1,931.8999999761581,img/planet15_left.png,15,Community 3,NA,TRUE,f,f,NA,NA,NA,2,6,"7,11,12,5,8,2,10,14,4,13,9,1,15,3,6"
14814,commdev-image-keyboard-response,473,1104987,learnblock1,null,img/planet6_left.png,6,Community 3,NA,FALSE,null,f,NA,NA,NA,2,6,"7,11,12,5,8,2,10,14,4,13,9,1,15,3,6"
14814,commdev-image-keyboard-response,474,1106240,learnblock1,116.90000000596046,img/planet9_left.png,9,Community 3,NA,TRUE,f,f,NA,NA,NA,2,6,"7,11,12,5,8,2,10,14,4,13,9,1,15,3,6"
14814,commdev-image-keyboard-response,475,1107494,learnblock1,750.0999999940395,img/planet3_left.png,3,Community 3,NA,TRUE,f,f,NA,NA,NA,2,6,"7,11,12,5,8,2,10,14,4,13,9,1,15,3,6"
14814,commdev-image-keyboard-response,476,1108748,learnblock1,592.9000000059605,img/planet1_left.png,1,Community 3,NA,TRUE,f,f,NA,NA,NA,2,6,"7,11,12,5,8,2,10,14,4,13,9,1,15,3,6"
14814,commdev-image-keyboard-response,477,1110000,learnblock1,539.6999999880791,img/planet15_left.png,15,Community 3,NA,TRUE,f,f,NA,NA,NA,2,6,"7,11,12,5,8,2,10,14,4,13,9,1,15,3,6"
14814,commdev-image-keyboard-response,478,1111254,learnblock1,631.4000000059605,img/planet1_left.png,1,Community 3,NA,TRUE,f,f,NA,NA,NA,2,6,"7,11,12,5,8,2,10,14,4,13,9,1,15,3,6"
14814,commdev-image-keyboard-response,479,1112510,learnblock1,609.2000000178814,img/planet15_left.png,15,Community 3,NA,TRUE,f,f,NA,NA,NA,2,6,"7,11,12,5,8,2,10,14,4,13,9,1,15,3,6"
14814,commdev-image-keyboard-response,480,1113766,learnblock1,882,img/planet3_right.png,3,Community 3,NA,TRUE,j,j,NA,NA,NA,2,6,"7,11,12,5,8,2,10,14,4,13,9,1,15,3,6"
14814,commdev-image-keyboard-response,481,1115019,learnblock1,722,img/planet15_right.png,15,Community 3,NA,TRUE,j,j,NA,NA,NA,2,6,"7,11,12,5,8,2,10,14,4,13,9,1,15,3,6"
14814,commdev-image-keyboard-response,482,1116273,learnblock1,780.3000000119209,img/planet3_right.png,3,Community 3,NA,TRUE,j,j,NA,NA,NA,2,6,"7,11,12,5,8,2,10,14,4,13,9,1,15,3,6"
14814,commdev-image-keyboard-response,483,1117528,learnblock1,759,img/planet1_right.png,1,Community 3,NA,TRUE,j,j,NA,NA,NA,2,6,"7,11,12,5,8,2,10,14,4,13,9,1,15,3,6"
14814,commdev-image-keyboard-response,484,1118780,learnblock1,783.0999999940395,img/planet15_right.png,15,Community 3,NA,TRUE,j,j,NA,NA,NA,2,6,"7,11,12,5,8,2,10,14,4,13,9,1,15,3,6"
14814,commdev-image-keyboard-response,485,1120031,learnblock1,779.4000000059605,img/planet1_right.png,1,Community 3,NA,TRUE,j,j,NA,NA,NA,2,6,"7,11,12,5,8,2,10,14,4,13,9,1,15,3,6"
14814,commdev-image-keyboard-response,486,1121285,learnblock1,807.8999999761581,img/planet14_right.png,14,Community 2,NA,FALSE,f,j,NA,NA,NA,2,6,"7,11,12,5,8,2,10,14,4,13,9,1,15,3,6"
14814,commdev-image-keyboard-response,487,1122539,learnblock1,74.5,img/planet4_right.png,4,Community 2,NA,TRUE,j,j,NA,NA,NA,2,6,"7,11,12,5,8,2,10,14,4,13,9,1,15,3,6"
14814,commdev-image-keyboard-response,488,1123792,learnblock1,572.0999999940395,img/planet10_left.png,10,Community 2,NA,FALSE,j,f,NA,NA,NA,2,6,"7,11,12,5,8,2,10,14,4,13,9,1,15,3,6"
14814,commdev-image-keyboard-response,489,1125045,learnblock1,919.3000000119209,img/planet14_left.png,14,Community 2,NA,TRUE,f,f,NA,NA,NA,2,6,"7,11,12,5,8,2,10,14,4,13,9,1,15,3,6"
14814,commdev-image-keyboard-response,490,1126300,learnblock1,730.2999999821186,img/planet4_left.png,4,Community 2,NA,TRUE,f,f,NA,NA,NA,2,6,"7,11,12,5,8,2,10,14,4,13,9,1,15,3,6"
14814,commdev-image-keyboard-response,491,1127553,learnblock1,483.89999997615814,img/planet14_right.png,14,Community 2,NA,FALSE,f,j,NA,NA,NA,2,6,"7,11,12,5,8,2,10,14,4,13,9,1,15,3,6"
14814,commdev-image-keyboard-response,492,1128806,learnblock1,823.9000000059605,img/planet4_left.png,4,Community 2,NA,TRUE,f,f,NA,NA,NA,2,6,"7,11,12,5,8,2,10,14,4,13,9,1,15,3,6"
14814,commdev-image-keyboard-response,493,1130059,learnblock1,921.6999999880791,img/planet14_right.png,14,Community 2,NA,TRUE,j,j,NA,NA,NA,2,6,"7,11,12,5,8,2,10,14,4,13,9,1,15,3,6"
14814,commdev-image-keyboard-response,494,1131310,learnblock1,1109,img/planet1_right.png,1,Community 3,NA,TRUE,j,j,NA,NA,NA,2,6,"7,11,12,5,8,2,10,14,4,13,9,1,15,3,6"
14814,commdev-image-keyboard-response,495,1132566,learnblock1,1121.5,img/planet6_left.png,6,Community 3,NA,TRUE,f,f,NA,NA,NA,2,6,"7,11,12,5,8,2,10,14,4,13,9,1,15,3,6"
14814,commdev-image-keyboard-response,496,1133819,learnblock1,962.8999999761581,img/planet3_left.png,3,Community 3,NA,TRUE,f,f,NA,NA,NA,2,6,"7,11,12,5,8,2,10,14,4,13,9,1,15,3,6"
14814,commdev-image-keyboard-response,497,1135072,learnblock1,845.4000000059605,img/planet9_left.png,9,Community 3,NA,TRUE,f,f,NA,NA,NA,2,6,"7,11,12,5,8,2,10,14,4,13,9,1,15,3,6"
14814,commdev-image-keyboard-response,498,1136326,learnblock1,879.5,img/planet8_right.png,8,Community 1,NA,TRUE,j,j,NA,NA,NA,2,6,"7,11,12,5,8,2,10,14,4,13,9,1,15,3,6"
14814,commdev-image-keyboard-response,499,1137580,learnblock1,938,img/planet7_left.png,7,Community 1,NA,FALSE,j,f,NA,NA,NA,2,6,"7,11,12,5,8,2,10,14,4,13,9,1,15,3,6"
14814,commdev-image-keyboard-response,500,1138833,learnblock1,915.8999999761581,img/planet11_left.png,11,Community 1,NA,TRUE,f,f,NA,NA,NA,2,6,"7,11,12,5,8,2,10,14,4,13,9,1,15,3,6"
14814,commdev-image-keyboard-response,501,1140086,learnblock1,791.5,img/planet5_right.png,5,Community 1,NA,TRUE,j,j,NA,NA,NA,2,6,"7,11,12,5,8,2,10,14,4,13,9,1,15,3,6"
14814,commdev-image-keyboard-response,502,1141341,learnblock1,754.0999999940395,img/planet12_left.png,12,Community 1,NA,TRUE,f,f,NA,NA,NA,2,6,"7,11,12,5,8,2,10,14,4,13,9,1,15,3,6"
14814,commdev-image-keyboard-response,503,1142596,learnblock1,811.5999999940395,img/planet8_right.png,8,Community 1,NA,TRUE,j,j,NA,NA,NA,2,6,"7,11,12,5,8,2,10,14,4,13,9,1,15,3,6"
14814,commdev-image-keyboard-response,504,1143851,learnblock1,692.5,img/planet9_right.png,9,Community 3,NA,FALSE,f,j,NA,NA,NA,2,6,"7,11,12,5,8,2,10,14,4,13,9,1,15,3,6"
14814,commdev-image-keyboard-response,505,1145108,learnblock1,789,img/planet8_left.png,8,Community 1,NA,TRUE,f,f,NA,NA,NA,2,6,"7,11,12,5,8,2,10,14,4,13,9,1,15,3,6"
14814,commdev-image-keyboard-response,506,1146359,learnblock1,748.1999999880791,img/planet9_left.png,9,Community 3,NA,TRUE,f,f,NA,NA,NA,2,6,"7,11,12,5,8,2,10,14,4,13,9,1,15,3,6"
14814,commdev-image-keyboard-response,507,1147614,learnblock1,889,img/planet3_left.png,3,Community 3,NA,TRUE,f,f,NA,NA,NA,2,6,"7,11,12,5,8,2,10,14,4,13,9,1,15,3,6"
14814,commdev-image-keyboard-response,508,1148866,learnblock1,1035,img/planet1_right.png,1,Community 3,NA,TRUE,j,j,NA,NA,NA,2,6,"7,11,12,5,8,2,10,14,4,13,9,1,15,3,6"
14814,commdev-image-keyboard-response,509,1150119,learnblock1,null,img/planet6_right.png,6,Community 3,NA,FALSE,null,j,NA,NA,NA,2,6,"7,11,12,5,8,2,10,14,4,13,9,1,15,3,6"
14814,commdev-image-keyboard-response,510,1151371,learnblock1,193.2000000178814,img/planet15_left.png,15,Community 3,NA,FALSE,j,f,NA,NA,NA,2,6,"7,11,12,5,8,2,10,14,4,13,9,1,15,3,6"
14814,commdev-image-keyboard-response,511,1152625,learnblock1,820.8000000119209,img/planet9_left.png,9,Community 3,NA,TRUE,f,f,NA,NA,NA,2,6,"7,11,12,5,8,2,10,14,4,13,9,1,15,3,6"
14814,commdev-image-keyboard-response,515,1189181,learnblock2,726.7999999821186,img/planet6_left.png,6,Community 3,NA,TRUE,f,f,NA,NA,NA,2,6,"7,11,12,5,8,2,10,14,4,13,9,1,15,3,6"
14814,commdev-image-keyboard-response,516,1190435,learnblock2,1009.1999999880791,img/planet3_left.png,3,Community 3,NA,TRUE,f,f,NA,NA,NA,2,6,"7,11,12,5,8,2,10,14,4,13,9,1,15,3,6"
14814,commdev-image-keyboard-response,517,1191688,learnblock2,787,img/planet15_left.png,15,Community 3,NA,TRUE,f,f,NA,NA,NA,2,6,"7,11,12,5,8,2,10,14,4,13,9,1,15,3,6"
14814,commdev-image-keyboard-response,518,1192943,learnblock2,645,img/planet3_right.png,3,Community 3,NA,FALSE,f,j,NA,NA,NA,2,6,"7,11,12,5,8,2,10,14,4,13,9,1,15,3,6"
14814,commdev-image-keyboard-response,519,1194199,learnblock2,1046.5,img/planet15_left.png,15,Community 3,NA,TRUE,f,f,NA,NA,NA,2,6,"7,11,12,5,8,2,10,14,4,13,9,1,15,3,6"
14814,commdev-image-keyboard-response,520,1195451,learnblock2,830.5,img/planet1_left.png,1,Community 3,NA,TRUE,f,f,NA,NA,NA,2,6,"7,11,12,5,8,2,10,14,4,13,9,1,15,3,6"
14814,commdev-image-keyboard-response,521,1196705,learnblock2,834.2999999821186,img/planet6_right.png,6,Community 3,NA,TRUE,j,j,NA,NA,NA,2,6,"7,11,12,5,8,2,10,14,4,13,9,1,15,3,6"
14814,commdev-image-keyboard-response,522,1197957,learnblock2,916.4000000059605,img/planet15_right.png,15,Community 3,NA,FALSE,f,j,NA,NA,NA,2,6,"7,11,12,5,8,2,10,14,4,13,9,1,15,3,6"
14814,commdev-image-keyboard-response,523,1199213,learnblock2,888.4000000059605,img/planet3_right.png,3,Community 3,NA,TRUE,j,j,NA,NA,NA,2,6,"7,11,12,5,8,2,10,14,4,13,9,1,15,3,6"
14814,commdev-image-keyboard-response,524,1200466,learnblock2,713.1000000238419,img/planet9_left.png,9,Community 3,NA,TRUE,f,f,NA,NA,NA,2,6,"7,11,12,5,8,2,10,14,4,13,9,1,15,3,6"
14814,commdev-image-keyboard-response,525,1201720,learnblock2,947.5,img/planet8_left.png,8,Community 1,NA,TRUE,f,f,NA,NA,NA,2,6,"7,11,12,5,8,2,10,14,4,13,9,1,15,3,6"
14814,commdev-image-keyboard-response,526,1202975,learnblock2,821.8000000119209,img/planet9_right.png,9,Community 3,NA,TRUE,j,j,NA,NA,NA,2,6,"7,11,12,5,8,2,10,14,4,13,9,1,15,3,6"
14814,commdev-image-keyboard-response,527,1204227,learnblock2,895.5999999940395,img/planet8_left.png,8,Community 1,NA,TRUE,f,f,NA,NA,NA,2,6,"7,11,12,5,8,2,10,14,4,13,9,1,15,3,6"
14814,commdev-image-keyboard-response,528,1205480,learnblock2,1235.300000011921,img/planet7_left.png,7,Community 1,NA,TRUE,f,f,NA,NA,NA,2,6,"7,11,12,5,8,2,10,14,4,13,9,1,15,3,6"
14814,commdev-image-keyboard-response,529,1206733,learnblock2,910.6000000238419,img/planet8_left.png,8,Community 1,NA,TRUE,f,f,NA,NA,NA,2,6,"7,11,12,5,8,2,10,14,4,13,9,1,15,3,6"
14814,commdev-image-keyboard-response,530,1207986,learnblock2,1009.1000000238419,img/planet7_left.png,7,Community 1,NA,TRUE,f,f,NA,NA,NA,2,6,"7,11,12,5,8,2,10,14,4,13,9,1,15,3,6"
14814,commdev-image-keyboard-response,531,1209240,learnblock2,835.6000000238419,img/planet5_right.png,5,Community 1,NA,TRUE,j,j,NA,NA,NA,2,6,"7,11,12,5,8,2,10,14,4,13,9,1,15,3,6"
14814,commdev-image-keyboard-response,532,1210492,learnblock2,1006.7000000178814,img/planet7_right.png,7,Community 1,NA,TRUE,j,j,NA,NA,NA,2,6,"7,11,12,5,8,2,10,14,4,13,9,1,15,3,6"
14814,commdev-image-keyboard-response,533,1211746,learnblock2,1153.0999999940395,img/planet12_left.png,12,Community 1,NA,TRUE,f,f,NA,NA,NA,2,6,"7,11,12,5,8,2,10,14,4,13,9,1,15,3,6"
14814,commdev-image-keyboard-response,534,1213000,learnblock2,1068.0999999940395,img/planet7_left.png,7,Community 1,NA,TRUE,f,f,NA,NA,NA,2,6,"7,11,12,5,8,2,10,14,4,13,9,1,15,3,6"
14814,commdev-image-keyboard-response,535,1214253,learnblock2,702,img/planet12_right.png,12,Community 1,NA,TRUE,j,j,NA,NA,NA,2,6,"7,11,12,5,8,2,10,14,4,13,9,1,15,3,6"
14814,commdev-image-keyboard-response,536,1215507,learnblock2,1113.2000000178814,img/planet11_right.png,11,Community 1,NA,TRUE,j,j,NA,NA,NA,2,6,"7,11,12,5,8,2,10,14,4,13,9,1,15,3,6"
14814,commdev-image-keyboard-response,537,1216760,learnblock2,1067.300000011921,img/planet8_left.png,8,Community 1,NA,TRUE,f,f,NA,NA,NA,2,6,"7,11,12,5,8,2,10,14,4,13,9,1,15,3,6"
14814,commdev-image-keyboard-response,538,1218013,learnblock2,1046.4000000059605,img/planet12_right.png,12,Community 1,NA,TRUE,j,j,NA,NA,NA,2,6,"7,11,12,5,8,2,10,14,4,13,9,1,15,3,6"
14814,commdev-image-keyboard-response,539,1219269,learnblock2,905,img/planet7_right.png,7,Community 1,NA,TRUE,j,j,NA,NA,NA,2,6,"7,11,12,5,8,2,10,14,4,13,9,1,15,3,6"
14814,commdev-image-keyboard-response,540,1220525,learnblock2,801.9000000059605,img/planet11_right.png,11,Community 1,NA,TRUE,j,j,NA,NA,NA,2,6,"7,11,12,5,8,2,10,14,4,13,9,1,15,3,6"
14814,commdev-image-keyboard-response,541,1221778,learnblock2,705.2000000178814,img/planet7_right.png,7,Community 1,NA,TRUE,j,j,NA,NA,NA,2,6,"7,11,12,5,8,2,10,14,4,13,9,1,15,3,6"
14814,commdev-image-keyboard-response,542,1223031,learnblock2,756.7000000178814,img/planet12_right.png,12,Community 1,NA,TRUE,j,j,NA,NA,NA,2,6,"7,11,12,5,8,2,10,14,4,13,9,1,15,3,6"
14814,commdev-image-keyboard-response,543,1224284,learnblock2,847.0999999940395,img/planet8_left.png,8,Community 1,NA,TRUE,f,f,NA,NA,NA,2,6,"7,11,12,5,8,2,10,14,4,13,9,1,15,3,6"
14814,commdev-image-keyboard-response,544,1225539,learnblock2,962,img/planet7_right.png,7,Community 1,NA,FALSE,f,j,NA,NA,NA,2,6,"7,11,12,5,8,2,10,14,4,13,9,1,15,3,6"
14814,commdev-image-keyboard-response,545,1226791,learnblock2,1027,img/planet5_left.png,5,Community 1,NA,TRUE,f,f,NA,NA,NA,2,6,"7,11,12,5,8,2,10,14,4,13,9,1,15,3,6"
14814,commdev-image-keyboard-response,546,1228046,learnblock2,735.4000000059605,img/planet11_right.png,11,Community 1,NA,TRUE,j,j,NA,NA,NA,2,6,"7,11,12,5,8,2,10,14,4,13,9,1,15,3,6"
14814,commdev-image-keyboard-response,547,1229299,learnblock2,881,img/planet12_left.png,12,Community 1,NA,TRUE,f,f,NA,NA,NA,2,6,"7,11,12,5,8,2,10,14,4,13,9,1,15,3,6"
14814,commdev-image-keyboard-response,548,1230555,learnblock2,627.3000000119209,img/planet8_right.png,8,Community 1,NA,TRUE,j,j,NA,NA,NA,2,6,"7,11,12,5,8,2,10,14,4,13,9,1,15,3,6"
14814,commdev-image-keyboard-response,549,1231811,learnblock2,619.5,img/planet11_left.png,11,Community 1,NA,TRUE,f,f,NA,NA,NA,2,6,"7,11,12,5,8,2,10,14,4,13,9,1,15,3,6"
14814,commdev-image-keyboard-response,550,1233063,learnblock2,1092,img/planet5_left.png,5,Community 1,NA,TRUE,f,f,NA,NA,NA,2,6,"7,11,12,5,8,2,10,14,4,13,9,1,15,3,6"
14814,commdev-image-keyboard-response,551,1234317,learnblock2,824.1000000238419,img/planet7_right.png,7,Community 1,NA,TRUE,j,j,NA,NA,NA,2,6,"7,11,12,5,8,2,10,14,4,13,9,1,15,3,6"
14814,commdev-image-keyboard-response,552,1235571,learnblock2,849.6999999880791,img/planet8_left.png,8,Community 1,NA,TRUE,f,f,NA,NA,NA,2,6,"7,11,12,5,8,2,10,14,4,13,9,1,15,3,6"
14814,commdev-image-keyboard-response,553,1236824,learnblock2,892,img/planet12_right.png,12,Community 1,NA,TRUE,j,j,NA,NA,NA,2,6,"7,11,12,5,8,2,10,14,4,13,9,1,15,3,6"
14814,commdev-image-keyboard-response,554,1238076,learnblock2,582.2999999821186,img/planet5_left.png,5,Community 1,NA,TRUE,f,f,NA,NA,NA,2,6,"7,11,12,5,8,2,10,14,4,13,9,1,15,3,6"
14814,commdev-image-keyboard-response,555,1239332,learnblock2,539.3999999761581,img/planet12_right.png,12,Community 1,NA,TRUE,j,j,NA,NA,NA,2,6,"7,11,12,5,8,2,10,14,4,13,9,1,15,3,6"
14814,commdev-image-keyboard-response,556,1240585,learnblock2,915.2999999821186,img/planet8_right.png,8,Community 1,NA,FALSE,f,j,NA,NA,NA,2,6,"7,11,12,5,8,2,10,14,4,13,9,1,15,3,6"
14814,commdev-image-keyboard-response,557,1241839,learnblock2,686,img/planet7_left.png,7,Community 1,NA,TRUE,f,f,NA,NA,NA,2,6,"7,11,12,5,8,2,10,14,4,13,9,1,15,3,6"
14814,commdev-image-keyboard-response,558,1243094,learnblock2,847.5999999940395,img/planet11_left.png,11,Community 1,NA,TRUE,f,f,NA,NA,NA,2,6,"7,11,12,5,8,2,10,14,4,13,9,1,15,3,6"
14814,commdev-image-keyboard-response,559,1244350,learnblock2,769,img/planet12_right.png,12,Community 1,NA,FALSE,f,j,NA,NA,NA,2,6,"7,11,12,5,8,2,10,14,4,13,9,1,15,3,6"
14814,commdev-image-keyboard-response,560,1245602,learnblock2,975.8000000119209,img/planet11_right.png,11,Community 1,NA,TRUE,j,j,NA,NA,NA,2,6,"7,11,12,5,8,2,10,14,4,13,9,1,15,3,6"
14814,commdev-image-keyboard-response,561,1246857,learnblock2,701.0999999940395,img/planet12_right.png,12,Community 1,NA,TRUE,j,j,NA,NA,NA,2,6,"7,11,12,5,8,2,10,14,4,13,9,1,15,3,6"
14814,commdev-image-keyboard-response,562,1248110,learnblock2,1131.8999999761581,img/planet8_right.png,8,Community 1,NA,TRUE,j,j,NA,NA,NA,2,6,"7,11,12,5,8,2,10,14,4,13,9,1,15,3,6"
14814,commdev-image-keyboard-response,563,1249363,learnblock2,993.9000000059605,img/planet7_right.png,7,Community 1,NA,TRUE,j,j,NA,NA,NA,2,6,"7,11,12,5,8,2,10,14,4,13,9,1,15,3,6"
14814,commdev-image-keyboard-response,564,1250617,learnblock2,923.0999999940395,img/planet8_right.png,8,Community 1,NA,TRUE,j,j,NA,NA,NA,2,6,"7,11,12,5,8,2,10,14,4,13,9,1,15,3,6"
14814,commdev-image-keyboard-response,565,1251870,learnblock2,814,img/planet9_right.png,9,Community 3,NA,TRUE,j,j,NA,NA,NA,2,6,"7,11,12,5,8,2,10,14,4,13,9,1,15,3,6"
14814,commdev-image-keyboard-response,566,1253123,learnblock2,785,img/planet8_right.png,8,Community 1,NA,TRUE,j,j,NA,NA,NA,2,6,"7,11,12,5,8,2,10,14,4,13,9,1,15,3,6"
14814,commdev-image-keyboard-response,567,1254379,learnblock2,788,img/planet7_right.png,7,Community 1,NA,TRUE,j,j,NA,NA,NA,2,6,"7,11,12,5,8,2,10,14,4,13,9,1,15,3,6"
14814,commdev-image-keyboard-response,568,1255630,learnblock2,1140.2000000178814,img/planet12_left.png,12,Community 1,NA,TRUE,f,f,NA,NA,NA,2,6,"7,11,12,5,8,2,10,14,4,13,9,1,15,3,6"
14814,commdev-image-keyboard-response,569,1256883,learnblock2,null,img/planet5_right.png,5,Community 1,NA,FALSE,null,j,NA,NA,NA,2,6,"7,11,12,5,8,2,10,14,4,13,9,1,15,3,6"
14814,commdev-image-keyboard-response,570,1258135,learnblock2,227.40000000596046,img/planet12_left.png,12,Community 1,NA,TRUE,f,f,NA,NA,NA,2,6,"7,11,12,5,8,2,10,14,4,13,9,1,15,3,6"
14814,commdev-image-keyboard-response,571,1259391,learnblock2,784.4000000059605,img/planet7_right.png,7,Community 1,NA,TRUE,j,j,NA,NA,NA,2,6,"7,11,12,5,8,2,10,14,4,13,9,1,15,3,6"
14814,commdev-image-keyboard-response,572,1260644,learnblock2,1176.4000000059605,img/planet12_right.png,12,Community 1,NA,FALSE,f,j,NA,NA,NA,2,6,"7,11,12,5,8,2,10,14,4,13,9,1,15,3,6"
14814,commdev-image-keyboard-response,573,1261896,learnblock2,235.5,img/planet5_right.png,5,Community 1,NA,TRUE,j,j,NA,NA,NA,2,6,"7,11,12,5,8,2,10,14,4,13,9,1,15,3,6"
14814,commdev-image-keyboard-response,574,1263149,learnblock2,743,img/planet2_left.png,2,Community 2,NA,TRUE,f,f,NA,NA,NA,2,6,"7,11,12,5,8,2,10,14,4,13,9,1,15,3,6"
14814,commdev-image-keyboard-response,575,1264402,learnblock2,738.5999999940395,img/planet10_left.png,10,Community 2,NA,TRUE,f,f,NA,NA,NA,2,6,"7,11,12,5,8,2,10,14,4,13,9,1,15,3,6"
14814,commdev-image-keyboard-response,576,1265657,learnblock2,820.8999999761581,img/planet13_left.png,13,Community 2,NA,TRUE,f,f,NA,NA,NA,2,6,"7,11,12,5,8,2,10,14,4,13,9,1,15,3,6"
14814,commdev-image-keyboard-response,577,1266910,learnblock2,742.2999999821186,img/planet4_right.png,4,Community 2,NA,TRUE,j,j,NA,NA,NA,2,6,"7,11,12,5,8,2,10,14,4,13,9,1,15,3,6"
14814,commdev-image-keyboard-response,578,1268164,learnblock2,1105.2000000178814,img/planet13_left.png,13,Community 2,NA,TRUE,f,f,NA,NA,NA,2,6,"7,11,12,5,8,2,10,14,4,13,9,1,15,3,6"
14814,commdev-image-keyboard-response,579,1269417,learnblock2,827.5,img/planet14_left.png,14,Community 2,NA,TRUE,f,f,NA,NA,NA,2,6,"7,11,12,5,8,2,10,14,4,13,9,1,15,3,6"
14814,commdev-image-keyboard-response,580,1270668,learnblock2,614.3000000119209,img/planet4_left.png,4,Community 2,NA,TRUE,f,f,NA,NA,NA,2,6,"7,11,12,5,8,2,10,14,4,13,9,1,15,3,6"
14814,commdev-image-keyboard-response,581,1271924,learnblock2,811.5999999940395,img/planet13_left.png,13,Community 2,NA,TRUE,f,f,NA,NA,NA,2,6,"7,11,12,5,8,2,10,14,4,13,9,1,15,3,6"
14814,commdev-image-keyboard-response,582,1273176,learnblock2,900,img/planet14_left.png,14,Community 2,NA,TRUE,f,f,NA,NA,NA,2,6,"7,11,12,5,8,2,10,14,4,13,9,1,15,3,6"
14814,commdev-image-keyboard-response,583,1274428,learnblock2,934.7999999821186,img/planet13_right.png,13,Community 2,NA,TRUE,j,j,NA,NA,NA,2,6,"7,11,12,5,8,2,10,14,4,13,9,1,15,3,6"
14814,commdev-image-keyboard-response,584,1275683,learnblock2,651.4000000059605,img/planet14_left.png,14,Community 2,NA,TRUE,f,f,NA,NA,NA,2,6,"7,11,12,5,8,2,10,14,4,13,9,1,15,3,6"
14814,commdev-image-keyboard-response,585,1276937,learnblock2,852.5,img/planet1_right.png,1,Community 3,NA,TRUE,j,j,NA,NA,NA,2,6,"7,11,12,5,8,2,10,14,4,13,9,1,15,3,6"
14814,commdev-image-keyboard-response,586,1278191,learnblock2,694.2000000178814,img/planet15_right.png,15,Community 3,NA,TRUE,j,j,NA,NA,NA,2,6,"7,11,12,5,8,2,10,14,4,13,9,1,15,3,6"
14814,commdev-image-keyboard-response,587,1279445,learnblock2,815.7999999821186,img/planet9_left.png,9,Community 3,NA,TRUE,f,f,NA,NA,NA,2,6,"7,11,12,5,8,2,10,14,4,13,9,1,15,3,6"
14814,commdev-image-keyboard-response,588,1280697,learnblock2,930.8000000119209,img/planet15_right.png,15,Community 3,NA,TRUE,j,j,NA,NA,NA,2,6,"7,11,12,5,8,2,10,14,4,13,9,1,15,3,6"
14814,commdev-image-keyboard-response,589,1281951,learnblock2,null,img/planet1_right.png,1,Community 3,NA,FALSE,null,j,NA,NA,NA,2,6,"7,11,12,5,8,2,10,14,4,13,9,1,15,3,6"
14814,commdev-image-keyboard-response,590,1283204,learnblock2,161.2000000178814,img/planet3_left.png,3,Community 3,NA,FALSE,j,f,NA,NA,NA,2,6,"7,11,12,5,8,2,10,14,4,13,9,1,15,3,6"
14814,commdev-image-keyboard-response,591,1284455,learnblock2,1084.2000000178814,img/planet6_left.png,6,Community 3,NA,TRUE,f,f,NA,NA,NA,2,6,"7,11,12,5,8,2,10,14,4,13,9,1,15,3,6"
14814,commdev-image-keyboard-response,592,1285709,learnblock2,1104,img/planet15_right.png,15,Community 3,NA,TRUE,j,j,NA,NA,NA,2,6,"7,11,12,5,8,2,10,14,4,13,9,1,15,3,6"
14814,commdev-image-keyboard-response,593,1286965,learnblock2,858.1999999880791,img/planet6_left.png,6,Community 3,NA,TRUE,f,f,NA,NA,NA,2,6,"7,11,12,5,8,2,10,14,4,13,9,1,15,3,6"
14814,commdev-image-keyboard-response,594,1288218,learnblock2,883.0999999940395,img/planet3_left.png,3,Community 3,NA,TRUE,f,f,NA,NA,NA,2,6,"7,11,12,5,8,2,10,14,4,13,9,1,15,3,6"
14814,commdev-image-keyboard-response,595,1289471,learnblock2,957.4000000059605,img/planet9_left.png,9,Community 3,NA,TRUE,f,f,NA,NA,NA,2,6,"7,11,12,5,8,2,10,14,4,13,9,1,15,3,6"
14814,commdev-image-keyboard-response,596,1290724,learnblock2,1105,img/planet15_left.png,15,Community 3,NA,TRUE,f,f,NA,NA,NA,2,6,"7,11,12,5,8,2,10,14,4,13,9,1,15,3,6"
14814,commdev-image-keyboard-response,597,1291978,learnblock2,939.5,img/planet1_right.png,1,Community 3,NA,TRUE,j,j,NA,NA,NA,2,6,"7,11,12,5,8,2,10,14,4,13,9,1,15,3,6"
14814,commdev-image-keyboard-response,598,1293232,learnblock2,918,img/planet14_right.png,14,Community 2,NA,TRUE,j,j,NA,NA,NA,2,6,"7,11,12,5,8,2,10,14,4,13,9,1,15,3,6"
14814,commdev-image-keyboard-response,599,1294484,learnblock2,999.1999999880791,img/planet1_left.png,1,Community 3,NA,FALSE,j,f,NA,NA,NA,2,6,"7,11,12,5,8,2,10,14,4,13,9,1,15,3,6"
14814,commdev-image-keyboard-response,600,1295738,learnblock2,795.0999999940395,img/planet15_right.png,15,Community 3,NA,TRUE,j,j,NA,NA,NA,2,6,"7,11,12,5,8,2,10,14,4,13,9,1,15,3,6"
14814,commdev-image-keyboard-response,601,1296994,learnblock2,621.2999999821186,img/planet9_left.png,9,Community 3,NA,TRUE,f,f,NA,NA,NA,2,6,"7,11,12,5,8,2,10,14,4,13,9,1,15,3,6"
14814,commdev-image-keyboard-response,602,1298245,learnblock2,902.3000000119209,img/planet6_left.png,6,Community 3,NA,TRUE,f,f,NA,NA,NA,2,6,"7,11,12,5,8,2,10,14,4,13,9,1,15,3,6"
14814,commdev-image-keyboard-response,603,1299497,learnblock2,995.2000000178814,img/planet9_left.png,9,Community 3,NA,TRUE,f,f,NA,NA,NA,2,6,"7,11,12,5,8,2,10,14,4,13,9,1,15,3,6"
14814,commdev-image-keyboard-response,604,1300750,learnblock2,null,img/planet8_left.png,8,Community 1,NA,FALSE,null,f,NA,NA,NA,2,6,"7,11,12,5,8,2,10,14,4,13,9,1,15,3,6"
14814,commdev-image-keyboard-response,605,1302004,learnblock2,33.5,img/planet9_right.png,9,Community 3,NA,FALSE,f,j,NA,NA,NA,2,6,"7,11,12,5,8,2,10,14,4,13,9,1,15,3,6"
14814,commdev-image-keyboard-response,606,1303258,learnblock2,891.9000000059605,img/planet8_right.png,8,Community 1,NA,TRUE,j,j,NA,NA,NA,2,6,"7,11,12,5,8,2,10,14,4,13,9,1,15,3,6"
14814,commdev-image-keyboard-response,607,1304511,learnblock2,879.6999999880791,img/planet9_right.png,9,Community 3,NA,TRUE,j,j,NA,NA,NA,2,6,"7,11,12,5,8,2,10,14,4,13,9,1,15,3,6"
14814,commdev-image-keyboard-response,608,1305765,learnblock2,777.2000000178814,img/planet15_left.png,15,Community 3,NA,TRUE,f,f,NA,NA,NA,2,6,"7,11,12,5,8,2,10,14,4,13,9,1,15,3,6"
14814,commdev-image-keyboard-response,609,1307019,learnblock2,867.6000000238419,img/planet3_right.png,3,Community 3,NA,TRUE,j,j,NA,NA,NA,2,6,"7,11,12,5,8,2,10,14,4,13,9,1,15,3,6"
14814,commdev-image-keyboard-response,610,1308272,learnblock2,788.1999999880791,img/planet9_left.png,9,Community 3,NA,FALSE,j,f,NA,NA,NA,2,6,"7,11,12,5,8,2,10,14,4,13,9,1,15,3,6"
14814,commdev-image-keyboard-response,611,1309528,learnblock2,728,img/planet3_right.png,3,Community 3,NA,TRUE,j,j,NA,NA,NA,2,6,"7,11,12,5,8,2,10,14,4,13,9,1,15,3,6"
14814,commdev-image-keyboard-response,612,1310782,learnblock2,759.8000000119209,img/planet9_right.png,9,Community 3,NA,TRUE,j,j,NA,NA,NA,2,6,"7,11,12,5,8,2,10,14,4,13,9,1,15,3,6"
14814,commdev-image-keyboard-response,613,1312035,learnblock2,986.6999999880791,img/planet8_right.png,8,Community 1,NA,TRUE,j,j,NA,NA,NA,2,6,"7,11,12,5,8,2,10,14,4,13,9,1,15,3,6"
14814,commdev-image-keyboard-response,614,1313288,learnblock2,844.7999999821186,img/planet7_left.png,7,Community 1,NA,TRUE,f,f,NA,NA,NA,2,6,"7,11,12,5,8,2,10,14,4,13,9,1,15,3,6"
14814,commdev-image-keyboard-response,615,1314544,learnblock2,1056.4000000059605,img/planet12_right.png,12,Community 1,NA,TRUE,j,j,NA,NA,NA,2,6,"7,11,12,5,8,2,10,14,4,13,9,1,15,3,6"
14814,commdev-image-keyboard-response,616,1315797,learnblock2,1072.4000000059605,img/planet11_right.png,11,Community 1,NA,TRUE,j,j,NA,NA,NA,2,6,"7,11,12,5,8,2,10,14,4,13,9,1,15,3,6"
14814,commdev-image-keyboard-response,617,1317050,learnblock2,955.5999999940395,img/planet5_left.png,5,Community 1,NA,FALSE,j,f,NA,NA,NA,2,6,"7,11,12,5,8,2,10,14,4,13,9,1,15,3,6"
14814,commdev-image-keyboard-response,618,1318306,learnblock2,null,img/planet12_right.png,12,Community 1,NA,FALSE,null,j,NA,NA,NA,2,6,"7,11,12,5,8,2,10,14,4,13,9,1,15,3,6"
14814,commdev-image-keyboard-response,619,1319559,learnblock2,94.30000001192093,img/planet11_right.png,11,Community 1,NA,TRUE,j,j,NA,NA,NA,2,6,"7,11,12,5,8,2,10,14,4,13,9,1,15,3,6"
14814,commdev-image-keyboard-response,620,1320811,learnblock2,801.6000000238419,img/planet8_left.png,8,Community 1,NA,FALSE,j,f,NA,NA,NA,2,6,"7,11,12,5,8,2,10,14,4,13,9,1,15,3,6"
14814,commdev-image-keyboard-response,621,1322064,learnblock2,781.9000000059605,img/planet12_right.png,12,Community 1,NA,TRUE,j,j,NA,NA,NA,2,6,"7,11,12,5,8,2,10,14,4,13,9,1,15,3,6"
14814,commdev-image-keyboard-response,622,1323317,learnblock2,929.3000000119209,img/planet5_left.png,5,Community 1,NA,FALSE,j,f,NA,NA,NA,2,6,"7,11,12,5,8,2,10,14,4,13,9,1,15,3,6"
14814,commdev-image-keyboard-response,623,1324569,learnblock2,962.5,img/planet7_right.png,7,Community 1,NA,TRUE,j,j,NA,NA,NA,2,6,"7,11,12,5,8,2,10,14,4,13,9,1,15,3,6"
14814,commdev-image-keyboard-response,624,1325822,learnblock2,976.8000000119209,img/planet5_left.png,5,Community 1,NA,FALSE,j,f,NA,NA,NA,2,6,"7,11,12,5,8,2,10,14,4,13,9,1,15,3,6"
14814,commdev-image-keyboard-response,625,1327076,learnblock2,939.1999999880791,img/planet2_right.png,2,Community 2,NA,TRUE,j,j,NA,NA,NA,2,6,"7,11,12,5,8,2,10,14,4,13,9,1,15,3,6"
14814,commdev-image-keyboard-response,626,1328330,learnblock2,876.4000000059605,img/planet10_left.png,10,Community 2,NA,FALSE,j,f,NA,NA,NA,2,6,"7,11,12,5,8,2,10,14,4,13,9,1,15,3,6"
14814,commdev-image-keyboard-response,627,1329584,learnblock2,582.0999999940395,img/planet4_right.png,4,Community 2,NA,TRUE,j,j,NA,NA,NA,2,6,"7,11,12,5,8,2,10,14,4,13,9,1,15,3,6"
14814,commdev-image-keyboard-response,628,1330837,learnblock2,889.1000000238419,img/planet13_left.png,13,Community 2,NA,TRUE,f,f,NA,NA,NA,2,6,"7,11,12,5,8,2,10,14,4,13,9,1,15,3,6"
14814,commdev-image-keyboard-response,629,1332091,learnblock2,699.3000000119209,img/planet14_left.png,14,Community 2,NA,TRUE,f,f,NA,NA,NA,2,6,"7,11,12,5,8,2,10,14,4,13,9,1,15,3,6"
14814,commdev-image-keyboard-response,630,1333344,learnblock2,861.8000000119209,img/planet13_left.png,13,Community 2,NA,TRUE,f,f,NA,NA,NA,2,6,"7,11,12,5,8,2,10,14,4,13,9,1,15,3,6"
14814,commdev-image-keyboard-response,631,1334600,learnblock2,1032.800000011921,img/planet2_right.png,2,Community 2,NA,TRUE,j,j,NA,NA,NA,2,6,"7,11,12,5,8,2,10,14,4,13,9,1,15,3,6"
14814,commdev-image-keyboard-response,632,1335851,learnblock2,1249.199999988079,img/planet10_left.png,10,Community 2,NA,FALSE,j,f,NA,NA,NA,2,6,"7,11,12,5,8,2,10,14,4,13,9,1,15,3,6"
14814,commdev-image-keyboard-response,633,1337104,learnblock2,869.9000000059605,img/planet4_left.png,4,Community 2,NA,TRUE,f,f,NA,NA,NA,2,6,"7,11,12,5,8,2,10,14,4,13,9,1,15,3,6"
14814,commdev-image-keyboard-response,634,1338357,learnblock2,513,img/planet10_left.png,10,Community 2,NA,TRUE,f,f,NA,NA,NA,2,6,"7,11,12,5,8,2,10,14,4,13,9,1,15,3,6"
14814,commdev-image-keyboard-response,635,1339610,learnblock2,427.90000000596046,img/planet2_right.png,2,Community 2,NA,FALSE,f,j,NA,NA,NA,2,6,"7,11,12,5,8,2,10,14,4,13,9,1,15,3,6"
14814,commdev-image-keyboard-response,636,1340864,learnblock2,638.7000000178814,img/planet10_left.png,10,Community 2,NA,TRUE,f,f,NA,NA,NA,2,6,"7,11,12,5,8,2,10,14,4,13,9,1,15,3,6"
14814,commdev-image-keyboard-response,637,1342115,learnblock2,938.1999999880791,img/planet13_left.png,13,Community 2,NA,TRUE,f,f,NA,NA,NA,2,6,"7,11,12,5,8,2,10,14,4,13,9,1,15,3,6"
14814,commdev-image-keyboard-response,638,1343366,learnblock2,734,img/planet2_right.png,2,Community 2,NA,TRUE,j,j,NA,NA,NA,2,6,"7,11,12,5,8,2,10,14,4,13,9,1,15,3,6"
14814,commdev-image-keyboard-response,639,1344619,learnblock2,610.6999999880791,img/planet10_left.png,10,Community 2,NA,TRUE,f,f,NA,NA,NA,2,6,"7,11,12,5,8,2,10,14,4,13,9,1,15,3,6"
14814,commdev-image-keyboard-response,640,1345872,learnblock2,1078.0999999940395,img/planet14_left.png,14,Community 2,NA,FALSE,j,f,NA,NA,NA,2,6,"7,11,12,5,8,2,10,14,4,13,9,1,15,3,6"
14814,commdev-image-keyboard-response,641,1347126,learnblock2,441.10000002384186,img/planet1_left.png,1,Community 3,NA,TRUE,f,f,NA,NA,NA,2,6,"7,11,12,5,8,2,10,14,4,13,9,1,15,3,6"
14814,commdev-image-keyboard-response,642,1348381,learnblock2,410.40000000596046,img/planet15_right.png,15,Community 3,NA,FALSE,f,j,NA,NA,NA,2,6,"7,11,12,5,8,2,10,14,4,13,9,1,15,3,6"
14814,commdev-image-keyboard-response,643,1349635,learnblock2,651.8000000119209,img/planet6_left.png,6,Community 3,NA,TRUE,f,f,NA,NA,NA,2,6,"7,11,12,5,8,2,10,14,4,13,9,1,15,3,6"
14814,commdev-image-keyboard-response,644,1350889,learnblock2,422.2000000178814,img/planet9_right.png,9,Community 3,NA,FALSE,f,j,NA,NA,NA,2,6,"7,11,12,5,8,2,10,14,4,13,9,1,15,3,6"
14814,commdev-image-keyboard-response,645,1352143,learnblock2,616.0999999940395,img/planet6_left.png,6,Community 3,NA,TRUE,f,f,NA,NA,NA,2,6,"7,11,12,5,8,2,10,14,4,13,9,1,15,3,6"
14814,commdev-image-keyboard-response,646,1353397,learnblock2,970.4000000059605,img/planet3_right.png,3,Community 3,NA,TRUE,j,j,NA,NA,NA,2,6,"7,11,12,5,8,2,10,14,4,13,9,1,15,3,6"
14814,commdev-image-keyboard-response,647,1354651,learnblock2,756.5,img/planet15_right.png,15,Community 3,NA,TRUE,j,j,NA,NA,NA,2,6,"7,11,12,5,8,2,10,14,4,13,9,1,15,3,6"
14814,commdev-image-keyboard-response,648,1355903,learnblock2,1038.4000000059605,img/planet6_right.png,6,Community 3,NA,TRUE,j,j,NA,NA,NA,2,6,"7,11,12,5,8,2,10,14,4,13,9,1,15,3,6"
14814,commdev-image-keyboard-response,649,1357158,learnblock2,833.4000000059605,img/planet1_right.png,1,Community 3,NA,TRUE,j,j,NA,NA,NA,2,6,"7,11,12,5,8,2,10,14,4,13,9,1,15,3,6"
14814,commdev-image-keyboard-response,650,1358412,learnblock2,803,img/planet6_left.png,6,Community 3,NA,TRUE,f,f,NA,NA,NA,2,6,"7,11,12,5,8,2,10,14,4,13,9,1,15,3,6"
14814,commdev-image-keyboard-response,651,1359664,learnblock2,828.7000000178814,img/planet9_right.png,9,Community 3,NA,TRUE,j,j,NA,NA,NA,2,6,"7,11,12,5,8,2,10,14,4,13,9,1,15,3,6"
14814,commdev-image-keyboard-response,652,1360920,learnblock2,1129.2000000178814,img/planet3_left.png,3,Community 3,NA,TRUE,f,f,NA,NA,NA,2,6,"7,11,12,5,8,2,10,14,4,13,9,1,15,3,6"
14814,commdev-image-keyboard-response,653,1362172,learnblock2,889.6999999880791,img/planet9_right.png,9,Community 3,NA,TRUE,j,j,NA,NA,NA,2,6,"7,11,12,5,8,2,10,14,4,13,9,1,15,3,6"
14814,commdev-image-keyboard-response,654,1363424,learnblock2,829.8000000119209,img/planet3_right.png,3,Community 3,NA,FALSE,f,j,NA,NA,NA,2,6,"7,11,12,5,8,2,10,14,4,13,9,1,15,3,6"
14814,commdev-image-keyboard-response,655,1364678,learnblock2,609,img/planet9_left.png,9,Community 3,NA,FALSE,j,f,NA,NA,NA,2,6,"7,11,12,5,8,2,10,14,4,13,9,1,15,3,6"
14814,commdev-image-keyboard-response,656,1365932,learnblock2,860.1999999880791,img/planet6_right.png,6,Community 3,NA,TRUE,j,j,NA,NA,NA,2,6,"7,11,12,5,8,2,10,14,4,13,9,1,15,3,6"
14814,commdev-image-keyboard-response,657,1367185,learnblock2,693.4000000059605,img/planet3_left.png,3,Community 3,NA,TRUE,f,f,NA,NA,NA,2,6,"7,11,12,5,8,2,10,14,4,13,9,1,15,3,6"
14814,commdev-image-keyboard-response,658,1368440,learnblock2,888.5999999940395,img/planet6_right.png,6,Community 3,NA,TRUE,j,j,NA,NA,NA,2,6,"7,11,12,5,8,2,10,14,4,13,9,1,15,3,6"
14814,commdev-image-keyboard-response,659,1369691,learnblock2,1008.9000000059605,img/planet9_right.png,9,Community 3,NA,TRUE,j,j,NA,NA,NA,2,6,"7,11,12,5,8,2,10,14,4,13,9,1,15,3,6"
14814,commdev-image-keyboard-response,660,1370945,learnblock2,886.4000000059605,img/planet15_right.png,15,Community 3,NA,TRUE,j,j,NA,NA,NA,2,6,"7,11,12,5,8,2,10,14,4,13,9,1,15,3,6"
14814,commdev-image-keyboard-response,661,1372198,learnblock2,855.9000000059605,img/planet3_left.png,3,Community 3,NA,TRUE,f,f,NA,NA,NA,2,6,"7,11,12,5,8,2,10,14,4,13,9,1,15,3,6"
14814,commdev-image-keyboard-response,662,1373452,learnblock2,771.9000000059605,img/planet9_left.png,9,Community 3,NA,FALSE,j,f,NA,NA,NA,2,6,"7,11,12,5,8,2,10,14,4,13,9,1,15,3,6"
14814,commdev-image-keyboard-response,663,1374707,learnblock2,949.5,img/planet3_right.png,3,Community 3,NA,TRUE,j,j,NA,NA,NA,2,6,"7,11,12,5,8,2,10,14,4,13,9,1,15,3,6"
14814,commdev-image-keyboard-response,664,1375963,learnblock2,702.1999999880791,img/planet9_right.png,9,Community 3,NA,TRUE,j,j,NA,NA,NA,2,6,"7,11,12,5,8,2,10,14,4,13,9,1,15,3,6"
14814,commdev-image-keyboard-response,665,1377215,learnblock2,806.5,img/planet15_left.png,15,Community 3,NA,TRUE,f,f,NA,NA,NA,2,6,"7,11,12,5,8,2,10,14,4,13,9,1,15,3,6"
14814,commdev-image-keyboard-response,666,1378471,learnblock2,858.6000000238419,img/planet3_right.png,3,Community 3,NA,TRUE,j,j,NA,NA,NA,2,6,"7,11,12,5,8,2,10,14,4,13,9,1,15,3,6"
14814,commdev-image-keyboard-response,667,1379723,learnblock2,1003.1999999880791,img/planet15_left.png,15,Community 3,NA,TRUE,f,f,NA,NA,NA,2,6,"7,11,12,5,8,2,10,14,4,13,9,1,15,3,6"
14814,commdev-image-keyboard-response,668,1380977,learnblock2,982.5999999940395,img/planet1_right.png,1,Community 3,NA,TRUE,j,j,NA,NA,NA,2,6,"7,11,12,5,8,2,10,14,4,13,9,1,15,3,6"
14814,commdev-image-keyboard-response,669,1382230,learnblock2,888.3000000119209,img/planet3_right.png,3,Community 3,NA,TRUE,j,j,NA,NA,NA,2,6,"7,11,12,5,8,2,10,14,4,13,9,1,15,3,6"
14814,commdev-image-keyboard-response,670,1383483,learnblock2,707.6000000238419,img/planet1_left.png,1,Community 3,NA,TRUE,f,f,NA,NA,NA,2,6,"7,11,12,5,8,2,10,14,4,13,9,1,15,3,6"
14814,commdev-image-keyboard-response,671,1384738,learnblock2,574.4000000059605,img/planet3_right.png,3,Community 3,NA,TRUE,j,j,NA,NA,NA,2,6,"7,11,12,5,8,2,10,14,4,13,9,1,15,3,6"
14814,commdev-image-keyboard-response,672,1385990,learnblock2,752.2999999821186,img/planet1_left.png,1,Community 3,NA,TRUE,f,f,NA,NA,NA,2,6,"7,11,12,5,8,2,10,14,4,13,9,1,15,3,6"
14814,commdev-image-keyboard-response,673,1387247,learnblock2,835.5999999940395,img/planet6_left.png,6,Community 3,NA,TRUE,f,f,NA,NA,NA,2,6,"7,11,12,5,8,2,10,14,4,13,9,1,15,3,6"
14814,commdev-image-keyboard-response,674,1388500,learnblock2,667.3999999761581,img/planet9_right.png,9,Community 3,NA,TRUE,j,j,NA,NA,NA,2,6,"7,11,12,5,8,2,10,14,4,13,9,1,15,3,6"
14814,commdev-image-keyboard-response,675,1389754,learnblock2,741.5,img/planet8_right.png,8,Community 1,NA,TRUE,j,j,NA,NA,NA,2,6,"7,11,12,5,8,2,10,14,4,13,9,1,15,3,6"
14814,commdev-image-keyboard-response,676,1391008,learnblock2,776.6999999880791,img/planet12_left.png,12,Community 1,NA,TRUE,f,f,NA,NA,NA,2,6,"7,11,12,5,8,2,10,14,4,13,9,1,15,3,6"
14814,commdev-image-keyboard-response,677,1392262,learnblock2,785.7000000178814,img/planet8_left.png,8,Community 1,NA,TRUE,f,f,NA,NA,NA,2,6,"7,11,12,5,8,2,10,14,4,13,9,1,15,3,6"
14814,commdev-image-keyboard-response,678,1393516,learnblock2,892,img/planet7_right.png,7,Community 1,NA,TRUE,j,j,NA,NA,NA,2,6,"7,11,12,5,8,2,10,14,4,13,9,1,15,3,6"
14814,commdev-image-keyboard-response,679,1394769,learnblock2,1110.2999999821186,img/planet5_left.png,5,Community 1,NA,TRUE,f,f,NA,NA,NA,2,6,"7,11,12,5,8,2,10,14,4,13,9,1,15,3,6"
14814,commdev-image-keyboard-response,680,1396023,learnblock2,1104.2999999821186,img/planet7_left.png,7,Community 1,NA,TRUE,f,f,NA,NA,NA,2,6,"7,11,12,5,8,2,10,14,4,13,9,1,15,3,6"
14814,commdev-image-keyboard-response,681,1397276,learnblock2,1243,img/planet8_left.png,8,Community 1,NA,TRUE,f,f,NA,NA,NA,2,6,"7,11,12,5,8,2,10,14,4,13,9,1,15,3,6"
14814,commdev-image-keyboard-response,682,1398531,learnblock2,718.0999999940395,img/planet9_left.png,9,Community 3,NA,TRUE,f,f,NA,NA,NA,2,6,"7,11,12,5,8,2,10,14,4,13,9,1,15,3,6"
14814,commdev-image-keyboard-response,683,1399786,learnblock2,831.4000000059605,img/planet6_right.png,6,Community 3,NA,TRUE,j,j,NA,NA,NA,2,6,"7,11,12,5,8,2,10,14,4,13,9,1,15,3,6"
14814,commdev-image-keyboard-response,684,1401041,learnblock2,881,img/planet1_left.png,1,Community 3,NA,TRUE,f,f,NA,NA,NA,2,6,"7,11,12,5,8,2,10,14,4,13,9,1,15,3,6"
14814,commdev-image-keyboard-response,685,1402295,learnblock2,null,img/planet6_right.png,6,Community 3,NA,FALSE,null,j,NA,NA,NA,2,6,"7,11,12,5,8,2,10,14,4,13,9,1,15,3,6"
14814,commdev-image-keyboard-response,686,1403546,learnblock2,10.400000005960464,img/planet1_left.png,1,Community 3,NA,TRUE,f,f,NA,NA,NA,2,6,"7,11,12,5,8,2,10,14,4,13,9,1,15,3,6"
14814,commdev-image-keyboard-response,687,1404801,learnblock2,0.3999999761581421,img/planet6_left.png,6,Community 3,NA,TRUE,f,f,NA,NA,NA,2,6,"7,11,12,5,8,2,10,14,4,13,9,1,15,3,6"
14814,commdev-image-keyboard-response,688,1406055,learnblock2,673.4000000059605,img/planet3_right.png,3,Community 3,NA,FALSE,f,j,NA,NA,NA,2,6,"7,11,12,5,8,2,10,14,4,13,9,1,15,3,6"
14814,commdev-image-keyboard-response,689,1407308,learnblock2,915.5,img/planet9_right.png,9,Community 3,NA,TRUE,j,j,NA,NA,NA,2,6,"7,11,12,5,8,2,10,14,4,13,9,1,15,3,6"
14814,commdev-image-keyboard-response,690,1408562,learnblock2,790.2000000178814,img/planet8_left.png,8,Community 1,NA,TRUE,f,f,NA,NA,NA,2,6,"7,11,12,5,8,2,10,14,4,13,9,1,15,3,6"
14814,commdev-image-keyboard-response,691,1409816,learnblock2,null,img/planet9_right.png,9,Community 3,NA,FALSE,null,j,NA,NA,NA,2,6,"7,11,12,5,8,2,10,14,4,13,9,1,15,3,6"
14814,commdev-image-keyboard-response,692,1411071,learnblock2,43,img/planet8_left.png,8,Community 1,NA,FALSE,j,f,NA,NA,NA,2,6,"7,11,12,5,8,2,10,14,4,13,9,1,15,3,6"
14814,commdev-image-keyboard-response,693,1412322,learnblock2,747,img/planet11_right.png,11,Community 1,NA,TRUE,j,j,NA,NA,NA,2,6,"7,11,12,5,8,2,10,14,4,13,9,1,15,3,6"
14814,commdev-image-keyboard-response,694,1413575,learnblock2,768.9000000059605,img/planet12_right.png,12,Community 1,NA,TRUE,j,j,NA,NA,NA,2,6,"7,11,12,5,8,2,10,14,4,13,9,1,15,3,6"
14814,commdev-image-keyboard-response,695,1414828,learnblock2,787.6999999880791,img/planet7_right.png,7,Community 1,NA,TRUE,j,j,NA,NA,NA,2,6,"7,11,12,5,8,2,10,14,4,13,9,1,15,3,6"
14814,commdev-image-keyboard-response,696,1416082,learnblock2,782.4000000059605,img/planet12_right.png,12,Community 1,NA,TRUE,j,j,NA,NA,NA,2,6,"7,11,12,5,8,2,10,14,4,13,9,1,15,3,6"
14814,commdev-image-keyboard-response,697,1417334,learnblock2,864.5999999940395,img/planet5_right.png,5,Community 1,NA,TRUE,j,j,NA,NA,NA,2,6,"7,11,12,5,8,2,10,14,4,13,9,1,15,3,6"
14814,commdev-image-keyboard-response,698,1418588,learnblock2,988.4000000059605,img/planet2_left.png,2,Community 2,NA,FALSE,j,f,NA,NA,NA,2,6,"7,11,12,5,8,2,10,14,4,13,9,1,15,3,6"
14814,commdev-image-keyboard-response,699,1419842,learnblock2,790.1999999880791,img/planet5_left.png,5,Community 1,NA,FALSE,j,f,NA,NA,NA,2,6,"7,11,12,5,8,2,10,14,4,13,9,1,15,3,6"
14814,commdev-image-keyboard-response,700,1421095,learnblock2,1064.7000000178814,img/planet7_left.png,7,Community 1,NA,TRUE,f,f,NA,NA,NA,2,6,"7,11,12,5,8,2,10,14,4,13,9,1,15,3,6"
14814,commdev-image-keyboard-response,701,1422349,learnblock2,971.5999999940395,img/planet8_right.png,8,Community 1,NA,TRUE,j,j,NA,NA,NA,2,6,"7,11,12,5,8,2,10,14,4,13,9,1,15,3,6"
14814,commdev-image-keyboard-response,702,1423602,learnblock2,1173.9000000059605,img/planet11_left.png,11,Community 1,NA,TRUE,f,f,NA,NA,NA,2,6,"7,11,12,5,8,2,10,14,4,13,9,1,15,3,6"
14814,commdev-image-keyboard-response,703,1424855,learnblock2,1009.1000000238419,img/planet7_left.png,7,Community 1,NA,TRUE,f,f,NA,NA,NA,2,6,"7,11,12,5,8,2,10,14,4,13,9,1,15,3,6"
14814,commdev-image-keyboard-response,704,1426108,learnblock2,692.0999999940395,img/planet5_left.png,5,Community 1,NA,TRUE,f,f,NA,NA,NA,2,6,"7,11,12,5,8,2,10,14,4,13,9,1,15,3,6"
14814,commdev-image-keyboard-response,705,1427362,learnblock2,837.9000000059605,img/planet2_left.png,2,Community 2,NA,TRUE,f,f,NA,NA,NA,2,6,"7,11,12,5,8,2,10,14,4,13,9,1,15,3,6"
14814,commdev-image-keyboard-response,706,1428615,learnblock2,969.1999999880791,img/planet13_right.png,13,Community 2,NA,FALSE,f,j,NA,NA,NA,2,6,"7,11,12,5,8,2,10,14,4,13,9,1,15,3,6"
14814,commdev-image-keyboard-response,707,1429869,learnblock2,643.5,img/planet4_right.png,4,Community 2,NA,FALSE,f,j,NA,NA,NA,2,6,"7,11,12,5,8,2,10,14,4,13,9,1,15,3,6"
14814,commdev-image-keyboard-response,708,1431122,learnblock2,389.5,img/planet2_right.png,2,Community 2,NA,FALSE,f,j,NA,NA,NA,2,6,"7,11,12,5,8,2,10,14,4,13,9,1,15,3,6"
14814,commdev-image-keyboard-response,709,1432375,learnblock2,305.2000000178814,img/planet4_right.png,4,Community 2,NA,FALSE,f,j,NA,NA,NA,2,6,"7,11,12,5,8,2,10,14,4,13,9,1,15,3,6"
14814,commdev-image-keyboard-response,710,1433629,learnblock2,819.5,img/planet14_left.png,14,Community 2,NA,FALSE,j,f,NA,NA,NA,2,6,"7,11,12,5,8,2,10,14,4,13,9,1,15,3,6"
14814,commdev-image-keyboard-response,711,1434882,learnblock2,757.9000000059605,img/planet4_left.png,4,Community 2,NA,TRUE,f,f,NA,NA,NA,2,6,"7,11,12,5,8,2,10,14,4,13,9,1,15,3,6"
14814,commdev-image-keyboard-response,712,1436135,learnblock2,288.89999997615814,img/planet14_right.png,14,Community 2,NA,FALSE,f,j,NA,NA,NA,2,6,"7,11,12,5,8,2,10,14,4,13,9,1,15,3,6"
14814,commdev-image-keyboard-response,713,1437389,learnblock2,947.6000000238419,img/planet10_left.png,10,Community 2,NA,TRUE,f,f,NA,NA,NA,2,6,"7,11,12,5,8,2,10,14,4,13,9,1,15,3,6"
14814,commdev-image-keyboard-response,714,1438645,learnblock2,886.3999999761581,img/planet4_left.png,4,Community 2,NA,TRUE,f,f,NA,NA,NA,2,6,"7,11,12,5,8,2,10,14,4,13,9,1,15,3,6"
14814,commdev-image-keyboard-response,715,1439899,learnblock2,759,img/planet2_right.png,2,Community 2,NA,TRUE,j,j,NA,NA,NA,2,6,"7,11,12,5,8,2,10,14,4,13,9,1,15,3,6"
14814,commdev-image-keyboard-response,716,1441153,learnblock2,615.9000000059605,img/planet4_left.png,4,Community 2,NA,TRUE,f,f,NA,NA,NA,2,6,"7,11,12,5,8,2,10,14,4,13,9,1,15,3,6"
14814,commdev-image-keyboard-response,717,1442408,learnblock2,954.5999999940395,img/planet10_left.png,10,Community 2,NA,TRUE,f,f,NA,NA,NA,2,6,"7,11,12,5,8,2,10,14,4,13,9,1,15,3,6"
14814,commdev-image-keyboard-response,718,1443661,learnblock2,null,img/planet2_left.png,2,Community 2,NA,FALSE,null,f,NA,NA,NA,2,6,"7,11,12,5,8,2,10,14,4,13,9,1,15,3,6"
14814,commdev-image-keyboard-response,719,1444914,learnblock2,15,img/planet13_right.png,13,Community 2,NA,FALSE,f,j,NA,NA,NA,2,6,"7,11,12,5,8,2,10,14,4,13,9,1,15,3,6"
14814,commdev-image-keyboard-response,720,1446168,learnblock2,1033,img/planet4_left.png,4,Community 2,NA,TRUE,f,f,NA,NA,NA,2,6,"7,11,12,5,8,2,10,14,4,13,9,1,15,3,6"
14814,commdev-image-keyboard-response,721,1447422,learnblock2,819,img/planet13_left.png,13,Community 2,NA,TRUE,f,f,NA,NA,NA,2,6,"7,11,12,5,8,2,10,14,4,13,9,1,15,3,6"
14814,commdev-image-keyboard-response,722,1448674,learnblock2,829.5,img/planet2_left.png,2,Community 2,NA,TRUE,f,f,NA,NA,NA,2,6,"7,11,12,5,8,2,10,14,4,13,9,1,15,3,6"
14814,commdev-image-keyboard-response,723,1449928,learnblock2,777.9000000059605,img/planet4_left.png,4,Community 2,NA,TRUE,f,f,NA,NA,NA,2,6,"7,11,12,5,8,2,10,14,4,13,9,1,15,3,6"
14814,commdev-image-keyboard-response,724,1451184,learnblock2,627.6999999880791,img/planet13_right.png,13,Community 2,NA,TRUE,j,j,NA,NA,NA,2,6,"7,11,12,5,8,2,10,14,4,13,9,1,15,3,6"
14814,commdev-image-keyboard-response,725,1452438,learnblock2,826.8000000119209,img/planet14_left.png,14,Community 2,NA,FALSE,j,f,NA,NA,NA,2,6,"7,11,12,5,8,2,10,14,4,13,9,1,15,3,6"
14814,commdev-image-keyboard-response,726,1453692,learnblock2,461.2999999821186,img/planet13_left.png,13,Community 2,NA,TRUE,f,f,NA,NA,NA,2,6,"7,11,12,5,8,2,10,14,4,13,9,1,15,3,6"
14814,commdev-image-keyboard-response,727,1454946,learnblock2,799.4000000059605,img/planet4_left.png,4,Community 2,NA,TRUE,f,f,NA,NA,NA,2,6,"7,11,12,5,8,2,10,14,4,13,9,1,15,3,6"
14814,commdev-image-keyboard-response,728,1456207,learnblock2,945.4000000059605,img/planet2_right.png,2,Community 2,NA,TRUE,j,j,NA,NA,NA,2,6,"7,11,12,5,8,2,10,14,4,13,9,1,15,3,6"
14814,commdev-image-keyboard-response,729,1457459,learnblock2,1053.300000011921,img/planet5_right.png,5,Community 1,NA,TRUE,j,j,NA,NA,NA,2,6,"7,11,12,5,8,2,10,14,4,13,9,1,15,3,6"
14814,commdev-image-keyboard-response,730,1458712,learnblock2,1016.4000000059605,img/planet7_right.png,7,Community 1,NA,FALSE,f,j,NA,NA,NA,2,6,"7,11,12,5,8,2,10,14,4,13,9,1,15,3,6"
14814,commdev-image-keyboard-response,731,1459965,learnblock2,1043.4000000059605,img/planet8_right.png,8,Community 1,NA,TRUE,j,j,NA,NA,NA,2,6,"7,11,12,5,8,2,10,14,4,13,9,1,15,3,6"
14814,commdev-image-keyboard-response,732,1461221,learnblock2,758.3999999761581,img/planet12_left.png,12,Community 1,NA,TRUE,f,f,NA,NA,NA,2,6,"7,11,12,5,8,2,10,14,4,13,9,1,15,3,6"
14814,commdev-image-keyboard-response,733,1462475,learnblock2,846.8000000119209,img/planet5_left.png,5,Community 1,NA,TRUE,f,f,NA,NA,NA,2,6,"7,11,12,5,8,2,10,14,4,13,9,1,15,3,6"
14814,commdev-image-keyboard-response,734,1463730,learnblock2,961.2999999821186,img/planet7_left.png,7,Community 1,NA,TRUE,f,f,NA,NA,NA,2,6,"7,11,12,5,8,2,10,14,4,13,9,1,15,3,6"
14814,commdev-image-keyboard-response,735,1464983,learnblock2,1072.9000000059605,img/planet11_right.png,11,Community 1,NA,TRUE,j,j,NA,NA,NA,2,6,"7,11,12,5,8,2,10,14,4,13,9,1,15,3,6"
14814,commdev-image-keyboard-response,736,1466235,learnblock2,876.8000000119209,img/planet8_right.png,8,Community 1,NA,TRUE,j,j,NA,NA,NA,2,6,"7,11,12,5,8,2,10,14,4,13,9,1,15,3,6"
14814,commdev-image-keyboard-response,737,1467491,learnblock2,608.7000000178814,img/planet11_right.png,11,Community 1,NA,TRUE,j,j,NA,NA,NA,2,6,"7,11,12,5,8,2,10,14,4,13,9,1,15,3,6"
14814,commdev-image-keyboard-response,738,1468744,learnblock2,593.4000000059605,img/planet5_left.png,5,Community 1,NA,TRUE,f,f,NA,NA,NA,2,6,"7,11,12,5,8,2,10,14,4,13,9,1,15,3,6"
14814,commdev-image-keyboard-response,739,1469997,learnblock2,651.8000000119209,img/planet7_right.png,7,Community 1,NA,TRUE,j,j,NA,NA,NA,2,6,"7,11,12,5,8,2,10,14,4,13,9,1,15,3,6"
14814,commdev-image-keyboard-response,740,1471251,learnblock2,702.3999999761581,img/planet5_right.png,5,Community 1,NA,TRUE,j,j,NA,NA,NA,2,6,"7,11,12,5,8,2,10,14,4,13,9,1,15,3,6"
14814,commdev-image-keyboard-response,741,1472504,learnblock2,1024.5999999940395,img/planet11_left.png,11,Community 1,NA,FALSE,j,f,NA,NA,NA,2,6,"7,11,12,5,8,2,10,14,4,13,9,1,15,3,6"
14814,commdev-image-keyboard-response,742,1473757,learnblock2,1004,img/planet7_right.png,7,Community 1,NA,TRUE,j,j,NA,NA,NA,2,6,"7,11,12,5,8,2,10,14,4,13,9,1,15,3,6"
14814,commdev-image-keyboard-response,743,1475010,learnblock2,758.1999999880791,img/planet12_left.png,12,Community 1,NA,FALSE,j,f,NA,NA,NA,2,6,"7,11,12,5,8,2,10,14,4,13,9,1,15,3,6"
14814,commdev-image-keyboard-response,744,1476262,learnblock2,null,img/planet11_left.png,11,Community 1,NA,FALSE,null,f,NA,NA,NA,2,6,"7,11,12,5,8,2,10,14,4,13,9,1,15,3,6"
14814,commdev-image-keyboard-response,745,1477517,learnblock2,198,img/planet12_right.png,12,Community 1,NA,TRUE,j,j,NA,NA,NA,2,6,"7,11,12,5,8,2,10,14,4,13,9,1,15,3,6"
14814,commdev-image-keyboard-response,746,1478770,learnblock2,null,img/planet5_right.png,5,Community 1,NA,FALSE,null,j,NA,NA,NA,2,6,"7,11,12,5,8,2,10,14,4,13,9,1,15,3,6"
14814,commdev-image-keyboard-response,747,1480024,learnblock2,802.1000000238419,img/planet12_right.png,12,Community 1,NA,TRUE,j,j,NA,NA,NA,2,6,"7,11,12,5,8,2,10,14,4,13,9,1,15,3,6"
14814,commdev-image-keyboard-response,748,1481278,learnblock2,756.3000000119209,img/planet5_left.png,5,Community 1,NA,TRUE,f,f,NA,NA,NA,2,6,"7,11,12,5,8,2,10,14,4,13,9,1,15,3,6"
14814,commdev-image-keyboard-response,749,1482533,learnblock2,894.4000000059605,img/planet7_left.png,7,Community 1,NA,TRUE,f,f,NA,NA,NA,2,6,"7,11,12,5,8,2,10,14,4,13,9,1,15,3,6"
14814,commdev-image-keyboard-response,750,1483785,learnblock2,783.3000000119209,img/planet5_left.png,5,Community 1,NA,TRUE,f,f,NA,NA,NA,2,6,"7,11,12,5,8,2,10,14,4,13,9,1,15,3,6"
14814,commdev-image-keyboard-response,751,1485038,learnblock2,819,img/planet12_left.png,12,Community 1,NA,TRUE,f,f,NA,NA,NA,2,6,"7,11,12,5,8,2,10,14,4,13,9,1,15,3,6"
14814,commdev-image-keyboard-response,752,1486291,learnblock2,846.4000000059605,img/planet11_right.png,11,Community 1,NA,TRUE,j,j,NA,NA,NA,2,6,"7,11,12,5,8,2,10,14,4,13,9,1,15,3,6"
14814,commdev-image-keyboard-response,753,1487547,learnblock2,993.5999999940395,img/planet7_right.png,7,Community 1,NA,TRUE,j,j,NA,NA,NA,2,6,"7,11,12,5,8,2,10,14,4,13,9,1,15,3,6"
14814,commdev-image-keyboard-response,754,1488801,learnblock2,776.6999999880791,img/planet11_right.png,11,Community 1,NA,TRUE,j,j,NA,NA,NA,2,6,"7,11,12,5,8,2,10,14,4,13,9,1,15,3,6"
