subject_id,trial_type,trial_index,time_elapsed,block,rt,stimulus,planet,community,response,correct,key_press,learning_correct_response,parse,init_locations,final_locations,browser_interactions,num_comp,planet_map
14263,commdev-instructions,7,62773,NA,747.7000000178814,"<p>In this game, you will be shown a 3x3 grid of patterns.</p> <p>The last one in the bottom right-hand corner, <strong>will be missing:</strong></p> <div style='width: 700px;'><div style='float: top;'><img style='width: 200px;' src='practice/p1_M1.png'></img><p class='small'>You need to select<strong> which of the four possible patterns </strong>along the bottom<strong> fits into the gap:</strong></p></div><div style='float: top;'><img style='width: 300px;' src='practice/p1_T1.png'></img></div><br>",NA,NA,NA,NA,NA,NA,NA,NA,NA,3,7,"11,15,13,10,2,12,1,6,4,7,5,9,14,8,3"
14263,commdev-instructions,8,83374,NA,616.0999999940395,"<p>Try to be as fast and as accurate as you can be.</p> <p>If you cannot solve the puzzle then you should guess - you will not be penalised for an incorrect answer.</p> <p>The task contains a shuffled mix of easy, medium and hard puzzles.</p> <p>You will have <strong>30 seconds</strong> to complete each puzzle.</p><br>",NA,NA,NA,NA,NA,NA,NA,NA,NA,3,7,"11,15,13,10,2,12,1,6,4,7,5,9,14,8,3"
14263,commdev-instructions,15,110439,NA,1069,<p><strong>Success!</strong></p> <p>You seem to be getting the hang of this...</p> <p>Let's move on to the real trials.</p><br>,NA,NA,NA,NA,NA,NA,NA,NA,NA,3,7,"11,15,13,10,2,12,1,6,4,7,5,9,14,8,3"
14263,commdev-instructions,115,602523,NA,1817.8999999761581,"<p>In this game, you are a scientist on board a space shuttle. </p><p> On each mission, you will visit planets all across the universe.</p><img src=""img/controlroom.jpg"" width=300vw>",NA,NA,NA,NA,NA,NA,NA,NA,NA,3,7,"11,15,13,10,2,12,1,6,4,7,5,9,14,8,3"
14263,commdev-instructions,116,605216,NA,624.5999999940395,"<p>Here are a few planets you might see:</p><img src=""img/practice1.png"" width=200vw><img src=""img/practice2.png"" width=200vw><img src=""img/practice3.png"" width=200vw>",NA,NA,NA,NA,NA,NA,NA,NA,NA,3,7,"11,15,13,10,2,12,1,6,4,7,5,9,14,8,3"
14263,commdev-instructions,117,613540,NA,926.5999999940395,"<p>Your job as a scientist is to record which direction the winds are moving on each planet.</p><p>There are two types of wind directions:</p><img src=""img/practice1_left.png"" width=200vw><img src=""img/practice1_right.png"" width=200vw>",NA,NA,NA,NA,NA,NA,NA,NA,NA,3,7,"11,15,13,10,2,12,1,6,4,7,5,9,14,8,3"
14263,commdev-instructions,118,619529,NA,1109.2999999821186,"<p>If the winds are moving this way, press the letter <strong>F</strong> on the keyboard as fast as you can.</p><img src=""img/leftwind.png"" width=250vw>",NA,NA,NA,NA,NA,NA,NA,NA,NA,3,7,"11,15,13,10,2,12,1,6,4,7,5,9,14,8,3"
14263,commdev-instructions,119,624982,NA,956.5,"<p>If the winds are moving this way, press the letter <strong>J</strong> on the keyboard as fast as you can.</p><img src=""img/rightwind.png"" width=350vw>",NA,NA,NA,NA,NA,NA,NA,NA,NA,3,7,"11,15,13,10,2,12,1,6,4,7,5,9,14,8,3"
14263,commdev-instructions,120,630360,NA,958,<p>You will have 1 second to respond. Try to respond before the time runs out!,NA,NA,NA,NA,NA,NA,NA,NA,NA,3,7,"11,15,13,10,2,12,1,6,4,7,5,9,14,8,3"
14263,commdev-instructions,121,636862,NA,1070.9000000059605,<p>The planets you will visit will look different from each other.</p><p>You should respond <strong>only</strong> based on wind direction.,NA,NA,NA,NA,NA,NA,NA,NA,NA,3,7,"11,15,13,10,2,12,1,6,4,7,5,9,14,8,3"
14263,commdev-instructions,122,643586,NA,1552.2999999821186,"<p> Ready to start the practice round? </p><p> Remember, press <strong>F</strong> or <strong>J</strong> depending on the wind direction.<br><img src=""img/categorize_planet_example.png""",NA,NA,NA,NA,NA,NA,NA,NA,NA,3,7,"11,15,13,10,2,12,1,6,4,7,5,9,14,8,3"
14263,commdev-instructions,134,701090,NA,2016.9000000059605,"<p>Great, now try a short practice mission. </p><p> This time, you will have 1 second to respond and you won't know whether you pressed the right or wrong key for each planet.</p>",NA,NA,NA,NA,NA,NA,NA,NA,NA,3,7,"11,15,13,10,2,12,1,6,4,7,5,9,14,8,3"
14263,commdev-image-keyboard-response,135,702446,practice,null,img/practice4_right.png,NA,Number not found in mappings,NA,FALSE,null,j,NA,NA,NA,3,7,"11,15,13,10,2,12,1,6,4,7,5,9,14,8,3"
14263,commdev-image-keyboard-response,136,703700,practice,null,img/practice2_right.png,NA,Number not found in mappings,NA,FALSE,null,j,NA,NA,NA,3,7,"11,15,13,10,2,12,1,6,4,7,5,9,14,8,3"
14263,commdev-image-keyboard-response,137,704953,practice,null,img/practice4_right.png,NA,Number not found in mappings,NA,FALSE,null,j,NA,NA,NA,3,7,"11,15,13,10,2,12,1,6,4,7,5,9,14,8,3"
14263,commdev-image-keyboard-response,138,706205,practice,681.5999999940395,img/practice2_left.png,NA,Number not found in mappings,NA,FALSE,j,f,NA,NA,NA,3,7,"11,15,13,10,2,12,1,6,4,7,5,9,14,8,3"
14263,commdev-image-keyboard-response,139,707459,practice,336.19999998807907,img/practice4_right.png,NA,Number not found in mappings,NA,FALSE,f,j,NA,NA,NA,3,7,"11,15,13,10,2,12,1,6,4,7,5,9,14,8,3"
14263,commdev-image-keyboard-response,140,708713,practice,52.19999998807907,img/practice1_left.png,NA,Number not found in mappings,NA,FALSE,j,f,NA,NA,NA,3,7,"11,15,13,10,2,12,1,6,4,7,5,9,14,8,3"
14263,commdev-image-keyboard-response,141,709966,practice,106.10000002384186,img/practice4_left.png,NA,Number not found in mappings,NA,TRUE,f,f,NA,NA,NA,3,7,"11,15,13,10,2,12,1,6,4,7,5,9,14,8,3"
14263,commdev-image-keyboard-response,142,711218,practice,310.39999997615814,img/practice1_right.png,NA,Number not found in mappings,NA,TRUE,j,j,NA,NA,NA,3,7,"11,15,13,10,2,12,1,6,4,7,5,9,14,8,3"
14263,commdev-instructions,143,722170,NA,1399.9000000059605,"<p>Great job with the practice round.</p><p>During real missions, you won't know whether you pressed the right or wrong key for each planet.</p><p>But between missions, we will tell you how you did overall.</p>",NA,NA,NA,NA,NA,NA,NA,NA,NA,3,7,"11,15,13,10,2,12,1,6,4,7,5,9,14,8,3"
14263,commdev-instructions,144,731324,NA,912.8999999761581,<p>Try your best! You will be paid a bonus based on how many correct responses you make!</p><p>Responses that are too slow will not count toward your bonus.</p>,NA,NA,NA,NA,NA,NA,NA,NA,NA,3,7,"11,15,13,10,2,12,1,6,4,7,5,9,14,8,3"
14263,commdev-instructions,145,738174,NA,653.5,"<p>You are almost ready to start the real game.</p><p> First, we are going to ask you some questions about how the game works.</p>",NA,NA,NA,NA,NA,NA,NA,NA,NA,3,7,"11,15,13,10,2,12,1,6,4,7,5,9,14,8,3"
14263,commdev-instructions,156,851112,NA,1432.9000000059605,"<p> Nice work! It is now time to start the real game.<p></p>You will go on two missions to record wind directions of different planets.<p></p>Each one will take about 5 minutes. You will get to take a break between missions.<p><p> Remember, press <strong>F</strong> or <strong>J</strong> depending on the wind direction. Good luck!<br><img src=""img/categorize_planet_example.png""",NA,NA,NA,NA,NA,NA,NA,NA,NA,3,7,"11,15,13,10,2,12,1,6,4,7,5,9,14,8,3"
14263,commdev-image-keyboard-response,158,859148,learnblock1,516.4000000059605,img/planet4_right.png,4,Community 2,NA,FALSE,f,j,NA,NA,NA,3,7,"11,15,13,10,2,12,1,6,4,7,5,9,14,8,3"
14263,commdev-image-keyboard-response,159,860401,learnblock1,374.40000000596046,img/planet12_right.png,12,Community 2,NA,TRUE,j,j,NA,NA,NA,3,7,"11,15,13,10,2,12,1,6,4,7,5,9,14,8,3"
14263,commdev-image-keyboard-response,160,861654,learnblock1,265.80000001192093,img/planet4_right.png,4,Community 2,NA,TRUE,j,j,NA,NA,NA,3,7,"11,15,13,10,2,12,1,6,4,7,5,9,14,8,3"
14263,commdev-image-keyboard-response,161,862907,learnblock1,287.40000000596046,img/planet7_right.png,7,Community 2,NA,FALSE,f,j,NA,NA,NA,3,7,"11,15,13,10,2,12,1,6,4,7,5,9,14,8,3"
14263,commdev-image-keyboard-response,162,864161,learnblock1,212.10000002384186,img/planet12_left.png,12,Community 2,NA,TRUE,f,f,NA,NA,NA,3,7,"11,15,13,10,2,12,1,6,4,7,5,9,14,8,3"
14263,commdev-image-keyboard-response,163,865415,learnblock1,null,img/planet1_left.png,1,Community 2,NA,FALSE,null,f,NA,NA,NA,3,7,"11,15,13,10,2,12,1,6,4,7,5,9,14,8,3"
14263,commdev-image-keyboard-response,164,866668,learnblock1,153.90000000596046,img/planet12_right.png,12,Community 2,NA,TRUE,j,j,NA,NA,NA,3,7,"11,15,13,10,2,12,1,6,4,7,5,9,14,8,3"
14263,commdev-image-keyboard-response,165,867920,learnblock1,297.69999998807907,img/planet4_right.png,4,Community 2,NA,FALSE,f,j,NA,NA,NA,3,7,"11,15,13,10,2,12,1,6,4,7,5,9,14,8,3"
14263,commdev-image-keyboard-response,166,869172,learnblock1,309.19999998807907,img/planet7_left.png,7,Community 2,NA,TRUE,f,f,NA,NA,NA,3,7,"11,15,13,10,2,12,1,6,4,7,5,9,14,8,3"
14263,commdev-image-keyboard-response,167,870425,learnblock1,251.09999999403954,img/planet12_right.png,12,Community 2,NA,TRUE,j,j,NA,NA,NA,3,7,"11,15,13,10,2,12,1,6,4,7,5,9,14,8,3"
14263,commdev-image-keyboard-response,168,871678,learnblock1,169.39999997615814,img/planet7_right.png,7,Community 2,NA,TRUE,j,j,NA,NA,NA,3,7,"11,15,13,10,2,12,1,6,4,7,5,9,14,8,3"
14263,commdev-image-keyboard-response,169,872931,learnblock1,1106.7999999821186,img/planet4_right.png,4,Community 2,NA,TRUE,j,j,NA,NA,NA,3,7,"11,15,13,10,2,12,1,6,4,7,5,9,14,8,3"
14263,commdev-image-keyboard-response,170,874184,learnblock1,null,img/planet6_left.png,6,Community 2,NA,FALSE,null,f,NA,NA,NA,3,7,"11,15,13,10,2,12,1,6,4,7,5,9,14,8,3"
14263,commdev-image-keyboard-response,171,875438,learnblock1,143.2999999821186,img/planet7_right.png,7,Community 2,NA,FALSE,f,j,NA,NA,NA,3,7,"11,15,13,10,2,12,1,6,4,7,5,9,14,8,3"
14263,commdev-image-keyboard-response,172,876690,learnblock1,143.80000001192093,img/planet6_right.png,6,Community 2,NA,TRUE,j,j,NA,NA,NA,3,7,"11,15,13,10,2,12,1,6,4,7,5,9,14,8,3"
14263,commdev-image-keyboard-response,173,877943,learnblock1,62.900000005960464,img/planet7_left.png,7,Community 2,NA,TRUE,f,f,NA,NA,NA,3,7,"11,15,13,10,2,12,1,6,4,7,5,9,14,8,3"
14263,commdev-image-keyboard-response,174,879195,learnblock1,30.600000023841858,img/planet12_left.png,12,Community 2,NA,FALSE,j,f,NA,NA,NA,3,7,"11,15,13,10,2,12,1,6,4,7,5,9,14,8,3"
14263,commdev-image-keyboard-response,175,880448,learnblock1,null,img/planet10_right.png,10,Community 1,NA,FALSE,null,j,NA,NA,NA,3,7,"11,15,13,10,2,12,1,6,4,7,5,9,14,8,3"
14263,commdev-image-keyboard-response,176,881701,learnblock1,47.80000001192093,img/planet15_right.png,15,Community 1,NA,TRUE,j,j,NA,NA,NA,3,7,"11,15,13,10,2,12,1,6,4,7,5,9,14,8,3"
14263,commdev-image-keyboard-response,177,882954,learnblock1,53.30000001192093,img/planet2_left.png,2,Community 1,NA,TRUE,f,f,NA,NA,NA,3,7,"11,15,13,10,2,12,1,6,4,7,5,9,14,8,3"
14263,commdev-image-keyboard-response,178,884206,learnblock1,81.7000000178814,img/planet13_left.png,13,Community 1,NA,TRUE,f,f,NA,NA,NA,3,7,"11,15,13,10,2,12,1,6,4,7,5,9,14,8,3"
14263,commdev-image-keyboard-response,179,885459,learnblock1,133.69999998807907,img/planet2_right.png,2,Community 1,NA,FALSE,f,j,NA,NA,NA,3,7,"11,15,13,10,2,12,1,6,4,7,5,9,14,8,3"
14263,commdev-image-keyboard-response,180,886711,learnblock1,168.19999998807907,img/planet15_right.png,15,Community 1,NA,TRUE,j,j,NA,NA,NA,3,7,"11,15,13,10,2,12,1,6,4,7,5,9,14,8,3"
14263,commdev-image-keyboard-response,181,887964,learnblock1,196.39999997615814,img/planet11_right.png,11,Community 1,NA,TRUE,j,j,NA,NA,NA,3,7,"11,15,13,10,2,12,1,6,4,7,5,9,14,8,3"
14263,commdev-image-keyboard-response,182,889217,learnblock1,235.2999999821186,img/planet13_right.png,13,Community 1,NA,TRUE,j,j,NA,NA,NA,3,7,"11,15,13,10,2,12,1,6,4,7,5,9,14,8,3"
14263,commdev-image-keyboard-response,183,890470,learnblock1,255.69999998807907,img/planet11_left.png,11,Community 1,NA,FALSE,j,f,NA,NA,NA,3,7,"11,15,13,10,2,12,1,6,4,7,5,9,14,8,3"
14263,commdev-image-keyboard-response,184,891721,learnblock1,331.5,img/planet2_right.png,2,Community 1,NA,TRUE,j,j,NA,NA,NA,3,7,"11,15,13,10,2,12,1,6,4,7,5,9,14,8,3"
14263,commdev-image-keyboard-response,185,892974,learnblock1,431,img/planet11_left.png,11,Community 1,NA,FALSE,j,f,NA,NA,NA,3,7,"11,15,13,10,2,12,1,6,4,7,5,9,14,8,3"
14263,commdev-image-keyboard-response,186,894226,learnblock1,248,img/planet2_right.png,2,Community 1,NA,FALSE,f,j,NA,NA,NA,3,7,"11,15,13,10,2,12,1,6,4,7,5,9,14,8,3"
14263,commdev-image-keyboard-response,187,895481,learnblock1,309.30000001192093,img/planet13_right.png,13,Community 1,NA,FALSE,f,j,NA,NA,NA,3,7,"11,15,13,10,2,12,1,6,4,7,5,9,14,8,3"
14263,commdev-image-keyboard-response,188,896735,learnblock1,43.900000005960464,img/planet2_left.png,2,Community 1,NA,FALSE,j,f,NA,NA,NA,3,7,"11,15,13,10,2,12,1,6,4,7,5,9,14,8,3"
14263,commdev-image-keyboard-response,189,897987,learnblock1,76.2000000178814,img/planet15_left.png,15,Community 1,NA,FALSE,j,f,NA,NA,NA,3,7,"11,15,13,10,2,12,1,6,4,7,5,9,14,8,3"
14263,commdev-image-keyboard-response,190,899240,learnblock1,12.200000017881393,img/planet10_right.png,10,Community 1,NA,FALSE,f,j,NA,NA,NA,3,7,"11,15,13,10,2,12,1,6,4,7,5,9,14,8,3"
14263,commdev-image-keyboard-response,191,900492,learnblock1,302.30000001192093,img/planet13_left.png,13,Community 1,NA,FALSE,j,f,NA,NA,NA,3,7,"11,15,13,10,2,12,1,6,4,7,5,9,14,8,3"
14263,commdev-image-keyboard-response,192,901745,learnblock1,239,img/planet2_right.png,2,Community 1,NA,TRUE,j,j,NA,NA,NA,3,7,"11,15,13,10,2,12,1,6,4,7,5,9,14,8,3"
14263,commdev-image-keyboard-response,193,902999,learnblock1,179,img/planet15_right.png,15,Community 1,NA,FALSE,f,j,NA,NA,NA,3,7,"11,15,13,10,2,12,1,6,4,7,5,9,14,8,3"
14263,commdev-image-keyboard-response,194,904252,learnblock1,1145.5999999940395,img/planet13_right.png,13,Community 1,NA,FALSE,f,j,NA,NA,NA,3,7,"11,15,13,10,2,12,1,6,4,7,5,9,14,8,3"
14263,commdev-image-keyboard-response,195,905504,learnblock1,1137.5999999940395,img/planet11_left.png,11,Community 1,NA,FALSE,j,f,NA,NA,NA,3,7,"11,15,13,10,2,12,1,6,4,7,5,9,14,8,3"
14263,commdev-image-keyboard-response,196,906756,learnblock1,1165.699999988079,img/planet2_left.png,2,Community 1,NA,FALSE,j,f,NA,NA,NA,3,7,"11,15,13,10,2,12,1,6,4,7,5,9,14,8,3"
14263,commdev-image-keyboard-response,197,908009,learnblock1,1238.7999999821186,img/planet11_right.png,11,Community 1,NA,FALSE,f,j,NA,NA,NA,3,7,"11,15,13,10,2,12,1,6,4,7,5,9,14,8,3"
14263,commdev-image-keyboard-response,198,909261,learnblock1,1108.800000011921,img/planet13_right.png,13,Community 1,NA,FALSE,f,j,NA,NA,NA,3,7,"11,15,13,10,2,12,1,6,4,7,5,9,14,8,3"
14263,commdev-image-keyboard-response,199,910513,learnblock1,null,img/planet2_left.png,2,Community 1,NA,FALSE,null,f,NA,NA,NA,3,7,"11,15,13,10,2,12,1,6,4,7,5,9,14,8,3"
14263,commdev-image-keyboard-response,200,911767,learnblock1,44.400000005960464,img/planet15_left.png,15,Community 1,NA,TRUE,f,f,NA,NA,NA,3,7,"11,15,13,10,2,12,1,6,4,7,5,9,14,8,3"
14263,commdev-image-keyboard-response,201,913019,learnblock1,218.09999999403954,img/planet11_left.png,11,Community 1,NA,TRUE,f,f,NA,NA,NA,3,7,"11,15,13,10,2,12,1,6,4,7,5,9,14,8,3"
14263,commdev-image-keyboard-response,202,914273,learnblock1,390.90000000596046,img/planet13_right.png,13,Community 1,NA,TRUE,j,j,NA,NA,NA,3,7,"11,15,13,10,2,12,1,6,4,7,5,9,14,8,3"
14263,commdev-image-keyboard-response,203,915527,learnblock1,305.69999998807907,img/planet11_right.png,11,Community 1,NA,FALSE,f,j,NA,NA,NA,3,7,"11,15,13,10,2,12,1,6,4,7,5,9,14,8,3"
14263,commdev-image-keyboard-response,204,916780,learnblock1,200.90000000596046,img/planet10_right.png,10,Community 1,NA,TRUE,j,j,NA,NA,NA,3,7,"11,15,13,10,2,12,1,6,4,7,5,9,14,8,3"
14263,commdev-image-keyboard-response,205,918034,learnblock1,66.19999998807907,img/planet15_left.png,15,Community 1,NA,TRUE,f,f,NA,NA,NA,3,7,"11,15,13,10,2,12,1,6,4,7,5,9,14,8,3"
14263,commdev-image-keyboard-response,206,919287,learnblock1,464.5,img/planet10_left.png,10,Community 1,NA,TRUE,f,f,NA,NA,NA,3,7,"11,15,13,10,2,12,1,6,4,7,5,9,14,8,3"
14263,commdev-image-keyboard-response,207,920540,learnblock1,298.7000000178814,img/planet12_right.png,12,Community 2,NA,FALSE,f,j,NA,NA,NA,3,7,"11,15,13,10,2,12,1,6,4,7,5,9,14,8,3"
14263,commdev-image-keyboard-response,208,921792,learnblock1,122.2999999821186,img/planet10_right.png,10,Community 1,NA,FALSE,f,j,NA,NA,NA,3,7,"11,15,13,10,2,12,1,6,4,7,5,9,14,8,3"
14263,commdev-image-keyboard-response,209,923046,learnblock1,162.2999999821186,img/planet15_right.png,15,Community 1,NA,FALSE,f,j,NA,NA,NA,3,7,"11,15,13,10,2,12,1,6,4,7,5,9,14,8,3"
14263,commdev-image-keyboard-response,210,924300,learnblock1,477.7999999821186,img/planet13_left.png,13,Community 1,NA,FALSE,j,f,NA,NA,NA,3,7,"11,15,13,10,2,12,1,6,4,7,5,9,14,8,3"
14263,commdev-image-keyboard-response,211,925552,learnblock1,424.80000001192093,img/planet10_left.png,10,Community 1,NA,FALSE,j,f,NA,NA,NA,3,7,"11,15,13,10,2,12,1,6,4,7,5,9,14,8,3"
14263,commdev-image-keyboard-response,212,926805,learnblock1,162.19999998807907,img/planet11_right.png,11,Community 1,NA,FALSE,f,j,NA,NA,NA,3,7,"11,15,13,10,2,12,1,6,4,7,5,9,14,8,3"
14263,commdev-image-keyboard-response,213,928059,learnblock1,224.69999998807907,img/planet2_left.png,2,Community 1,NA,FALSE,j,f,NA,NA,NA,3,7,"11,15,13,10,2,12,1,6,4,7,5,9,14,8,3"
14263,commdev-image-keyboard-response,214,929311,learnblock1,4.600000023841858,img/planet11_right.png,11,Community 1,NA,TRUE,j,j,NA,NA,NA,3,7,"11,15,13,10,2,12,1,6,4,7,5,9,14,8,3"
14263,commdev-image-keyboard-response,215,930563,learnblock1,958.4000000059605,img/planet2_left.png,2,Community 1,NA,TRUE,f,f,NA,NA,NA,3,7,"11,15,13,10,2,12,1,6,4,7,5,9,14,8,3"
14263,commdev-image-keyboard-response,216,931816,learnblock1,1209.9000000059605,img/planet15_right.png,15,Community 1,NA,TRUE,j,j,NA,NA,NA,3,7,"11,15,13,10,2,12,1,6,4,7,5,9,14,8,3"
14263,commdev-image-keyboard-response,217,933071,learnblock1,1012.6999999880791,img/planet2_left.png,2,Community 1,NA,TRUE,f,f,NA,NA,NA,3,7,"11,15,13,10,2,12,1,6,4,7,5,9,14,8,3"
14263,commdev-image-keyboard-response,218,934325,learnblock1,717.4000000059605,img/planet15_left.png,15,Community 1,NA,FALSE,j,f,NA,NA,NA,3,7,"11,15,13,10,2,12,1,6,4,7,5,9,14,8,3"
14263,commdev-image-keyboard-response,219,935579,learnblock1,413.90000000596046,img/planet13_left.png,13,Community 1,NA,TRUE,f,f,NA,NA,NA,3,7,"11,15,13,10,2,12,1,6,4,7,5,9,14,8,3"
14263,commdev-image-keyboard-response,220,936832,learnblock1,144.59999999403954,img/planet11_left.png,11,Community 1,NA,FALSE,j,f,NA,NA,NA,3,7,"11,15,13,10,2,12,1,6,4,7,5,9,14,8,3"
14263,commdev-image-keyboard-response,221,938084,learnblock1,301.09999999403954,img/planet2_left.png,2,Community 1,NA,TRUE,f,f,NA,NA,NA,3,7,"11,15,13,10,2,12,1,6,4,7,5,9,14,8,3"
14263,commdev-image-keyboard-response,222,939339,learnblock1,1.7999999821186066,img/planet11_left.png,11,Community 1,NA,TRUE,f,f,NA,NA,NA,3,7,"11,15,13,10,2,12,1,6,4,7,5,9,14,8,3"
14263,commdev-image-keyboard-response,223,940592,learnblock1,164.89999997615814,img/planet10_right.png,10,Community 1,NA,TRUE,j,j,NA,NA,NA,3,7,"11,15,13,10,2,12,1,6,4,7,5,9,14,8,3"
14263,commdev-image-keyboard-response,224,941846,learnblock1,568.5999999940395,img/planet12_right.png,12,Community 2,NA,FALSE,f,j,NA,NA,NA,3,7,"11,15,13,10,2,12,1,6,4,7,5,9,14,8,3"
14263,commdev-image-keyboard-response,225,943100,learnblock1,291.2000000178814,img/planet1_left.png,1,Community 2,NA,FALSE,j,f,NA,NA,NA,3,7,"11,15,13,10,2,12,1,6,4,7,5,9,14,8,3"
14263,commdev-image-keyboard-response,226,944352,learnblock1,303.2000000178814,img/planet6_left.png,6,Community 2,NA,TRUE,f,f,NA,NA,NA,3,7,"11,15,13,10,2,12,1,6,4,7,5,9,14,8,3"
14263,commdev-image-keyboard-response,227,945604,learnblock1,293.90000000596046,img/planet9_left.png,9,Community 3,NA,FALSE,j,f,NA,NA,NA,3,7,"11,15,13,10,2,12,1,6,4,7,5,9,14,8,3"
14263,commdev-image-keyboard-response,228,946858,learnblock1,134.19999998807907,img/planet6_left.png,6,Community 2,NA,TRUE,f,f,NA,NA,NA,3,7,"11,15,13,10,2,12,1,6,4,7,5,9,14,8,3"
14263,commdev-image-keyboard-response,229,948110,learnblock1,998.3000000119209,img/planet4_left.png,4,Community 2,NA,FALSE,j,f,NA,NA,NA,3,7,"11,15,13,10,2,12,1,6,4,7,5,9,14,8,3"
14263,commdev-image-keyboard-response,230,949363,learnblock1,1048.199999988079,img/planet1_left.png,1,Community 2,NA,TRUE,f,f,NA,NA,NA,3,7,"11,15,13,10,2,12,1,6,4,7,5,9,14,8,3"
14263,commdev-image-keyboard-response,231,950615,learnblock1,1042,img/planet12_left.png,12,Community 2,NA,FALSE,j,f,NA,NA,NA,3,7,"11,15,13,10,2,12,1,6,4,7,5,9,14,8,3"
14263,commdev-image-keyboard-response,232,951867,learnblock1,1180.2999999821186,img/planet7_right.png,7,Community 2,NA,FALSE,f,j,NA,NA,NA,3,7,"11,15,13,10,2,12,1,6,4,7,5,9,14,8,3"
14263,commdev-image-keyboard-response,233,953121,learnblock1,null,img/planet6_left.png,6,Community 2,NA,FALSE,null,f,NA,NA,NA,3,7,"11,15,13,10,2,12,1,6,4,7,5,9,14,8,3"
14263,commdev-image-keyboard-response,234,954375,learnblock1,34.10000002384186,img/planet1_right.png,1,Community 2,NA,TRUE,j,j,NA,NA,NA,3,7,"11,15,13,10,2,12,1,6,4,7,5,9,14,8,3"
14263,commdev-image-keyboard-response,235,955628,learnblock1,350.59999999403954,img/planet7_left.png,7,Community 2,NA,TRUE,f,f,NA,NA,NA,3,7,"11,15,13,10,2,12,1,6,4,7,5,9,14,8,3"
14263,commdev-image-keyboard-response,236,956880,learnblock1,359.7999999821186,img/planet6_right.png,6,Community 2,NA,TRUE,j,j,NA,NA,NA,3,7,"11,15,13,10,2,12,1,6,4,7,5,9,14,8,3"
14263,commdev-image-keyboard-response,237,958132,learnblock1,325.5,img/planet9_left.png,9,Community 3,NA,FALSE,j,f,NA,NA,NA,3,7,"11,15,13,10,2,12,1,6,4,7,5,9,14,8,3"
14263,commdev-image-keyboard-response,238,959385,learnblock1,337,img/planet3_right.png,3,Community 3,NA,TRUE,j,j,NA,NA,NA,3,7,"11,15,13,10,2,12,1,6,4,7,5,9,14,8,3"
14263,commdev-image-keyboard-response,239,960638,learnblock1,303.19999998807907,img/planet14_right.png,14,Community 3,NA,FALSE,f,j,NA,NA,NA,3,7,"11,15,13,10,2,12,1,6,4,7,5,9,14,8,3"
14263,commdev-image-keyboard-response,240,961891,learnblock1,389.69999998807907,img/planet8_right.png,8,Community 3,NA,FALSE,f,j,NA,NA,NA,3,7,"11,15,13,10,2,12,1,6,4,7,5,9,14,8,3"
14263,commdev-image-keyboard-response,241,963144,learnblock1,393.09999999403954,img/planet9_left.png,9,Community 3,NA,FALSE,j,f,NA,NA,NA,3,7,"11,15,13,10,2,12,1,6,4,7,5,9,14,8,3"
14263,commdev-image-keyboard-response,242,964397,learnblock1,311.2999999821186,img/planet8_left.png,8,Community 3,NA,TRUE,f,f,NA,NA,NA,3,7,"11,15,13,10,2,12,1,6,4,7,5,9,14,8,3"
14263,commdev-image-keyboard-response,243,965650,learnblock1,274.2000000178814,img/planet5_left.png,5,Community 3,NA,TRUE,f,f,NA,NA,NA,3,7,"11,15,13,10,2,12,1,6,4,7,5,9,14,8,3"
14263,commdev-image-keyboard-response,244,966903,learnblock1,1213.9000000059605,img/planet2_left.png,2,Community 1,NA,FALSE,j,f,NA,NA,NA,3,7,"11,15,13,10,2,12,1,6,4,7,5,9,14,8,3"
14263,commdev-image-keyboard-response,245,968156,learnblock1,913.4000000059605,img/planet13_left.png,13,Community 1,NA,TRUE,f,f,NA,NA,NA,3,7,"11,15,13,10,2,12,1,6,4,7,5,9,14,8,3"
14263,commdev-image-keyboard-response,246,969409,learnblock1,723.5,img/planet2_right.png,2,Community 1,NA,FALSE,f,j,NA,NA,NA,3,7,"11,15,13,10,2,12,1,6,4,7,5,9,14,8,3"
14263,commdev-image-keyboard-response,247,970662,learnblock1,289.59999999403954,img/planet5_right.png,5,Community 3,NA,TRUE,j,j,NA,NA,NA,3,7,"11,15,13,10,2,12,1,6,4,7,5,9,14,8,3"
14263,commdev-image-keyboard-response,248,971916,learnblock1,260.2000000178814,img/planet3_right.png,3,Community 3,NA,TRUE,j,j,NA,NA,NA,3,7,"11,15,13,10,2,12,1,6,4,7,5,9,14,8,3"
14263,commdev-image-keyboard-response,249,973169,learnblock1,287.40000000596046,img/planet9_right.png,9,Community 3,NA,FALSE,f,j,NA,NA,NA,3,7,"11,15,13,10,2,12,1,6,4,7,5,9,14,8,3"
14263,commdev-image-keyboard-response,250,974427,learnblock1,151.30000001192093,img/planet6_right.png,6,Community 2,NA,FALSE,f,j,NA,NA,NA,3,7,"11,15,13,10,2,12,1,6,4,7,5,9,14,8,3"
14263,commdev-image-keyboard-response,251,975679,learnblock1,1037.9000000059605,img/planet9_right.png,9,Community 3,NA,TRUE,j,j,NA,NA,NA,3,7,"11,15,13,10,2,12,1,6,4,7,5,9,14,8,3"
14263,commdev-image-keyboard-response,252,976930,learnblock1,1131.199999988079,img/planet3_right.png,3,Community 3,NA,FALSE,f,j,NA,NA,NA,3,7,"11,15,13,10,2,12,1,6,4,7,5,9,14,8,3"
14263,commdev-image-keyboard-response,253,978184,learnblock1,1039.3999999761581,img/planet9_right.png,9,Community 3,NA,FALSE,f,j,NA,NA,NA,3,7,"11,15,13,10,2,12,1,6,4,7,5,9,14,8,3"
14263,commdev-image-keyboard-response,254,979437,learnblock1,null,img/planet6_right.png,6,Community 2,NA,FALSE,null,j,NA,NA,NA,3,7,"11,15,13,10,2,12,1,6,4,7,5,9,14,8,3"
14263,commdev-image-keyboard-response,255,980690,learnblock1,6.5,img/planet7_right.png,7,Community 2,NA,FALSE,f,j,NA,NA,NA,3,7,"11,15,13,10,2,12,1,6,4,7,5,9,14,8,3"
14263,commdev-image-keyboard-response,256,981944,learnblock1,201,img/planet12_right.png,12,Community 2,NA,TRUE,j,j,NA,NA,NA,3,7,"11,15,13,10,2,12,1,6,4,7,5,9,14,8,3"
14263,commdev-image-keyboard-response,257,983196,learnblock1,244.09999999403954,img/planet7_left.png,7,Community 2,NA,FALSE,j,f,NA,NA,NA,3,7,"11,15,13,10,2,12,1,6,4,7,5,9,14,8,3"
14263,commdev-image-keyboard-response,258,984449,learnblock1,353.40000000596046,img/planet4_right.png,4,Community 2,NA,FALSE,f,j,NA,NA,NA,3,7,"11,15,13,10,2,12,1,6,4,7,5,9,14,8,3"
14263,commdev-image-keyboard-response,259,985703,learnblock1,336.19999998807907,img/planet12_right.png,12,Community 2,NA,FALSE,f,j,NA,NA,NA,3,7,"11,15,13,10,2,12,1,6,4,7,5,9,14,8,3"
14263,commdev-image-keyboard-response,260,986957,learnblock1,312.09999999403954,img/planet10_left.png,10,Community 1,NA,FALSE,j,f,NA,NA,NA,3,7,"11,15,13,10,2,12,1,6,4,7,5,9,14,8,3"
14263,commdev-image-keyboard-response,261,988210,learnblock1,1187.3999999761581,img/planet11_left.png,11,Community 1,NA,FALSE,j,f,NA,NA,NA,3,7,"11,15,13,10,2,12,1,6,4,7,5,9,14,8,3"
14263,commdev-image-keyboard-response,262,989463,learnblock1,1181.800000011921,img/planet15_left.png,15,Community 1,NA,FALSE,j,f,NA,NA,NA,3,7,"11,15,13,10,2,12,1,6,4,7,5,9,14,8,3"
14263,commdev-image-keyboard-response,263,990717,learnblock1,null,img/planet10_left.png,10,Community 1,NA,FALSE,null,f,NA,NA,NA,3,7,"11,15,13,10,2,12,1,6,4,7,5,9,14,8,3"
14263,commdev-image-keyboard-response,264,991969,learnblock1,122.09999999403954,img/planet15_left.png,15,Community 1,NA,TRUE,f,f,NA,NA,NA,3,7,"11,15,13,10,2,12,1,6,4,7,5,9,14,8,3"
14263,commdev-image-keyboard-response,265,993222,learnblock1,276.80000001192093,img/planet10_left.png,10,Community 1,NA,FALSE,j,f,NA,NA,NA,3,7,"11,15,13,10,2,12,1,6,4,7,5,9,14,8,3"
14263,commdev-image-keyboard-response,266,994474,learnblock1,144.30000001192093,img/planet11_right.png,11,Community 1,NA,TRUE,j,j,NA,NA,NA,3,7,"11,15,13,10,2,12,1,6,4,7,5,9,14,8,3"
14263,commdev-image-keyboard-response,267,995726,learnblock1,204.40000000596046,img/planet2_right.png,2,Community 1,NA,FALSE,f,j,NA,NA,NA,3,7,"11,15,13,10,2,12,1,6,4,7,5,9,14,8,3"
14263,commdev-image-keyboard-response,268,996980,learnblock1,137.69999998807907,img/planet13_right.png,13,Community 1,NA,TRUE,j,j,NA,NA,NA,3,7,"11,15,13,10,2,12,1,6,4,7,5,9,14,8,3"
14263,commdev-image-keyboard-response,269,998232,learnblock1,46.20000001788139,img/planet2_right.png,2,Community 1,NA,TRUE,j,j,NA,NA,NA,3,7,"11,15,13,10,2,12,1,6,4,7,5,9,14,8,3"
14263,commdev-image-keyboard-response,270,999484,learnblock1,100.7999999821186,img/planet5_left.png,5,Community 3,NA,TRUE,f,f,NA,NA,NA,3,7,"11,15,13,10,2,12,1,6,4,7,5,9,14,8,3"
14263,commdev-image-keyboard-response,271,1000738,learnblock1,76.59999999403954,img/planet2_right.png,2,Community 1,NA,TRUE,j,j,NA,NA,NA,3,7,"11,15,13,10,2,12,1,6,4,7,5,9,14,8,3"
14263,commdev-image-keyboard-response,272,1001991,learnblock1,0.19999998807907104,img/planet11_right.png,11,Community 1,NA,TRUE,j,j,NA,NA,NA,3,7,"11,15,13,10,2,12,1,6,4,7,5,9,14,8,3"
14263,commdev-image-keyboard-response,273,1003243,learnblock1,190.40000000596046,img/planet10_right.png,10,Community 1,NA,FALSE,f,j,NA,NA,NA,3,7,"11,15,13,10,2,12,1,6,4,7,5,9,14,8,3"
14263,commdev-image-keyboard-response,274,1004497,learnblock1,239.5,img/planet13_left.png,13,Community 1,NA,FALSE,j,f,NA,NA,NA,3,7,"11,15,13,10,2,12,1,6,4,7,5,9,14,8,3"
14263,commdev-image-keyboard-response,275,1005750,learnblock1,256.09999999403954,img/planet2_right.png,2,Community 1,NA,TRUE,j,j,NA,NA,NA,3,7,"11,15,13,10,2,12,1,6,4,7,5,9,14,8,3"
14263,commdev-image-keyboard-response,276,1007003,learnblock1,334.90000000596046,img/planet15_left.png,15,Community 1,NA,FALSE,j,f,NA,NA,NA,3,7,"11,15,13,10,2,12,1,6,4,7,5,9,14,8,3"
14263,commdev-image-keyboard-response,277,1008258,learnblock1,256.80000001192093,img/planet2_right.png,2,Community 1,NA,FALSE,f,j,NA,NA,NA,3,7,"11,15,13,10,2,12,1,6,4,7,5,9,14,8,3"
14263,commdev-image-keyboard-response,278,1009509,learnblock1,85.59999999403954,img/planet13_left.png,13,Community 1,NA,TRUE,f,f,NA,NA,NA,3,7,"11,15,13,10,2,12,1,6,4,7,5,9,14,8,3"
14263,commdev-image-keyboard-response,279,1010762,learnblock1,null,img/planet10_left.png,10,Community 1,NA,FALSE,null,f,NA,NA,NA,3,7,"11,15,13,10,2,12,1,6,4,7,5,9,14,8,3"
14263,commdev-image-keyboard-response,280,1012015,learnblock1,69.2000000178814,img/planet15_right.png,15,Community 1,NA,TRUE,j,j,NA,NA,NA,3,7,"11,15,13,10,2,12,1,6,4,7,5,9,14,8,3"
14263,commdev-image-keyboard-response,281,1013269,learnblock1,263.5,img/planet2_right.png,2,Community 1,NA,TRUE,j,j,NA,NA,NA,3,7,"11,15,13,10,2,12,1,6,4,7,5,9,14,8,3"
14263,commdev-image-keyboard-response,282,1014530,learnblock1,172.19999998807907,img/planet5_left.png,5,Community 3,NA,FALSE,j,f,NA,NA,NA,3,7,"11,15,13,10,2,12,1,6,4,7,5,9,14,8,3"
14263,commdev-image-keyboard-response,283,1015781,learnblock1,112.80000001192093,img/planet8_right.png,8,Community 3,NA,TRUE,j,j,NA,NA,NA,3,7,"11,15,13,10,2,12,1,6,4,7,5,9,14,8,3"
14263,commdev-image-keyboard-response,284,1017034,learnblock1,172.40000000596046,img/planet3_left.png,3,Community 3,NA,TRUE,f,f,NA,NA,NA,3,7,"11,15,13,10,2,12,1,6,4,7,5,9,14,8,3"
14263,commdev-image-keyboard-response,285,1018287,learnblock1,58.900000005960464,img/planet5_right.png,5,Community 3,NA,TRUE,j,j,NA,NA,NA,3,7,"11,15,13,10,2,12,1,6,4,7,5,9,14,8,3"
14263,commdev-image-keyboard-response,286,1019539,learnblock1,89.40000000596046,img/planet3_right.png,3,Community 3,NA,FALSE,f,j,NA,NA,NA,3,7,"11,15,13,10,2,12,1,6,4,7,5,9,14,8,3"
14263,commdev-image-keyboard-response,287,1020791,learnblock1,66.39999997615814,img/planet5_left.png,5,Community 3,NA,TRUE,f,f,NA,NA,NA,3,7,"11,15,13,10,2,12,1,6,4,7,5,9,14,8,3"
14263,commdev-image-keyboard-response,288,1022043,learnblock1,54.599999994039536,img/planet8_left.png,8,Community 3,NA,FALSE,j,f,NA,NA,NA,3,7,"11,15,13,10,2,12,1,6,4,7,5,9,14,8,3"
14263,commdev-image-keyboard-response,289,1023302,learnblock1,146.69999998807907,img/planet9_right.png,9,Community 3,NA,FALSE,f,j,NA,NA,NA,3,7,"11,15,13,10,2,12,1,6,4,7,5,9,14,8,3"
14263,commdev-image-keyboard-response,290,1024555,learnblock1,110.19999998807907,img/planet3_left.png,3,Community 3,NA,FALSE,j,f,NA,NA,NA,3,7,"11,15,13,10,2,12,1,6,4,7,5,9,14,8,3"
14263,commdev-image-keyboard-response,291,1025808,learnblock1,25.30000001192093,img/planet5_right.png,5,Community 3,NA,TRUE,j,j,NA,NA,NA,3,7,"11,15,13,10,2,12,1,6,4,7,5,9,14,8,3"
14263,commdev-image-keyboard-response,292,1027060,learnblock1,77,img/planet8_right.png,8,Community 3,NA,TRUE,j,j,NA,NA,NA,3,7,"11,15,13,10,2,12,1,6,4,7,5,9,14,8,3"
14263,commdev-image-keyboard-response,293,1028313,learnblock1,9.200000017881393,img/planet9_left.png,9,Community 3,NA,FALSE,j,f,NA,NA,NA,3,7,"11,15,13,10,2,12,1,6,4,7,5,9,14,8,3"
14263,commdev-image-keyboard-response,294,1029566,learnblock1,29.900000005960464,img/planet8_right.png,8,Community 3,NA,FALSE,f,j,NA,NA,NA,3,7,"11,15,13,10,2,12,1,6,4,7,5,9,14,8,3"
14263,commdev-image-keyboard-response,295,1030819,learnblock1,127.59999999403954,img/planet9_right.png,9,Community 3,NA,TRUE,j,j,NA,NA,NA,3,7,"11,15,13,10,2,12,1,6,4,7,5,9,14,8,3"
14263,commdev-image-keyboard-response,296,1032072,learnblock1,110.69999998807907,img/planet3_right.png,3,Community 3,NA,TRUE,j,j,NA,NA,NA,3,7,"11,15,13,10,2,12,1,6,4,7,5,9,14,8,3"
14263,commdev-image-keyboard-response,297,1033325,learnblock1,21,img/planet9_right.png,9,Community 3,NA,FALSE,f,j,NA,NA,NA,3,7,"11,15,13,10,2,12,1,6,4,7,5,9,14,8,3"
14263,commdev-image-keyboard-response,298,1034577,learnblock1,48.400000005960464,img/planet14_right.png,14,Community 3,NA,TRUE,j,j,NA,NA,NA,3,7,"11,15,13,10,2,12,1,6,4,7,5,9,14,8,3"
14263,commdev-image-keyboard-response,299,1035828,learnblock1,186.80000001192093,img/planet3_right.png,3,Community 3,NA,TRUE,j,j,NA,NA,NA,3,7,"11,15,13,10,2,12,1,6,4,7,5,9,14,8,3"
14263,commdev-image-keyboard-response,300,1037082,learnblock1,144.80000001192093,img/planet14_right.png,14,Community 3,NA,TRUE,j,j,NA,NA,NA,3,7,"11,15,13,10,2,12,1,6,4,7,5,9,14,8,3"
14263,commdev-image-keyboard-response,301,1038336,learnblock1,48.70000001788139,img/planet9_left.png,9,Community 3,NA,FALSE,j,f,NA,NA,NA,3,7,"11,15,13,10,2,12,1,6,4,7,5,9,14,8,3"
14263,commdev-image-keyboard-response,302,1039588,learnblock1,9.199999988079071,img/planet6_left.png,6,Community 2,NA,FALSE,j,f,NA,NA,NA,3,7,"11,15,13,10,2,12,1,6,4,7,5,9,14,8,3"
14263,commdev-image-keyboard-response,303,1040840,learnblock1,208.90000000596046,img/planet1_left.png,1,Community 2,NA,FALSE,j,f,NA,NA,NA,3,7,"11,15,13,10,2,12,1,6,4,7,5,9,14,8,3"
14263,commdev-image-keyboard-response,304,1042092,learnblock1,114.30000001192093,img/planet6_left.png,6,Community 2,NA,FALSE,j,f,NA,NA,NA,3,7,"11,15,13,10,2,12,1,6,4,7,5,9,14,8,3"
14263,commdev-image-keyboard-response,305,1043345,learnblock1,17.900000005960464,img/planet1_right.png,1,Community 2,NA,TRUE,j,j,NA,NA,NA,3,7,"11,15,13,10,2,12,1,6,4,7,5,9,14,8,3"
14263,commdev-image-keyboard-response,306,1044598,learnblock1,25.19999998807907,img/planet4_right.png,4,Community 2,NA,TRUE,j,j,NA,NA,NA,3,7,"11,15,13,10,2,12,1,6,4,7,5,9,14,8,3"
14263,commdev-image-keyboard-response,307,1045851,learnblock1,25.19999998807907,img/planet1_left.png,1,Community 2,NA,FALSE,j,f,NA,NA,NA,3,7,"11,15,13,10,2,12,1,6,4,7,5,9,14,8,3"
14263,commdev-image-keyboard-response,308,1047103,learnblock1,141.59999999403954,img/planet12_left.png,12,Community 2,NA,TRUE,f,f,NA,NA,NA,3,7,"11,15,13,10,2,12,1,6,4,7,5,9,14,8,3"
14263,commdev-image-keyboard-response,309,1048356,learnblock1,172.5,img/planet10_right.png,10,Community 1,NA,FALSE,f,j,NA,NA,NA,3,7,"11,15,13,10,2,12,1,6,4,7,5,9,14,8,3"
14263,commdev-image-keyboard-response,310,1049609,learnblock1,88.80000001192093,img/planet11_right.png,11,Community 1,NA,FALSE,f,j,NA,NA,NA,3,7,"11,15,13,10,2,12,1,6,4,7,5,9,14,8,3"
14263,commdev-image-keyboard-response,311,1050860,learnblock1,84.5,img/planet2_left.png,2,Community 1,NA,FALSE,j,f,NA,NA,NA,3,7,"11,15,13,10,2,12,1,6,4,7,5,9,14,8,3"
14263,commdev-image-keyboard-response,312,1052112,learnblock1,232.40000000596046,img/planet13_left.png,13,Community 1,NA,FALSE,j,f,NA,NA,NA,3,7,"11,15,13,10,2,12,1,6,4,7,5,9,14,8,3"
14263,commdev-image-keyboard-response,313,1053365,learnblock1,113,img/planet2_right.png,2,Community 1,NA,TRUE,j,j,NA,NA,NA,3,7,"11,15,13,10,2,12,1,6,4,7,5,9,14,8,3"
14263,commdev-image-keyboard-response,314,1054617,learnblock1,854.9000000059605,img/planet13_right.png,13,Community 1,NA,TRUE,j,j,NA,NA,NA,3,7,"11,15,13,10,2,12,1,6,4,7,5,9,14,8,3"
14263,commdev-image-keyboard-response,315,1055869,learnblock1,47.69999998807907,img/planet10_right.png,10,Community 1,NA,FALSE,f,j,NA,NA,NA,3,7,"11,15,13,10,2,12,1,6,4,7,5,9,14,8,3"
14263,commdev-image-keyboard-response,316,1057122,learnblock1,144.19999998807907,img/planet12_left.png,12,Community 2,NA,FALSE,j,f,NA,NA,NA,3,7,"11,15,13,10,2,12,1,6,4,7,5,9,14,8,3"
14263,commdev-image-keyboard-response,317,1058376,learnblock1,175.80000001192093,img/planet1_left.png,1,Community 2,NA,TRUE,f,f,NA,NA,NA,3,7,"11,15,13,10,2,12,1,6,4,7,5,9,14,8,3"
14263,commdev-image-keyboard-response,318,1059628,learnblock1,951.1999999880791,img/planet7_left.png,7,Community 2,NA,FALSE,j,f,NA,NA,NA,3,7,"11,15,13,10,2,12,1,6,4,7,5,9,14,8,3"
14263,commdev-image-keyboard-response,319,1060881,learnblock1,804.7999999821186,img/planet4_left.png,4,Community 2,NA,FALSE,j,f,NA,NA,NA,3,7,"11,15,13,10,2,12,1,6,4,7,5,9,14,8,3"
14263,commdev-image-keyboard-response,320,1062134,learnblock1,299.90000000596046,img/planet12_left.png,12,Community 2,NA,TRUE,f,f,NA,NA,NA,3,7,"11,15,13,10,2,12,1,6,4,7,5,9,14,8,3"
14263,commdev-image-keyboard-response,321,1063387,learnblock1,311.19999998807907,img/planet4_right.png,4,Community 2,NA,FALSE,f,j,NA,NA,NA,3,7,"11,15,13,10,2,12,1,6,4,7,5,9,14,8,3"
14263,commdev-image-keyboard-response,322,1064639,learnblock1,339.7000000178814,img/planet6_right.png,6,Community 2,NA,TRUE,j,j,NA,NA,NA,3,7,"11,15,13,10,2,12,1,6,4,7,5,9,14,8,3"
14263,commdev-image-keyboard-response,323,1065893,learnblock1,311,img/planet1_left.png,1,Community 2,NA,TRUE,f,f,NA,NA,NA,3,7,"11,15,13,10,2,12,1,6,4,7,5,9,14,8,3"
14263,commdev-image-keyboard-response,324,1067145,learnblock1,264.90000000596046,img/planet4_right.png,4,Community 2,NA,FALSE,f,j,NA,NA,NA,3,7,"11,15,13,10,2,12,1,6,4,7,5,9,14,8,3"
14263,commdev-image-keyboard-response,325,1068399,learnblock1,37.10000002384186,img/planet12_left.png,12,Community 2,NA,FALSE,j,f,NA,NA,NA,3,7,"11,15,13,10,2,12,1,6,4,7,5,9,14,8,3"
14263,commdev-image-keyboard-response,326,1069652,learnblock1,1106.800000011921,img/planet10_left.png,10,Community 1,NA,TRUE,f,f,NA,NA,NA,3,7,"11,15,13,10,2,12,1,6,4,7,5,9,14,8,3"
14263,commdev-image-keyboard-response,327,1070906,learnblock1,1160.9000000059605,img/planet11_right.png,11,Community 1,NA,FALSE,f,j,NA,NA,NA,3,7,"11,15,13,10,2,12,1,6,4,7,5,9,14,8,3"
14263,commdev-image-keyboard-response,328,1072159,learnblock1,1100.5,img/planet2_left.png,2,Community 1,NA,TRUE,f,f,NA,NA,NA,3,7,"11,15,13,10,2,12,1,6,4,7,5,9,14,8,3"
14263,commdev-image-keyboard-response,329,1073412,learnblock1,291.69999998807907,img/planet13_left.png,13,Community 1,NA,FALSE,j,f,NA,NA,NA,3,7,"11,15,13,10,2,12,1,6,4,7,5,9,14,8,3"
14263,commdev-image-keyboard-response,330,1074666,learnblock1,444.59999999403954,img/planet2_left.png,2,Community 1,NA,TRUE,f,f,NA,NA,NA,3,7,"11,15,13,10,2,12,1,6,4,7,5,9,14,8,3"
14263,commdev-image-keyboard-response,331,1075920,learnblock1,275.2999999821186,img/planet13_right.png,13,Community 1,NA,TRUE,j,j,NA,NA,NA,3,7,"11,15,13,10,2,12,1,6,4,7,5,9,14,8,3"
14263,commdev-image-keyboard-response,332,1077172,learnblock1,740.9000000059605,img/planet10_left.png,10,Community 1,NA,TRUE,f,f,NA,NA,NA,3,7,"11,15,13,10,2,12,1,6,4,7,5,9,14,8,3"
14263,commdev-image-keyboard-response,333,1078425,learnblock1,636.8000000119209,img/planet11_left.png,11,Community 1,NA,FALSE,j,f,NA,NA,NA,3,7,"11,15,13,10,2,12,1,6,4,7,5,9,14,8,3"
14263,commdev-image-keyboard-response,334,1079678,learnblock1,467.09999999403954,img/planet15_right.png,15,Community 1,NA,FALSE,f,j,NA,NA,NA,3,7,"11,15,13,10,2,12,1,6,4,7,5,9,14,8,3"
14263,commdev-image-keyboard-response,335,1080931,learnblock1,321.19999998807907,img/planet2_left.png,2,Community 1,NA,FALSE,j,f,NA,NA,NA,3,7,"11,15,13,10,2,12,1,6,4,7,5,9,14,8,3"
14263,commdev-image-keyboard-response,336,1082185,learnblock1,392.09999999403954,img/planet13_right.png,13,Community 1,NA,FALSE,f,j,NA,NA,NA,3,7,"11,15,13,10,2,12,1,6,4,7,5,9,14,8,3"
14263,commdev-image-keyboard-response,337,1083437,learnblock1,275,img/planet15_left.png,15,Community 1,NA,TRUE,f,f,NA,NA,NA,3,7,"11,15,13,10,2,12,1,6,4,7,5,9,14,8,3"
14263,commdev-image-keyboard-response,338,1084691,learnblock1,208.09999999403954,img/planet2_left.png,2,Community 1,NA,FALSE,j,f,NA,NA,NA,3,7,"11,15,13,10,2,12,1,6,4,7,5,9,14,8,3"
14263,commdev-image-keyboard-response,339,1085943,learnblock1,null,img/planet5_right.png,5,Community 3,NA,FALSE,null,j,NA,NA,NA,3,7,"11,15,13,10,2,12,1,6,4,7,5,9,14,8,3"
14263,commdev-image-keyboard-response,340,1087195,learnblock1,410.5,img/planet3_left.png,3,Community 3,NA,FALSE,j,f,NA,NA,NA,3,7,"11,15,13,10,2,12,1,6,4,7,5,9,14,8,3"
14263,commdev-image-keyboard-response,341,1088449,learnblock1,null,img/planet5_right.png,5,Community 3,NA,FALSE,null,j,NA,NA,NA,3,7,"11,15,13,10,2,12,1,6,4,7,5,9,14,8,3"
14263,commdev-image-keyboard-response,342,1089702,learnblock1,245,img/planet14_left.png,14,Community 3,NA,FALSE,j,f,NA,NA,NA,3,7,"11,15,13,10,2,12,1,6,4,7,5,9,14,8,3"
14263,commdev-image-keyboard-response,343,1090955,learnblock1,1135.699999988079,img/planet3_right.png,3,Community 3,NA,FALSE,f,j,NA,NA,NA,3,7,"11,15,13,10,2,12,1,6,4,7,5,9,14,8,3"
14263,commdev-image-keyboard-response,344,1092207,learnblock1,null,img/planet9_left.png,9,Community 3,NA,FALSE,null,f,NA,NA,NA,3,7,"11,15,13,10,2,12,1,6,4,7,5,9,14,8,3"
14263,commdev-image-keyboard-response,345,1093460,learnblock1,null,img/planet3_right.png,3,Community 3,NA,FALSE,null,j,NA,NA,NA,3,7,"11,15,13,10,2,12,1,6,4,7,5,9,14,8,3"
14263,commdev-image-keyboard-response,346,1094713,learnblock1,621,img/planet5_right.png,5,Community 3,NA,FALSE,f,j,NA,NA,NA,3,7,"11,15,13,10,2,12,1,6,4,7,5,9,14,8,3"
14263,commdev-image-keyboard-response,347,1095967,learnblock1,null,img/planet2_left.png,2,Community 1,NA,FALSE,null,f,NA,NA,NA,3,7,"11,15,13,10,2,12,1,6,4,7,5,9,14,8,3"
14263,commdev-image-keyboard-response,348,1097220,learnblock1,4.800000011920929,img/planet5_left.png,5,Community 3,NA,TRUE,f,f,NA,NA,NA,3,7,"11,15,13,10,2,12,1,6,4,7,5,9,14,8,3"
14263,commdev-image-keyboard-response,349,1098473,learnblock1,410.90000000596046,img/planet2_left.png,2,Community 1,NA,TRUE,f,f,NA,NA,NA,3,7,"11,15,13,10,2,12,1,6,4,7,5,9,14,8,3"
14263,commdev-image-keyboard-response,350,1099725,learnblock1,394.7000000178814,img/planet5_right.png,5,Community 3,NA,TRUE,j,j,NA,NA,NA,3,7,"11,15,13,10,2,12,1,6,4,7,5,9,14,8,3"
14263,commdev-image-keyboard-response,351,1100979,learnblock1,24.099999994039536,img/planet8_left.png,8,Community 3,NA,FALSE,j,f,NA,NA,NA,3,7,"11,15,13,10,2,12,1,6,4,7,5,9,14,8,3"
14263,commdev-image-keyboard-response,352,1102232,learnblock1,321.90000000596046,img/planet3_right.png,3,Community 3,NA,TRUE,j,j,NA,NA,NA,3,7,"11,15,13,10,2,12,1,6,4,7,5,9,14,8,3"
14263,commdev-image-keyboard-response,353,1103486,learnblock1,197.69999998807907,img/planet5_left.png,5,Community 3,NA,FALSE,j,f,NA,NA,NA,3,7,"11,15,13,10,2,12,1,6,4,7,5,9,14,8,3"
14263,commdev-image-keyboard-response,354,1104739,learnblock1,157.40000000596046,img/planet8_left.png,8,Community 3,NA,TRUE,f,f,NA,NA,NA,3,7,"11,15,13,10,2,12,1,6,4,7,5,9,14,8,3"
14263,commdev-image-keyboard-response,355,1105991,learnblock1,72.90000000596046,img/planet14_left.png,14,Community 3,NA,TRUE,f,f,NA,NA,NA,3,7,"11,15,13,10,2,12,1,6,4,7,5,9,14,8,3"
14263,commdev-image-keyboard-response,356,1107245,learnblock1,195.09999999403954,img/planet8_right.png,8,Community 3,NA,TRUE,j,j,NA,NA,NA,3,7,"11,15,13,10,2,12,1,6,4,7,5,9,14,8,3"
14263,commdev-image-keyboard-response,357,1108498,learnblock1,174.40000000596046,img/planet9_left.png,9,Community 3,NA,TRUE,f,f,NA,NA,NA,3,7,"11,15,13,10,2,12,1,6,4,7,5,9,14,8,3"
14263,commdev-image-keyboard-response,358,1109752,learnblock1,123.09999999403954,img/planet3_left.png,3,Community 3,NA,FALSE,j,f,NA,NA,NA,3,7,"11,15,13,10,2,12,1,6,4,7,5,9,14,8,3"
14263,commdev-image-keyboard-response,359,1111005,learnblock1,105.90000000596046,img/planet9_right.png,9,Community 3,NA,FALSE,f,j,NA,NA,NA,3,7,"11,15,13,10,2,12,1,6,4,7,5,9,14,8,3"
14263,commdev-image-keyboard-response,360,1112258,learnblock1,126,img/planet8_left.png,8,Community 3,NA,FALSE,j,f,NA,NA,NA,3,7,"11,15,13,10,2,12,1,6,4,7,5,9,14,8,3"
14263,commdev-image-keyboard-response,361,1113510,learnblock1,120.2000000178814,img/planet3_right.png,3,Community 3,NA,TRUE,j,j,NA,NA,NA,3,7,"11,15,13,10,2,12,1,6,4,7,5,9,14,8,3"
14263,commdev-image-keyboard-response,362,1114764,learnblock1,56.30000001192093,img/planet8_left.png,8,Community 3,NA,FALSE,j,f,NA,NA,NA,3,7,"11,15,13,10,2,12,1,6,4,7,5,9,14,8,3"
14263,commdev-image-keyboard-response,363,1116017,learnblock1,56.599999994039536,img/planet3_left.png,3,Community 3,NA,FALSE,j,f,NA,NA,NA,3,7,"11,15,13,10,2,12,1,6,4,7,5,9,14,8,3"
14263,commdev-image-keyboard-response,364,1117269,learnblock1,46.599999994039536,img/planet9_right.png,9,Community 3,NA,FALSE,f,j,NA,NA,NA,3,7,"11,15,13,10,2,12,1,6,4,7,5,9,14,8,3"
14263,commdev-image-keyboard-response,365,1118520,learnblock1,16.80000001192093,img/planet8_left.png,8,Community 3,NA,FALSE,j,f,NA,NA,NA,3,7,"11,15,13,10,2,12,1,6,4,7,5,9,14,8,3"
14263,commdev-image-keyboard-response,366,1119774,learnblock1,68.80000001192093,img/planet14_right.png,14,Community 3,NA,FALSE,f,j,NA,NA,NA,3,7,"11,15,13,10,2,12,1,6,4,7,5,9,14,8,3"
14263,commdev-image-keyboard-response,367,1121026,learnblock1,196.60000002384186,img/planet3_right.png,3,Community 3,NA,TRUE,j,j,NA,NA,NA,3,7,"11,15,13,10,2,12,1,6,4,7,5,9,14,8,3"
14263,commdev-image-keyboard-response,368,1122279,learnblock1,333.19999998807907,img/planet5_right.png,5,Community 3,NA,TRUE,j,j,NA,NA,NA,3,7,"11,15,13,10,2,12,1,6,4,7,5,9,14,8,3"
14263,commdev-image-keyboard-response,369,1123531,learnblock1,81.5,img/planet14_left.png,14,Community 3,NA,TRUE,f,f,NA,NA,NA,3,7,"11,15,13,10,2,12,1,6,4,7,5,9,14,8,3"
14263,commdev-image-keyboard-response,370,1124784,learnblock1,483,img/planet3_left.png,3,Community 3,NA,TRUE,f,f,NA,NA,NA,3,7,"11,15,13,10,2,12,1,6,4,7,5,9,14,8,3"
14263,commdev-image-keyboard-response,371,1126036,learnblock1,444.59999999403954,img/planet8_left.png,8,Community 3,NA,TRUE,f,f,NA,NA,NA,3,7,"11,15,13,10,2,12,1,6,4,7,5,9,14,8,3"
14263,commdev-image-keyboard-response,372,1127288,learnblock1,237,img/planet9_left.png,9,Community 3,NA,FALSE,j,f,NA,NA,NA,3,7,"11,15,13,10,2,12,1,6,4,7,5,9,14,8,3"
14263,commdev-image-keyboard-response,373,1128542,learnblock1,98.5,img/planet6_right.png,6,Community 2,NA,TRUE,j,j,NA,NA,NA,3,7,"11,15,13,10,2,12,1,6,4,7,5,9,14,8,3"
14263,commdev-image-keyboard-response,374,1129794,learnblock1,149.7999999821186,img/planet4_right.png,4,Community 2,NA,FALSE,f,j,NA,NA,NA,3,7,"11,15,13,10,2,12,1,6,4,7,5,9,14,8,3"
14263,commdev-image-keyboard-response,375,1131046,learnblock1,15.299999982118607,img/planet12_right.png,12,Community 2,NA,TRUE,j,j,NA,NA,NA,3,7,"11,15,13,10,2,12,1,6,4,7,5,9,14,8,3"
14263,commdev-image-keyboard-response,376,1132299,learnblock1,24.299999982118607,img/planet1_right.png,1,Community 2,NA,FALSE,f,j,NA,NA,NA,3,7,"11,15,13,10,2,12,1,6,4,7,5,9,14,8,3"
14263,commdev-image-keyboard-response,377,1133552,learnblock1,231.69999998807907,img/planet12_right.png,12,Community 2,NA,FALSE,f,j,NA,NA,NA,3,7,"11,15,13,10,2,12,1,6,4,7,5,9,14,8,3"
14263,commdev-image-keyboard-response,378,1134805,learnblock1,491.90000000596046,img/planet4_right.png,4,Community 2,NA,FALSE,f,j,NA,NA,NA,3,7,"11,15,13,10,2,12,1,6,4,7,5,9,14,8,3"
14263,commdev-image-keyboard-response,379,1136063,learnblock1,363.7000000178814,img/planet12_right.png,12,Community 2,NA,FALSE,f,j,NA,NA,NA,3,7,"11,15,13,10,2,12,1,6,4,7,5,9,14,8,3"
14263,commdev-image-keyboard-response,380,1137315,learnblock1,955.0999999940395,img/planet1_left.png,1,Community 2,NA,FALSE,j,f,NA,NA,NA,3,7,"11,15,13,10,2,12,1,6,4,7,5,9,14,8,3"
14263,commdev-image-keyboard-response,381,1138567,learnblock1,1060.2999999821186,img/planet12_right.png,12,Community 2,NA,FALSE,f,j,NA,NA,NA,3,7,"11,15,13,10,2,12,1,6,4,7,5,9,14,8,3"
14263,commdev-image-keyboard-response,382,1139821,learnblock1,1118.5999999940395,img/planet1_left.png,1,Community 2,NA,FALSE,j,f,NA,NA,NA,3,7,"11,15,13,10,2,12,1,6,4,7,5,9,14,8,3"
14263,commdev-image-keyboard-response,383,1141075,learnblock1,1071.199999988079,img/planet4_right.png,4,Community 2,NA,FALSE,f,j,NA,NA,NA,3,7,"11,15,13,10,2,12,1,6,4,7,5,9,14,8,3"
14263,commdev-image-keyboard-response,384,1142328,learnblock1,1209.699999988079,img/planet6_right.png,6,Community 2,NA,TRUE,j,j,NA,NA,NA,3,7,"11,15,13,10,2,12,1,6,4,7,5,9,14,8,3"
14263,commdev-image-keyboard-response,385,1143581,learnblock1,null,img/planet9_right.png,9,Community 3,NA,FALSE,null,j,NA,NA,NA,3,7,"11,15,13,10,2,12,1,6,4,7,5,9,14,8,3"
14263,commdev-image-keyboard-response,386,1144832,learnblock1,75.10000002384186,img/planet6_right.png,6,Community 2,NA,FALSE,f,j,NA,NA,NA,3,7,"11,15,13,10,2,12,1,6,4,7,5,9,14,8,3"
14263,commdev-image-keyboard-response,387,1146087,learnblock1,270.2999999821186,img/planet1_right.png,1,Community 2,NA,FALSE,f,j,NA,NA,NA,3,7,"11,15,13,10,2,12,1,6,4,7,5,9,14,8,3"
14263,commdev-image-keyboard-response,388,1147341,learnblock1,768,img/planet4_right.png,4,Community 2,NA,FALSE,f,j,NA,NA,NA,3,7,"11,15,13,10,2,12,1,6,4,7,5,9,14,8,3"
14263,commdev-image-keyboard-response,389,1148594,learnblock1,818.0999999940395,img/planet7_right.png,7,Community 2,NA,FALSE,f,j,NA,NA,NA,3,7,"11,15,13,10,2,12,1,6,4,7,5,9,14,8,3"
14263,commdev-image-keyboard-response,390,1149847,learnblock1,441.5,img/planet1_right.png,1,Community 2,NA,TRUE,j,j,NA,NA,NA,3,7,"11,15,13,10,2,12,1,6,4,7,5,9,14,8,3"
14263,commdev-image-keyboard-response,391,1151100,learnblock1,561.9000000059605,img/planet7_left.png,7,Community 2,NA,TRUE,f,f,NA,NA,NA,3,7,"11,15,13,10,2,12,1,6,4,7,5,9,14,8,3"
14263,commdev-image-keyboard-response,392,1152353,learnblock1,823.5,img/planet4_right.png,4,Community 2,NA,FALSE,f,j,NA,NA,NA,3,7,"11,15,13,10,2,12,1,6,4,7,5,9,14,8,3"
14263,commdev-image-keyboard-response,393,1153607,learnblock1,906.1999999880791,img/planet7_right.png,7,Community 2,NA,FALSE,f,j,NA,NA,NA,3,7,"11,15,13,10,2,12,1,6,4,7,5,9,14,8,3"
14263,commdev-image-keyboard-response,394,1154861,learnblock1,723.1999999880791,img/planet4_right.png,4,Community 2,NA,FALSE,f,j,NA,NA,NA,3,7,"11,15,13,10,2,12,1,6,4,7,5,9,14,8,3"
14263,commdev-image-keyboard-response,395,1156114,learnblock1,560.5,img/planet6_right.png,6,Community 2,NA,TRUE,j,j,NA,NA,NA,3,7,"11,15,13,10,2,12,1,6,4,7,5,9,14,8,3"
14263,commdev-image-keyboard-response,396,1157367,learnblock1,415.2000000178814,img/planet1_right.png,1,Community 2,NA,FALSE,f,j,NA,NA,NA,3,7,"11,15,13,10,2,12,1,6,4,7,5,9,14,8,3"
14263,commdev-image-keyboard-response,397,1158621,learnblock1,292.59999999403954,img/planet7_left.png,7,Community 2,NA,FALSE,j,f,NA,NA,NA,3,7,"11,15,13,10,2,12,1,6,4,7,5,9,14,8,3"
14263,commdev-image-keyboard-response,398,1159875,learnblock1,318.30000001192093,img/planet4_left.png,4,Community 2,NA,TRUE,f,f,NA,NA,NA,3,7,"11,15,13,10,2,12,1,6,4,7,5,9,14,8,3"
14263,commdev-image-keyboard-response,399,1161128,learnblock1,121.5,img/planet1_left.png,1,Community 2,NA,FALSE,j,f,NA,NA,NA,3,7,"11,15,13,10,2,12,1,6,4,7,5,9,14,8,3"
14263,commdev-image-keyboard-response,400,1162381,learnblock1,1049.7000000178814,img/planet4_right.png,4,Community 2,NA,TRUE,j,j,NA,NA,NA,3,7,"11,15,13,10,2,12,1,6,4,7,5,9,14,8,3"
14263,commdev-image-keyboard-response,401,1163633,learnblock1,141.7000000178814,img/planet12_left.png,12,Community 2,NA,FALSE,j,f,NA,NA,NA,3,7,"11,15,13,10,2,12,1,6,4,7,5,9,14,8,3"
14263,commdev-image-keyboard-response,402,1164887,learnblock1,1124.800000011921,img/planet4_right.png,4,Community 2,NA,TRUE,j,j,NA,NA,NA,3,7,"11,15,13,10,2,12,1,6,4,7,5,9,14,8,3"
14263,commdev-image-keyboard-response,403,1166139,learnblock1,16.400000005960464,img/planet7_right.png,7,Community 2,NA,FALSE,f,j,NA,NA,NA,3,7,"11,15,13,10,2,12,1,6,4,7,5,9,14,8,3"
14263,commdev-image-keyboard-response,404,1167394,learnblock1,1141.2000000178814,img/planet1_right.png,1,Community 2,NA,FALSE,f,j,NA,NA,NA,3,7,"11,15,13,10,2,12,1,6,4,7,5,9,14,8,3"
14263,commdev-image-keyboard-response,405,1168647,learnblock1,1213.800000011921,img/planet6_left.png,6,Community 2,NA,FALSE,j,f,NA,NA,NA,3,7,"11,15,13,10,2,12,1,6,4,7,5,9,14,8,3"
14263,commdev-image-keyboard-response,406,1169899,learnblock1,null,img/planet4_left.png,4,Community 2,NA,FALSE,null,f,NA,NA,NA,3,7,"11,15,13,10,2,12,1,6,4,7,5,9,14,8,3"
14263,commdev-image-keyboard-response,407,1171151,learnblock1,20.19999998807907,img/planet6_left.png,6,Community 2,NA,TRUE,f,f,NA,NA,NA,3,7,"11,15,13,10,2,12,1,6,4,7,5,9,14,8,3"
14263,commdev-image-keyboard-response,408,1172405,learnblock1,39,img/planet4_right.png,4,Community 2,NA,FALSE,f,j,NA,NA,NA,3,7,"11,15,13,10,2,12,1,6,4,7,5,9,14,8,3"
14263,commdev-image-keyboard-response,409,1173659,learnblock1,220.5,img/planet7_right.png,7,Community 2,NA,TRUE,j,j,NA,NA,NA,3,7,"11,15,13,10,2,12,1,6,4,7,5,9,14,8,3"
14263,commdev-image-keyboard-response,410,1174914,learnblock1,85.2000000178814,img/planet4_right.png,4,Community 2,NA,FALSE,f,j,NA,NA,NA,3,7,"11,15,13,10,2,12,1,6,4,7,5,9,14,8,3"
14263,commdev-image-keyboard-response,411,1176168,learnblock1,1024.2000000178814,img/planet7_left.png,7,Community 2,NA,FALSE,j,f,NA,NA,NA,3,7,"11,15,13,10,2,12,1,6,4,7,5,9,14,8,3"
14263,commdev-image-keyboard-response,412,1177420,learnblock1,1160.7000000178814,img/planet6_left.png,6,Community 2,NA,FALSE,j,f,NA,NA,NA,3,7,"11,15,13,10,2,12,1,6,4,7,5,9,14,8,3"
14263,commdev-image-keyboard-response,413,1178674,learnblock1,163.90000000596046,img/planet4_right.png,4,Community 2,NA,FALSE,f,j,NA,NA,NA,3,7,"11,15,13,10,2,12,1,6,4,7,5,9,14,8,3"
14263,commdev-image-keyboard-response,414,1179928,learnblock1,668.6999999880791,img/planet6_right.png,6,Community 2,NA,TRUE,j,j,NA,NA,NA,3,7,"11,15,13,10,2,12,1,6,4,7,5,9,14,8,3"
14263,commdev-image-keyboard-response,415,1181180,learnblock1,342.59999999403954,img/planet7_right.png,7,Community 2,NA,TRUE,j,j,NA,NA,NA,3,7,"11,15,13,10,2,12,1,6,4,7,5,9,14,8,3"
14263,commdev-image-keyboard-response,416,1182433,learnblock1,580.3000000119209,img/planet12_left.png,12,Community 2,NA,TRUE,f,f,NA,NA,NA,3,7,"11,15,13,10,2,12,1,6,4,7,5,9,14,8,3"
14263,commdev-image-keyboard-response,417,1183685,learnblock1,403.40000000596046,img/planet7_left.png,7,Community 2,NA,TRUE,f,f,NA,NA,NA,3,7,"11,15,13,10,2,12,1,6,4,7,5,9,14,8,3"
14263,commdev-image-keyboard-response,418,1184938,learnblock1,160.30000001192093,img/planet4_right.png,4,Community 2,NA,FALSE,f,j,NA,NA,NA,3,7,"11,15,13,10,2,12,1,6,4,7,5,9,14,8,3"
14263,commdev-image-keyboard-response,419,1186191,learnblock1,393.69999998807907,img/planet1_right.png,1,Community 2,NA,TRUE,j,j,NA,NA,NA,3,7,"11,15,13,10,2,12,1,6,4,7,5,9,14,8,3"
14263,commdev-image-keyboard-response,420,1187444,learnblock1,229.19999998807907,img/planet12_left.png,12,Community 2,NA,TRUE,f,f,NA,NA,NA,3,7,"11,15,13,10,2,12,1,6,4,7,5,9,14,8,3"
14263,commdev-image-keyboard-response,421,1188696,learnblock1,421.5,img/planet1_right.png,1,Community 2,NA,TRUE,j,j,NA,NA,NA,3,7,"11,15,13,10,2,12,1,6,4,7,5,9,14,8,3"
14263,commdev-image-keyboard-response,422,1189948,learnblock1,316.40000000596046,img/planet12_right.png,12,Community 2,NA,TRUE,j,j,NA,NA,NA,3,7,"11,15,13,10,2,12,1,6,4,7,5,9,14,8,3"
14263,commdev-image-keyboard-response,423,1191202,learnblock1,144.90000000596046,img/planet4_right.png,4,Community 2,NA,FALSE,f,j,NA,NA,NA,3,7,"11,15,13,10,2,12,1,6,4,7,5,9,14,8,3"
14263,commdev-image-keyboard-response,424,1192455,learnblock1,1148.7000000178814,img/planet12_left.png,12,Community 2,NA,TRUE,f,f,NA,NA,NA,3,7,"11,15,13,10,2,12,1,6,4,7,5,9,14,8,3"
14263,commdev-image-keyboard-response,425,1193709,learnblock1,1047.5999999940395,img/planet1_left.png,1,Community 2,NA,FALSE,j,f,NA,NA,NA,3,7,"11,15,13,10,2,12,1,6,4,7,5,9,14,8,3"
14263,commdev-image-keyboard-response,426,1194963,learnblock1,97.5,img/planet7_right.png,7,Community 2,NA,TRUE,j,j,NA,NA,NA,3,7,"11,15,13,10,2,12,1,6,4,7,5,9,14,8,3"
14263,commdev-image-keyboard-response,427,1196215,learnblock1,225.90000000596046,img/planet1_right.png,1,Community 2,NA,TRUE,j,j,NA,NA,NA,3,7,"11,15,13,10,2,12,1,6,4,7,5,9,14,8,3"
14263,commdev-image-keyboard-response,428,1197469,learnblock1,71.09999999403954,img/planet7_left.png,7,Community 2,NA,FALSE,j,f,NA,NA,NA,3,7,"11,15,13,10,2,12,1,6,4,7,5,9,14,8,3"
14263,commdev-image-keyboard-response,429,1198723,learnblock1,115.89999997615814,img/planet6_left.png,6,Community 2,NA,FALSE,j,f,NA,NA,NA,3,7,"11,15,13,10,2,12,1,6,4,7,5,9,14,8,3"
14263,commdev-image-keyboard-response,430,1199976,learnblock1,16.099999994039536,img/planet4_right.png,4,Community 2,NA,FALSE,f,j,NA,NA,NA,3,7,"11,15,13,10,2,12,1,6,4,7,5,9,14,8,3"
14263,commdev-image-keyboard-response,431,1201229,learnblock1,219.59999999403954,img/planet1_left.png,1,Community 2,NA,FALSE,j,f,NA,NA,NA,3,7,"11,15,13,10,2,12,1,6,4,7,5,9,14,8,3"
14263,commdev-image-keyboard-response,432,1202481,learnblock1,32.900000005960464,img/planet4_left.png,4,Community 2,NA,FALSE,j,f,NA,NA,NA,3,7,"11,15,13,10,2,12,1,6,4,7,5,9,14,8,3"
14263,commdev-image-keyboard-response,433,1203735,learnblock1,40.599999994039536,img/planet1_left.png,1,Community 2,NA,FALSE,j,f,NA,NA,NA,3,7,"11,15,13,10,2,12,1,6,4,7,5,9,14,8,3"
14263,commdev-image-keyboard-response,434,1204988,learnblock1,114.19999998807907,img/planet7_right.png,7,Community 2,NA,TRUE,j,j,NA,NA,NA,3,7,"11,15,13,10,2,12,1,6,4,7,5,9,14,8,3"
14263,commdev-image-keyboard-response,435,1206241,learnblock1,191.60000002384186,img/planet1_right.png,1,Community 2,NA,TRUE,j,j,NA,NA,NA,3,7,"11,15,13,10,2,12,1,6,4,7,5,9,14,8,3"
14263,commdev-image-keyboard-response,436,1207494,learnblock1,102.19999998807907,img/planet6_left.png,6,Community 2,NA,FALSE,j,f,NA,NA,NA,3,7,"11,15,13,10,2,12,1,6,4,7,5,9,14,8,3"
14263,commdev-image-keyboard-response,437,1208747,learnblock1,128.2999999821186,img/planet1_right.png,1,Community 2,NA,TRUE,j,j,NA,NA,NA,3,7,"11,15,13,10,2,12,1,6,4,7,5,9,14,8,3"
14263,commdev-image-keyboard-response,438,1210000,learnblock1,171.59999999403954,img/planet4_left.png,4,Community 2,NA,TRUE,f,f,NA,NA,NA,3,7,"11,15,13,10,2,12,1,6,4,7,5,9,14,8,3"
14263,commdev-image-keyboard-response,439,1211253,learnblock1,191.59999999403954,img/planet6_right.png,6,Community 2,NA,TRUE,j,j,NA,NA,NA,3,7,"11,15,13,10,2,12,1,6,4,7,5,9,14,8,3"
14263,commdev-image-keyboard-response,440,1212505,learnblock1,125.7000000178814,img/planet9_right.png,9,Community 3,NA,TRUE,j,j,NA,NA,NA,3,7,"11,15,13,10,2,12,1,6,4,7,5,9,14,8,3"
14263,commdev-image-keyboard-response,441,1213759,learnblock1,263.09999999403954,img/planet6_left.png,6,Community 2,NA,FALSE,j,f,NA,NA,NA,3,7,"11,15,13,10,2,12,1,6,4,7,5,9,14,8,3"
14263,commdev-image-keyboard-response,442,1215011,learnblock1,237,img/planet7_right.png,7,Community 2,NA,TRUE,j,j,NA,NA,NA,3,7,"11,15,13,10,2,12,1,6,4,7,5,9,14,8,3"
14263,commdev-image-keyboard-response,443,1216263,learnblock1,null,img/planet6_right.png,6,Community 2,NA,FALSE,null,j,NA,NA,NA,3,7,"11,15,13,10,2,12,1,6,4,7,5,9,14,8,3"
14263,commdev-image-keyboard-response,444,1217517,learnblock1,null,img/planet1_left.png,1,Community 2,NA,FALSE,null,f,NA,NA,NA,3,7,"11,15,13,10,2,12,1,6,4,7,5,9,14,8,3"
14263,commdev-image-keyboard-response,445,1218771,learnblock1,351,img/planet6_right.png,6,Community 2,NA,TRUE,j,j,NA,NA,NA,3,7,"11,15,13,10,2,12,1,6,4,7,5,9,14,8,3"
14263,commdev-image-keyboard-response,446,1220025,learnblock1,341.59999999403954,img/planet9_left.png,9,Community 3,NA,TRUE,f,f,NA,NA,NA,3,7,"11,15,13,10,2,12,1,6,4,7,5,9,14,8,3"
14263,commdev-image-keyboard-response,447,1221279,learnblock1,18.299999982118607,img/planet8_right.png,8,Community 3,NA,TRUE,j,j,NA,NA,NA,3,7,"11,15,13,10,2,12,1,6,4,7,5,9,14,8,3"
14263,commdev-image-keyboard-response,448,1222530,learnblock1,708.1999999880791,img/planet5_right.png,5,Community 3,NA,FALSE,f,j,NA,NA,NA,3,7,"11,15,13,10,2,12,1,6,4,7,5,9,14,8,3"
14263,commdev-image-keyboard-response,449,1223784,learnblock1,304.7999999821186,img/planet2_right.png,2,Community 1,NA,TRUE,j,j,NA,NA,NA,3,7,"11,15,13,10,2,12,1,6,4,7,5,9,14,8,3"
14263,commdev-image-keyboard-response,450,1225038,learnblock1,1123.300000011921,img/planet5_right.png,5,Community 3,NA,TRUE,j,j,NA,NA,NA,3,7,"11,15,13,10,2,12,1,6,4,7,5,9,14,8,3"
14263,commdev-image-keyboard-response,451,1226291,learnblock1,null,img/planet14_left.png,14,Community 3,NA,FALSE,null,f,NA,NA,NA,3,7,"11,15,13,10,2,12,1,6,4,7,5,9,14,8,3"
14263,commdev-image-keyboard-response,452,1227544,learnblock1,83.90000000596046,img/planet3_left.png,3,Community 3,NA,TRUE,f,f,NA,NA,NA,3,7,"11,15,13,10,2,12,1,6,4,7,5,9,14,8,3"
14263,commdev-image-keyboard-response,453,1228795,learnblock1,904.6999999880791,img/planet9_left.png,9,Community 3,NA,TRUE,f,f,NA,NA,NA,3,7,"11,15,13,10,2,12,1,6,4,7,5,9,14,8,3"
14263,commdev-image-keyboard-response,454,1230048,learnblock1,722,img/planet14_right.png,14,Community 3,NA,FALSE,f,j,NA,NA,NA,3,7,"11,15,13,10,2,12,1,6,4,7,5,9,14,8,3"
14263,commdev-image-keyboard-response,455,1231301,learnblock1,236.59999999403954,img/planet5_right.png,5,Community 3,NA,TRUE,j,j,NA,NA,NA,3,7,"11,15,13,10,2,12,1,6,4,7,5,9,14,8,3"
14263,commdev-image-keyboard-response,456,1232554,learnblock1,558.1000000238419,img/planet3_left.png,3,Community 3,NA,TRUE,f,f,NA,NA,NA,3,7,"11,15,13,10,2,12,1,6,4,7,5,9,14,8,3"
14263,commdev-image-keyboard-response,457,1233808,learnblock1,196.80000001192093,img/planet14_left.png,14,Community 3,NA,FALSE,j,f,NA,NA,NA,3,7,"11,15,13,10,2,12,1,6,4,7,5,9,14,8,3"
14263,commdev-image-keyboard-response,461,1250293,learnblock2,865.5,img/planet10_left.png,10,Community 1,NA,TRUE,f,f,NA,NA,NA,3,7,"11,15,13,10,2,12,1,6,4,7,5,9,14,8,3"
14263,commdev-image-keyboard-response,462,1251546,learnblock2,466.19999998807907,img/planet12_right.png,12,Community 2,NA,TRUE,j,j,NA,NA,NA,3,7,"11,15,13,10,2,12,1,6,4,7,5,9,14,8,3"
14263,commdev-image-keyboard-response,463,1252799,learnblock2,299.2999999821186,img/planet10_left.png,10,Community 1,NA,TRUE,f,f,NA,NA,NA,3,7,"11,15,13,10,2,12,1,6,4,7,5,9,14,8,3"
14263,commdev-image-keyboard-response,464,1254051,learnblock2,41.80000001192093,img/planet11_left.png,11,Community 1,NA,FALSE,j,f,NA,NA,NA,3,7,"11,15,13,10,2,12,1,6,4,7,5,9,14,8,3"
14263,commdev-image-keyboard-response,465,1255303,learnblock2,61.69999998807907,img/planet15_right.png,15,Community 1,NA,FALSE,f,j,NA,NA,NA,3,7,"11,15,13,10,2,12,1,6,4,7,5,9,14,8,3"
14263,commdev-image-keyboard-response,466,1256554,learnblock2,141.59999999403954,img/planet13_right.png,13,Community 1,NA,TRUE,j,j,NA,NA,NA,3,7,"11,15,13,10,2,12,1,6,4,7,5,9,14,8,3"
14263,commdev-image-keyboard-response,467,1257808,learnblock2,53.19999998807907,img/planet11_right.png,11,Community 1,NA,FALSE,f,j,NA,NA,NA,3,7,"11,15,13,10,2,12,1,6,4,7,5,9,14,8,3"
14263,commdev-image-keyboard-response,468,1259061,learnblock2,182.59999999403954,img/planet13_left.png,13,Community 1,NA,FALSE,j,f,NA,NA,NA,3,7,"11,15,13,10,2,12,1,6,4,7,5,9,14,8,3"
14263,commdev-image-keyboard-response,469,1260314,learnblock2,150.19999998807907,img/planet2_right.png,2,Community 1,NA,TRUE,j,j,NA,NA,NA,3,7,"11,15,13,10,2,12,1,6,4,7,5,9,14,8,3"
14263,commdev-image-keyboard-response,470,1261568,learnblock2,132.40000000596046,img/planet13_right.png,13,Community 1,NA,TRUE,j,j,NA,NA,NA,3,7,"11,15,13,10,2,12,1,6,4,7,5,9,14,8,3"
14263,commdev-image-keyboard-response,471,1262821,learnblock2,128.09999999403954,img/planet15_right.png,15,Community 1,NA,TRUE,j,j,NA,NA,NA,3,7,"11,15,13,10,2,12,1,6,4,7,5,9,14,8,3"
14263,commdev-image-keyboard-response,472,1264075,learnblock2,118.2000000178814,img/planet10_left.png,10,Community 1,NA,TRUE,f,f,NA,NA,NA,3,7,"11,15,13,10,2,12,1,6,4,7,5,9,14,8,3"
14263,commdev-image-keyboard-response,473,1265328,learnblock2,144.2999999821186,img/planet11_left.png,11,Community 1,NA,FALSE,j,f,NA,NA,NA,3,7,"11,15,13,10,2,12,1,6,4,7,5,9,14,8,3"
14263,commdev-image-keyboard-response,474,1266581,learnblock2,172.40000000596046,img/planet13_right.png,13,Community 1,NA,FALSE,f,j,NA,NA,NA,3,7,"11,15,13,10,2,12,1,6,4,7,5,9,14,8,3"
14263,commdev-image-keyboard-response,475,1267835,learnblock2,210.89999997615814,img/planet11_left.png,11,Community 1,NA,FALSE,j,f,NA,NA,NA,3,7,"11,15,13,10,2,12,1,6,4,7,5,9,14,8,3"
14263,commdev-image-keyboard-response,476,1269088,learnblock2,16.899999976158142,img/planet10_right.png,10,Community 1,NA,TRUE,j,j,NA,NA,NA,3,7,"11,15,13,10,2,12,1,6,4,7,5,9,14,8,3"
14263,commdev-image-keyboard-response,477,1270340,learnblock2,71.2999999821186,img/planet15_left.png,15,Community 1,NA,FALSE,j,f,NA,NA,NA,3,7,"11,15,13,10,2,12,1,6,4,7,5,9,14,8,3"
14263,commdev-image-keyboard-response,478,1271593,learnblock2,11.199999988079071,img/planet10_left.png,10,Community 1,NA,FALSE,j,f,NA,NA,NA,3,7,"11,15,13,10,2,12,1,6,4,7,5,9,14,8,3"
14263,commdev-image-keyboard-response,479,1272845,learnblock2,102.60000002384186,img/planet13_right.png,13,Community 1,NA,TRUE,j,j,NA,NA,NA,3,7,"11,15,13,10,2,12,1,6,4,7,5,9,14,8,3"
14263,commdev-image-keyboard-response,480,1274098,learnblock2,191.10000002384186,img/planet2_left.png,2,Community 1,NA,FALSE,j,f,NA,NA,NA,3,7,"11,15,13,10,2,12,1,6,4,7,5,9,14,8,3"
14263,commdev-image-keyboard-response,481,1275350,learnblock2,125.09999999403954,img/planet11_left.png,11,Community 1,NA,FALSE,j,f,NA,NA,NA,3,7,"11,15,13,10,2,12,1,6,4,7,5,9,14,8,3"
14263,commdev-image-keyboard-response,482,1276603,learnblock2,406.80000001192093,img/planet13_left.png,13,Community 1,NA,FALSE,j,f,NA,NA,NA,3,7,"11,15,13,10,2,12,1,6,4,7,5,9,14,8,3"
14263,commdev-image-keyboard-response,483,1277857,learnblock2,224.5,img/planet15_right.png,15,Community 1,NA,FALSE,f,j,NA,NA,NA,3,7,"11,15,13,10,2,12,1,6,4,7,5,9,14,8,3"
14263,commdev-image-keyboard-response,484,1279110,learnblock2,63.099999994039536,img/planet10_left.png,10,Community 1,NA,FALSE,j,f,NA,NA,NA,3,7,"11,15,13,10,2,12,1,6,4,7,5,9,14,8,3"
14263,commdev-image-keyboard-response,485,1280362,learnblock2,292.40000000596046,img/planet11_left.png,11,Community 1,NA,FALSE,j,f,NA,NA,NA,3,7,"11,15,13,10,2,12,1,6,4,7,5,9,14,8,3"
14263,commdev-image-keyboard-response,486,1281615,learnblock2,54.5,img/planet10_left.png,10,Community 1,NA,TRUE,f,f,NA,NA,NA,3,7,"11,15,13,10,2,12,1,6,4,7,5,9,14,8,3"
14263,commdev-image-keyboard-response,487,1282867,learnblock2,475.39999997615814,img/planet12_right.png,12,Community 2,NA,FALSE,f,j,NA,NA,NA,3,7,"11,15,13,10,2,12,1,6,4,7,5,9,14,8,3"
14263,commdev-image-keyboard-response,488,1284121,learnblock2,15.199999988079071,img/planet7_right.png,7,Community 2,NA,TRUE,j,j,NA,NA,NA,3,7,"11,15,13,10,2,12,1,6,4,7,5,9,14,8,3"
14263,commdev-image-keyboard-response,489,1285374,learnblock2,290.89999997615814,img/planet12_left.png,12,Community 2,NA,FALSE,j,f,NA,NA,NA,3,7,"11,15,13,10,2,12,1,6,4,7,5,9,14,8,3"
14263,commdev-image-keyboard-response,490,1286625,learnblock2,245.80000001192093,img/planet10_right.png,10,Community 1,NA,FALSE,f,j,NA,NA,NA,3,7,"11,15,13,10,2,12,1,6,4,7,5,9,14,8,3"
14263,commdev-image-keyboard-response,491,1287879,learnblock2,382.09999999403954,img/planet13_left.png,13,Community 1,NA,FALSE,j,f,NA,NA,NA,3,7,"11,15,13,10,2,12,1,6,4,7,5,9,14,8,3"
14263,commdev-image-keyboard-response,492,1289132,learnblock2,563.4000000059605,img/planet15_right.png,15,Community 1,NA,FALSE,f,j,NA,NA,NA,3,7,"11,15,13,10,2,12,1,6,4,7,5,9,14,8,3"
14263,commdev-image-keyboard-response,493,1290385,learnblock2,450.60000002384186,img/planet11_right.png,11,Community 1,NA,TRUE,j,j,NA,NA,NA,3,7,"11,15,13,10,2,12,1,6,4,7,5,9,14,8,3"
14263,commdev-image-keyboard-response,494,1291638,learnblock2,318.2000000178814,img/planet2_left.png,2,Community 1,NA,TRUE,f,f,NA,NA,NA,3,7,"11,15,13,10,2,12,1,6,4,7,5,9,14,8,3"
14263,commdev-image-keyboard-response,495,1292891,learnblock2,172.5,img/planet15_right.png,15,Community 1,NA,TRUE,j,j,NA,NA,NA,3,7,"11,15,13,10,2,12,1,6,4,7,5,9,14,8,3"
14263,commdev-image-keyboard-response,496,1294144,learnblock2,108.69999998807907,img/planet2_right.png,2,Community 1,NA,TRUE,j,j,NA,NA,NA,3,7,"11,15,13,10,2,12,1,6,4,7,5,9,14,8,3"
14263,commdev-image-keyboard-response,497,1295396,learnblock2,1205.2000000178814,img/planet13_right.png,13,Community 1,NA,FALSE,f,j,NA,NA,NA,3,7,"11,15,13,10,2,12,1,6,4,7,5,9,14,8,3"
14263,commdev-image-keyboard-response,498,1296650,learnblock2,1193,img/planet10_left.png,10,Community 1,NA,FALSE,j,f,NA,NA,NA,3,7,"11,15,13,10,2,12,1,6,4,7,5,9,14,8,3"
14263,commdev-image-keyboard-response,499,1297903,learnblock2,1050.7000000178814,img/planet15_left.png,15,Community 1,NA,TRUE,f,f,NA,NA,NA,3,7,"11,15,13,10,2,12,1,6,4,7,5,9,14,8,3"
14263,commdev-image-keyboard-response,500,1299156,learnblock2,890,img/planet13_left.png,13,Community 1,NA,FALSE,j,f,NA,NA,NA,3,7,"11,15,13,10,2,12,1,6,4,7,5,9,14,8,3"
14263,commdev-image-keyboard-response,501,1300409,learnblock2,189.09999999403954,img/planet15_left.png,15,Community 1,NA,FALSE,j,f,NA,NA,NA,3,7,"11,15,13,10,2,12,1,6,4,7,5,9,14,8,3"
14263,commdev-image-keyboard-response,502,1301663,learnblock2,356.2000000178814,img/planet10_right.png,10,Community 1,NA,FALSE,f,j,NA,NA,NA,3,7,"11,15,13,10,2,12,1,6,4,7,5,9,14,8,3"
14263,commdev-image-keyboard-response,503,1302917,learnblock2,405.59999999403954,img/planet11_left.png,11,Community 1,NA,TRUE,f,f,NA,NA,NA,3,7,"11,15,13,10,2,12,1,6,4,7,5,9,14,8,3"
14263,commdev-image-keyboard-response,504,1304171,learnblock2,664.9000000059605,img/planet15_left.png,15,Community 1,NA,FALSE,j,f,NA,NA,NA,3,7,"11,15,13,10,2,12,1,6,4,7,5,9,14,8,3"
14263,commdev-image-keyboard-response,505,1305422,learnblock2,442.40000000596046,img/planet2_right.png,2,Community 1,NA,FALSE,f,j,NA,NA,NA,3,7,"11,15,13,10,2,12,1,6,4,7,5,9,14,8,3"
14263,commdev-image-keyboard-response,506,1306674,learnblock2,507.2000000178814,img/planet11_right.png,11,Community 1,NA,FALSE,f,j,NA,NA,NA,3,7,"11,15,13,10,2,12,1,6,4,7,5,9,14,8,3"
14263,commdev-image-keyboard-response,507,1307927,learnblock2,58.30000001192093,img/planet13_right.png,13,Community 1,NA,TRUE,j,j,NA,NA,NA,3,7,"11,15,13,10,2,12,1,6,4,7,5,9,14,8,3"
14263,commdev-image-keyboard-response,508,1309180,learnblock2,77.7999999821186,img/planet15_left.png,15,Community 1,NA,TRUE,f,f,NA,NA,NA,3,7,"11,15,13,10,2,12,1,6,4,7,5,9,14,8,3"
14263,commdev-image-keyboard-response,509,1310432,learnblock2,28.19999998807907,img/planet13_right.png,13,Community 1,NA,TRUE,j,j,NA,NA,NA,3,7,"11,15,13,10,2,12,1,6,4,7,5,9,14,8,3"
14263,commdev-image-keyboard-response,510,1311684,learnblock2,457.69999998807907,img/planet15_left.png,15,Community 1,NA,FALSE,j,f,NA,NA,NA,3,7,"11,15,13,10,2,12,1,6,4,7,5,9,14,8,3"
14263,commdev-image-keyboard-response,511,1312939,learnblock2,152,img/planet13_left.png,13,Community 1,NA,TRUE,f,f,NA,NA,NA,3,7,"11,15,13,10,2,12,1,6,4,7,5,9,14,8,3"
14263,commdev-image-keyboard-response,512,1314193,learnblock2,81.80000001192093,img/planet15_right.png,15,Community 1,NA,FALSE,f,j,NA,NA,NA,3,7,"11,15,13,10,2,12,1,6,4,7,5,9,14,8,3"
14263,commdev-image-keyboard-response,513,1315446,learnblock2,222.80000001192093,img/planet2_right.png,2,Community 1,NA,TRUE,j,j,NA,NA,NA,3,7,"11,15,13,10,2,12,1,6,4,7,5,9,14,8,3"
14263,commdev-image-keyboard-response,514,1316698,learnblock2,33.5,img/planet11_right.png,11,Community 1,NA,TRUE,j,j,NA,NA,NA,3,7,"11,15,13,10,2,12,1,6,4,7,5,9,14,8,3"
14263,commdev-image-keyboard-response,515,1317952,learnblock2,49.099999994039536,img/planet13_left.png,13,Community 1,NA,TRUE,f,f,NA,NA,NA,3,7,"11,15,13,10,2,12,1,6,4,7,5,9,14,8,3"
14263,commdev-image-keyboard-response,516,1319205,learnblock2,49.400000005960464,img/planet11_left.png,11,Community 1,NA,FALSE,j,f,NA,NA,NA,3,7,"11,15,13,10,2,12,1,6,4,7,5,9,14,8,3"
14263,commdev-image-keyboard-response,517,1320459,learnblock2,43.30000001192093,img/planet15_left.png,15,Community 1,NA,FALSE,j,f,NA,NA,NA,3,7,"11,15,13,10,2,12,1,6,4,7,5,9,14,8,3"
14263,commdev-image-keyboard-response,518,1321712,learnblock2,140.59999999403954,img/planet2_right.png,2,Community 1,NA,TRUE,j,j,NA,NA,NA,3,7,"11,15,13,10,2,12,1,6,4,7,5,9,14,8,3"
14263,commdev-image-keyboard-response,519,1322965,learnblock2,174,img/planet15_right.png,15,Community 1,NA,TRUE,j,j,NA,NA,NA,3,7,"11,15,13,10,2,12,1,6,4,7,5,9,14,8,3"
14263,commdev-image-keyboard-response,520,1324218,learnblock2,484.5,img/planet13_left.png,13,Community 1,NA,FALSE,j,f,NA,NA,NA,3,7,"11,15,13,10,2,12,1,6,4,7,5,9,14,8,3"
14263,commdev-image-keyboard-response,521,1325470,learnblock2,444.30000001192093,img/planet11_left.png,11,Community 1,NA,FALSE,j,f,NA,NA,NA,3,7,"11,15,13,10,2,12,1,6,4,7,5,9,14,8,3"
14263,commdev-image-keyboard-response,522,1326723,learnblock2,null,img/planet13_right.png,13,Community 1,NA,FALSE,null,j,NA,NA,NA,3,7,"11,15,13,10,2,12,1,6,4,7,5,9,14,8,3"
14263,commdev-image-keyboard-response,523,1327975,learnblock2,900,img/planet10_left.png,10,Community 1,NA,TRUE,f,f,NA,NA,NA,3,7,"11,15,13,10,2,12,1,6,4,7,5,9,14,8,3"
14263,commdev-image-keyboard-response,524,1329229,learnblock2,95.90000000596046,img/planet12_left.png,12,Community 2,NA,TRUE,f,f,NA,NA,NA,3,7,"11,15,13,10,2,12,1,6,4,7,5,9,14,8,3"
14263,commdev-image-keyboard-response,525,1330482,learnblock2,0.10000002384185791,img/planet7_right.png,7,Community 2,NA,FALSE,f,j,NA,NA,NA,3,7,"11,15,13,10,2,12,1,6,4,7,5,9,14,8,3"
14263,commdev-image-keyboard-response,526,1331733,learnblock2,409.2000000178814,img/planet1_right.png,1,Community 2,NA,FALSE,f,j,NA,NA,NA,3,7,"11,15,13,10,2,12,1,6,4,7,5,9,14,8,3"
14263,commdev-image-keyboard-response,527,1332988,learnblock2,276,img/planet7_right.png,7,Community 2,NA,TRUE,j,j,NA,NA,NA,3,7,"11,15,13,10,2,12,1,6,4,7,5,9,14,8,3"
14263,commdev-image-keyboard-response,528,1334240,learnblock2,34.599999994039536,img/planet6_left.png,6,Community 2,NA,TRUE,f,f,NA,NA,NA,3,7,"11,15,13,10,2,12,1,6,4,7,5,9,14,8,3"
14263,commdev-image-keyboard-response,529,1335493,learnblock2,377,img/planet9_left.png,9,Community 3,NA,FALSE,j,f,NA,NA,NA,3,7,"11,15,13,10,2,12,1,6,4,7,5,9,14,8,3"
14263,commdev-image-keyboard-response,530,1336745,learnblock2,256.59999999403954,img/planet8_right.png,8,Community 3,NA,TRUE,j,j,NA,NA,NA,3,7,"11,15,13,10,2,12,1,6,4,7,5,9,14,8,3"
14263,commdev-image-keyboard-response,531,1337998,learnblock2,165.5,img/planet3_right.png,3,Community 3,NA,FALSE,f,j,NA,NA,NA,3,7,"11,15,13,10,2,12,1,6,4,7,5,9,14,8,3"
14263,commdev-image-keyboard-response,532,1339252,learnblock2,2.699999988079071,img/planet8_right.png,8,Community 3,NA,TRUE,j,j,NA,NA,NA,3,7,"11,15,13,10,2,12,1,6,4,7,5,9,14,8,3"
14263,commdev-image-keyboard-response,533,1340505,learnblock2,262.40000000596046,img/planet5_right.png,5,Community 3,NA,TRUE,j,j,NA,NA,NA,3,7,"11,15,13,10,2,12,1,6,4,7,5,9,14,8,3"
14263,commdev-image-keyboard-response,534,1341758,learnblock2,15.299999982118607,img/planet14_right.png,14,Community 3,NA,TRUE,j,j,NA,NA,NA,3,7,"11,15,13,10,2,12,1,6,4,7,5,9,14,8,3"
14263,commdev-image-keyboard-response,535,1343011,learnblock2,189.89999997615814,img/planet5_left.png,5,Community 3,NA,TRUE,f,f,NA,NA,NA,3,7,"11,15,13,10,2,12,1,6,4,7,5,9,14,8,3"
14263,commdev-image-keyboard-response,536,1344264,learnblock2,955.1999999880791,img/planet14_left.png,14,Community 3,NA,FALSE,j,f,NA,NA,NA,3,7,"11,15,13,10,2,12,1,6,4,7,5,9,14,8,3"
14263,commdev-image-keyboard-response,537,1345518,learnblock2,null,img/planet3_left.png,3,Community 3,NA,FALSE,null,f,NA,NA,NA,3,7,"11,15,13,10,2,12,1,6,4,7,5,9,14,8,3"
14263,commdev-image-keyboard-response,538,1346771,learnblock2,67.2999999821186,img/planet14_left.png,14,Community 3,NA,TRUE,f,f,NA,NA,NA,3,7,"11,15,13,10,2,12,1,6,4,7,5,9,14,8,3"
14263,commdev-image-keyboard-response,539,1348024,learnblock2,665.5,img/planet3_left.png,3,Community 3,NA,FALSE,j,f,NA,NA,NA,3,7,"11,15,13,10,2,12,1,6,4,7,5,9,14,8,3"
14263,commdev-image-keyboard-response,540,1349277,learnblock2,325.69999998807907,img/planet9_right.png,9,Community 3,NA,FALSE,f,j,NA,NA,NA,3,7,"11,15,13,10,2,12,1,6,4,7,5,9,14,8,3"
14263,commdev-image-keyboard-response,541,1350530,learnblock2,390.7000000178814,img/planet3_left.png,3,Community 3,NA,FALSE,j,f,NA,NA,NA,3,7,"11,15,13,10,2,12,1,6,4,7,5,9,14,8,3"
14263,commdev-image-keyboard-response,542,1351784,learnblock2,646.1000000238419,img/planet9_left.png,9,Community 3,NA,TRUE,f,f,NA,NA,NA,3,7,"11,15,13,10,2,12,1,6,4,7,5,9,14,8,3"
14263,commdev-image-keyboard-response,543,1353038,learnblock2,751.0999999940395,img/planet14_left.png,14,Community 3,NA,TRUE,f,f,NA,NA,NA,3,7,"11,15,13,10,2,12,1,6,4,7,5,9,14,8,3"
14263,commdev-image-keyboard-response,544,1354291,learnblock2,858.8000000119209,img/planet5_left.png,5,Community 3,NA,FALSE,j,f,NA,NA,NA,3,7,"11,15,13,10,2,12,1,6,4,7,5,9,14,8,3"
14263,commdev-image-keyboard-response,545,1355544,learnblock2,866.9000000059605,img/planet8_right.png,8,Community 3,NA,TRUE,j,j,NA,NA,NA,3,7,"11,15,13,10,2,12,1,6,4,7,5,9,14,8,3"
14263,commdev-image-keyboard-response,546,1356797,learnblock2,739.0999999940395,img/planet14_left.png,14,Community 3,NA,TRUE,f,f,NA,NA,NA,3,7,"11,15,13,10,2,12,1,6,4,7,5,9,14,8,3"
14263,commdev-image-keyboard-response,547,1358050,learnblock2,692.3000000119209,img/planet3_right.png,3,Community 3,NA,FALSE,f,j,NA,NA,NA,3,7,"11,15,13,10,2,12,1,6,4,7,5,9,14,8,3"
14263,commdev-image-keyboard-response,548,1359303,learnblock2,1024.7000000178814,img/planet14_left.png,14,Community 3,NA,FALSE,j,f,NA,NA,NA,3,7,"11,15,13,10,2,12,1,6,4,7,5,9,14,8,3"
14263,commdev-image-keyboard-response,549,1360557,learnblock2,174.80000001192093,img/planet8_right.png,8,Community 3,NA,TRUE,j,j,NA,NA,NA,3,7,"11,15,13,10,2,12,1,6,4,7,5,9,14,8,3"
14263,commdev-image-keyboard-response,550,1361809,learnblock2,39.5,img/planet3_right.png,3,Community 3,NA,TRUE,j,j,NA,NA,NA,3,7,"11,15,13,10,2,12,1,6,4,7,5,9,14,8,3"
14263,commdev-image-keyboard-response,551,1363062,learnblock2,72.40000000596046,img/planet5_right.png,5,Community 3,NA,TRUE,j,j,NA,NA,NA,3,7,"11,15,13,10,2,12,1,6,4,7,5,9,14,8,3"
14263,commdev-image-keyboard-response,552,1364316,learnblock2,23.400000005960464,img/planet2_right.png,2,Community 1,NA,FALSE,f,j,NA,NA,NA,3,7,"11,15,13,10,2,12,1,6,4,7,5,9,14,8,3"
14263,commdev-image-keyboard-response,553,1365569,learnblock2,35.5,img/planet15_left.png,15,Community 1,NA,FALSE,j,f,NA,NA,NA,3,7,"11,15,13,10,2,12,1,6,4,7,5,9,14,8,3"
14263,commdev-image-keyboard-response,554,1366823,learnblock2,672.9000000059605,img/planet10_left.png,10,Community 1,NA,FALSE,j,f,NA,NA,NA,3,7,"11,15,13,10,2,12,1,6,4,7,5,9,14,8,3"
14263,commdev-image-keyboard-response,555,1368075,learnblock2,327.2000000178814,img/planet11_right.png,11,Community 1,NA,FALSE,f,j,NA,NA,NA,3,7,"11,15,13,10,2,12,1,6,4,7,5,9,14,8,3"
14263,commdev-image-keyboard-response,556,1369328,learnblock2,227.2999999821186,img/planet15_left.png,15,Community 1,NA,FALSE,j,f,NA,NA,NA,3,7,"11,15,13,10,2,12,1,6,4,7,5,9,14,8,3"
14263,commdev-image-keyboard-response,557,1370582,learnblock2,83.19999998807907,img/planet13_right.png,13,Community 1,NA,FALSE,f,j,NA,NA,NA,3,7,"11,15,13,10,2,12,1,6,4,7,5,9,14,8,3"
14263,commdev-image-keyboard-response,558,1371835,learnblock2,1133.300000011921,img/planet2_right.png,2,Community 1,NA,FALSE,f,j,NA,NA,NA,3,7,"11,15,13,10,2,12,1,6,4,7,5,9,14,8,3"
14263,commdev-image-keyboard-response,559,1373087,learnblock2,1026.300000011921,img/planet11_left.png,11,Community 1,NA,TRUE,f,f,NA,NA,NA,3,7,"11,15,13,10,2,12,1,6,4,7,5,9,14,8,3"
14263,commdev-image-keyboard-response,560,1374339,learnblock2,787.1999999880791,img/planet15_right.png,15,Community 1,NA,TRUE,j,j,NA,NA,NA,3,7,"11,15,13,10,2,12,1,6,4,7,5,9,14,8,3"
14263,commdev-image-keyboard-response,561,1375591,learnblock2,426.30000001192093,img/planet10_right.png,10,Community 1,NA,TRUE,j,j,NA,NA,NA,3,7,"11,15,13,10,2,12,1,6,4,7,5,9,14,8,3"
14263,commdev-image-keyboard-response,562,1376844,learnblock2,281.2000000178814,img/planet15_left.png,15,Community 1,NA,TRUE,f,f,NA,NA,NA,3,7,"11,15,13,10,2,12,1,6,4,7,5,9,14,8,3"
14263,commdev-image-keyboard-response,563,1378098,learnblock2,119.30000001192093,img/planet13_left.png,13,Community 1,NA,TRUE,f,f,NA,NA,NA,3,7,"11,15,13,10,2,12,1,6,4,7,5,9,14,8,3"
14263,commdev-image-keyboard-response,564,1379351,learnblock2,1079.9000000059605,img/planet15_left.png,15,Community 1,NA,FALSE,j,f,NA,NA,NA,3,7,"11,15,13,10,2,12,1,6,4,7,5,9,14,8,3"
14263,commdev-image-keyboard-response,565,1380605,learnblock2,1035.5,img/planet11_right.png,11,Community 1,NA,FALSE,f,j,NA,NA,NA,3,7,"11,15,13,10,2,12,1,6,4,7,5,9,14,8,3"
14263,commdev-image-keyboard-response,566,1381858,learnblock2,1074.0999999940395,img/planet10_right.png,10,Community 1,NA,FALSE,f,j,NA,NA,NA,3,7,"11,15,13,10,2,12,1,6,4,7,5,9,14,8,3"
14263,commdev-image-keyboard-response,567,1383110,learnblock2,972.1999999880791,img/planet11_right.png,11,Community 1,NA,TRUE,j,j,NA,NA,NA,3,7,"11,15,13,10,2,12,1,6,4,7,5,9,14,8,3"
14263,commdev-image-keyboard-response,568,1384364,learnblock2,910.5999999940395,img/planet10_left.png,10,Community 1,NA,FALSE,j,f,NA,NA,NA,3,7,"11,15,13,10,2,12,1,6,4,7,5,9,14,8,3"
14263,commdev-image-keyboard-response,569,1385617,learnblock2,893.2999999821186,img/planet12_left.png,12,Community 2,NA,TRUE,f,f,NA,NA,NA,3,7,"11,15,13,10,2,12,1,6,4,7,5,9,14,8,3"
14263,commdev-image-keyboard-response,570,1386870,learnblock2,973.5999999940395,img/planet4_right.png,4,Community 2,NA,FALSE,f,j,NA,NA,NA,3,7,"11,15,13,10,2,12,1,6,4,7,5,9,14,8,3"
14263,commdev-image-keyboard-response,571,1388123,learnblock2,915.7999999821186,img/planet7_right.png,7,Community 2,NA,FALSE,f,j,NA,NA,NA,3,7,"11,15,13,10,2,12,1,6,4,7,5,9,14,8,3"
14263,commdev-image-keyboard-response,572,1389376,learnblock2,880.5,img/planet12_right.png,12,Community 2,NA,FALSE,f,j,NA,NA,NA,3,7,"11,15,13,10,2,12,1,6,4,7,5,9,14,8,3"
14263,commdev-image-keyboard-response,573,1390629,learnblock2,13.299999982118607,img/planet10_left.png,10,Community 1,NA,FALSE,j,f,NA,NA,NA,3,7,"11,15,13,10,2,12,1,6,4,7,5,9,14,8,3"
14263,commdev-image-keyboard-response,574,1391882,learnblock2,156.80000001192093,img/planet13_left.png,13,Community 1,NA,FALSE,j,f,NA,NA,NA,3,7,"11,15,13,10,2,12,1,6,4,7,5,9,14,8,3"
14263,commdev-image-keyboard-response,575,1393135,learnblock2,165,img/planet10_left.png,10,Community 1,NA,FALSE,j,f,NA,NA,NA,3,7,"11,15,13,10,2,12,1,6,4,7,5,9,14,8,3"
14263,commdev-image-keyboard-response,576,1394389,learnblock2,496.40000000596046,img/planet11_left.png,11,Community 1,NA,TRUE,f,f,NA,NA,NA,3,7,"11,15,13,10,2,12,1,6,4,7,5,9,14,8,3"
14263,commdev-image-keyboard-response,577,1395642,learnblock2,493.19999998807907,img/planet13_left.png,13,Community 1,NA,TRUE,f,f,NA,NA,NA,3,7,"11,15,13,10,2,12,1,6,4,7,5,9,14,8,3"
14263,commdev-image-keyboard-response,578,1396896,learnblock2,66,img/planet2_right.png,2,Community 1,NA,TRUE,j,j,NA,NA,NA,3,7,"11,15,13,10,2,12,1,6,4,7,5,9,14,8,3"
14263,commdev-image-keyboard-response,579,1398149,learnblock2,1226.0999999940395,img/planet11_left.png,11,Community 1,NA,TRUE,f,f,NA,NA,NA,3,7,"11,15,13,10,2,12,1,6,4,7,5,9,14,8,3"
14263,commdev-image-keyboard-response,580,1399403,learnblock2,null,img/planet2_left.png,2,Community 1,NA,FALSE,null,f,NA,NA,NA,3,7,"11,15,13,10,2,12,1,6,4,7,5,9,14,8,3"
14263,commdev-image-keyboard-response,581,1400655,learnblock2,159.40000000596046,img/planet13_right.png,13,Community 1,NA,TRUE,j,j,NA,NA,NA,3,7,"11,15,13,10,2,12,1,6,4,7,5,9,14,8,3"
14263,commdev-image-keyboard-response,582,1401908,learnblock2,730.1000000238419,img/planet11_left.png,11,Community 1,NA,TRUE,f,f,NA,NA,NA,3,7,"11,15,13,10,2,12,1,6,4,7,5,9,14,8,3"
14263,commdev-image-keyboard-response,583,1403162,learnblock2,350.09999999403954,img/planet2_right.png,2,Community 1,NA,TRUE,j,j,NA,NA,NA,3,7,"11,15,13,10,2,12,1,6,4,7,5,9,14,8,3"
14263,commdev-image-keyboard-response,584,1404415,learnblock2,326.7000000178814,img/planet11_right.png,11,Community 1,NA,FALSE,f,j,NA,NA,NA,3,7,"11,15,13,10,2,12,1,6,4,7,5,9,14,8,3"
14263,commdev-image-keyboard-response,585,1405669,learnblock2,262.5,img/planet13_right.png,13,Community 1,NA,TRUE,j,j,NA,NA,NA,3,7,"11,15,13,10,2,12,1,6,4,7,5,9,14,8,3"
14263,commdev-image-keyboard-response,586,1406922,learnblock2,80,img/planet10_right.png,10,Community 1,NA,FALSE,f,j,NA,NA,NA,3,7,"11,15,13,10,2,12,1,6,4,7,5,9,14,8,3"
14263,commdev-image-keyboard-response,587,1408174,learnblock2,562.4000000059605,img/planet11_left.png,11,Community 1,NA,FALSE,j,f,NA,NA,NA,3,7,"11,15,13,10,2,12,1,6,4,7,5,9,14,8,3"
14263,commdev-image-keyboard-response,588,1409427,learnblock2,263.69999998807907,img/planet10_right.png,10,Community 1,NA,FALSE,f,j,NA,NA,NA,3,7,"11,15,13,10,2,12,1,6,4,7,5,9,14,8,3"
14263,commdev-image-keyboard-response,589,1410680,learnblock2,478.80000001192093,img/planet12_left.png,12,Community 2,NA,FALSE,j,f,NA,NA,NA,3,7,"11,15,13,10,2,12,1,6,4,7,5,9,14,8,3"
14263,commdev-image-keyboard-response,590,1411933,learnblock2,314.40000000596046,img/planet4_right.png,4,Community 2,NA,FALSE,f,j,NA,NA,NA,3,7,"11,15,13,10,2,12,1,6,4,7,5,9,14,8,3"
14263,commdev-image-keyboard-response,591,1413185,learnblock2,439.80000001192093,img/planet6_left.png,6,Community 2,NA,FALSE,j,f,NA,NA,NA,3,7,"11,15,13,10,2,12,1,6,4,7,5,9,14,8,3"
14263,commdev-image-keyboard-response,592,1414438,learnblock2,767.9000000059605,img/planet4_left.png,4,Community 2,NA,TRUE,f,f,NA,NA,NA,3,7,"11,15,13,10,2,12,1,6,4,7,5,9,14,8,3"
14263,commdev-image-keyboard-response,593,1415692,learnblock2,null,img/planet12_right.png,12,Community 2,NA,FALSE,null,j,NA,NA,NA,3,7,"11,15,13,10,2,12,1,6,4,7,5,9,14,8,3"
14263,commdev-image-keyboard-response,594,1416946,learnblock2,314,img/planet7_right.png,7,Community 2,NA,TRUE,j,j,NA,NA,NA,3,7,"11,15,13,10,2,12,1,6,4,7,5,9,14,8,3"
14263,commdev-image-keyboard-response,595,1418200,learnblock2,462.30000001192093,img/planet6_left.png,6,Community 2,NA,TRUE,f,f,NA,NA,NA,3,7,"11,15,13,10,2,12,1,6,4,7,5,9,14,8,3"
14263,commdev-image-keyboard-response,596,1419454,learnblock2,581.8000000119209,img/planet1_left.png,1,Community 2,NA,FALSE,j,f,NA,NA,NA,3,7,"11,15,13,10,2,12,1,6,4,7,5,9,14,8,3"
14263,commdev-image-keyboard-response,597,1420706,learnblock2,234.09999999403954,img/planet7_left.png,7,Community 2,NA,TRUE,f,f,NA,NA,NA,3,7,"11,15,13,10,2,12,1,6,4,7,5,9,14,8,3"
14263,commdev-image-keyboard-response,598,1421959,learnblock2,1044,img/planet1_left.png,1,Community 2,NA,TRUE,f,f,NA,NA,NA,3,7,"11,15,13,10,2,12,1,6,4,7,5,9,14,8,3"
14263,commdev-image-keyboard-response,599,1423212,learnblock2,1125.1000000238419,img/planet7_left.png,7,Community 2,NA,FALSE,j,f,NA,NA,NA,3,7,"11,15,13,10,2,12,1,6,4,7,5,9,14,8,3"
14263,commdev-image-keyboard-response,600,1424465,learnblock2,1040.8999999761581,img/planet1_right.png,1,Community 2,NA,FALSE,f,j,NA,NA,NA,3,7,"11,15,13,10,2,12,1,6,4,7,5,9,14,8,3"
14263,commdev-image-keyboard-response,601,1425718,learnblock2,1236.800000011921,img/planet12_left.png,12,Community 2,NA,FALSE,j,f,NA,NA,NA,3,7,"11,15,13,10,2,12,1,6,4,7,5,9,14,8,3"
14263,commdev-image-keyboard-response,602,1426972,learnblock2,null,img/planet4_left.png,4,Community 2,NA,FALSE,null,f,NA,NA,NA,3,7,"11,15,13,10,2,12,1,6,4,7,5,9,14,8,3"
14263,commdev-image-keyboard-response,603,1428225,learnblock2,112.80000001192093,img/planet1_left.png,1,Community 2,NA,TRUE,f,f,NA,NA,NA,3,7,"11,15,13,10,2,12,1,6,4,7,5,9,14,8,3"
14263,commdev-image-keyboard-response,604,1429478,learnblock2,1250.4000000059605,img/planet4_right.png,4,Community 2,NA,TRUE,j,j,NA,NA,NA,3,7,"11,15,13,10,2,12,1,6,4,7,5,9,14,8,3"
14263,commdev-image-keyboard-response,605,1430731,learnblock2,null,img/planet12_left.png,12,Community 2,NA,FALSE,null,f,NA,NA,NA,3,7,"11,15,13,10,2,12,1,6,4,7,5,9,14,8,3"
14263,commdev-image-keyboard-response,606,1431982,learnblock2,245.2000000178814,img/planet1_right.png,1,Community 2,NA,FALSE,f,j,NA,NA,NA,3,7,"11,15,13,10,2,12,1,6,4,7,5,9,14,8,3"
14263,commdev-image-keyboard-response,607,1433236,learnblock2,48.099999994039536,img/planet12_left.png,12,Community 2,NA,FALSE,j,f,NA,NA,NA,3,7,"11,15,13,10,2,12,1,6,4,7,5,9,14,8,3"
14263,commdev-image-keyboard-response,608,1434489,learnblock2,null,img/planet1_left.png,1,Community 2,NA,FALSE,null,f,NA,NA,NA,3,7,"11,15,13,10,2,12,1,6,4,7,5,9,14,8,3"
14263,commdev-image-keyboard-response,609,1435743,learnblock2,765.8000000119209,img/planet4_left.png,4,Community 2,NA,FALSE,j,f,NA,NA,NA,3,7,"11,15,13,10,2,12,1,6,4,7,5,9,14,8,3"
14263,commdev-image-keyboard-response,610,1436997,learnblock2,188.90000000596046,img/planet1_right.png,1,Community 2,NA,FALSE,f,j,NA,NA,NA,3,7,"11,15,13,10,2,12,1,6,4,7,5,9,14,8,3"
14263,commdev-image-keyboard-response,611,1438251,learnblock2,736.5999999940395,img/planet12_left.png,12,Community 2,NA,FALSE,j,f,NA,NA,NA,3,7,"11,15,13,10,2,12,1,6,4,7,5,9,14,8,3"
14263,commdev-image-keyboard-response,612,1439505,learnblock2,1150.7999999821186,img/planet1_right.png,1,Community 2,NA,TRUE,j,j,NA,NA,NA,3,7,"11,15,13,10,2,12,1,6,4,7,5,9,14,8,3"
14263,commdev-image-keyboard-response,613,1440758,learnblock2,1139.800000011921,img/planet6_left.png,6,Community 2,NA,TRUE,f,f,NA,NA,NA,3,7,"11,15,13,10,2,12,1,6,4,7,5,9,14,8,3"
14263,commdev-image-keyboard-response,614,1442011,learnblock2,917.7000000178814,img/planet4_right.png,4,Community 2,NA,FALSE,f,j,NA,NA,NA,3,7,"11,15,13,10,2,12,1,6,4,7,5,9,14,8,3"
14263,commdev-image-keyboard-response,615,1443264,learnblock2,978.2000000178814,img/planet7_right.png,7,Community 2,NA,TRUE,j,j,NA,NA,NA,3,7,"11,15,13,10,2,12,1,6,4,7,5,9,14,8,3"
14263,commdev-image-keyboard-response,616,1444519,learnblock2,null,img/planet12_right.png,12,Community 2,NA,FALSE,null,j,NA,NA,NA,3,7,"11,15,13,10,2,12,1,6,4,7,5,9,14,8,3"
14263,commdev-image-keyboard-response,617,1445772,learnblock2,102.60000002384186,img/planet7_left.png,7,Community 2,NA,FALSE,j,f,NA,NA,NA,3,7,"11,15,13,10,2,12,1,6,4,7,5,9,14,8,3"
14263,commdev-image-keyboard-response,618,1447025,learnblock2,328.5,img/planet4_right.png,4,Community 2,NA,FALSE,f,j,NA,NA,NA,3,7,"11,15,13,10,2,12,1,6,4,7,5,9,14,8,3"
14263,commdev-image-keyboard-response,619,1448279,learnblock2,null,img/planet7_right.png,7,Community 2,NA,FALSE,null,j,NA,NA,NA,3,7,"11,15,13,10,2,12,1,6,4,7,5,9,14,8,3"
14263,commdev-image-keyboard-response,620,1449533,learnblock2,32.39999997615814,img/planet4_right.png,4,Community 2,NA,TRUE,j,j,NA,NA,NA,3,7,"11,15,13,10,2,12,1,6,4,7,5,9,14,8,3"
14263,commdev-image-keyboard-response,621,1450786,learnblock2,1216.8999999761581,img/planet7_right.png,7,Community 2,NA,FALSE,f,j,NA,NA,NA,3,7,"11,15,13,10,2,12,1,6,4,7,5,9,14,8,3"
14263,commdev-image-keyboard-response,622,1452039,learnblock2,null,img/planet12_left.png,12,Community 2,NA,FALSE,null,f,NA,NA,NA,3,7,"11,15,13,10,2,12,1,6,4,7,5,9,14,8,3"
14263,commdev-image-keyboard-response,623,1453292,learnblock2,59.20000001788139,img/planet10_right.png,10,Community 1,NA,FALSE,f,j,NA,NA,NA,3,7,"11,15,13,10,2,12,1,6,4,7,5,9,14,8,3"
14263,commdev-image-keyboard-response,624,1454544,learnblock2,336.69999998807907,img/planet13_right.png,13,Community 1,NA,TRUE,j,j,NA,NA,NA,3,7,"11,15,13,10,2,12,1,6,4,7,5,9,14,8,3"
14263,commdev-image-keyboard-response,625,1455798,learnblock2,80.59999999403954,img/planet11_left.png,11,Community 1,NA,TRUE,f,f,NA,NA,NA,3,7,"11,15,13,10,2,12,1,6,4,7,5,9,14,8,3"
14263,commdev-image-keyboard-response,626,1457050,learnblock2,1235.7000000178814,img/planet15_left.png,15,Community 1,NA,TRUE,f,f,NA,NA,NA,3,7,"11,15,13,10,2,12,1,6,4,7,5,9,14,8,3"
14263,commdev-image-keyboard-response,627,1458304,learnblock2,992.5,img/planet13_left.png,13,Community 1,NA,TRUE,f,f,NA,NA,NA,3,7,"11,15,13,10,2,12,1,6,4,7,5,9,14,8,3"
14263,commdev-image-keyboard-response,628,1459557,learnblock2,910.8999999761581,img/planet10_right.png,10,Community 1,NA,TRUE,j,j,NA,NA,NA,3,7,"11,15,13,10,2,12,1,6,4,7,5,9,14,8,3"
14263,commdev-image-keyboard-response,629,1460811,learnblock2,null,img/planet13_right.png,13,Community 1,NA,FALSE,null,j,NA,NA,NA,3,7,"11,15,13,10,2,12,1,6,4,7,5,9,14,8,3"
14263,commdev-image-keyboard-response,630,1462064,learnblock2,521,img/planet15_right.png,15,Community 1,NA,FALSE,f,j,NA,NA,NA,3,7,"11,15,13,10,2,12,1,6,4,7,5,9,14,8,3"
14263,commdev-image-keyboard-response,631,1463317,learnblock2,110.69999998807907,img/planet13_right.png,13,Community 1,NA,TRUE,j,j,NA,NA,NA,3,7,"11,15,13,10,2,12,1,6,4,7,5,9,14,8,3"
14263,commdev-image-keyboard-response,632,1464570,learnblock2,26.69999998807907,img/planet15_left.png,15,Community 1,NA,TRUE,f,f,NA,NA,NA,3,7,"11,15,13,10,2,12,1,6,4,7,5,9,14,8,3"
14263,commdev-image-keyboard-response,633,1465822,learnblock2,865.5,img/planet13_left.png,13,Community 1,NA,FALSE,j,f,NA,NA,NA,3,7,"11,15,13,10,2,12,1,6,4,7,5,9,14,8,3"
14263,commdev-image-keyboard-response,634,1467075,learnblock2,363.2999999821186,img/planet2_left.png,2,Community 1,NA,TRUE,f,f,NA,NA,NA,3,7,"11,15,13,10,2,12,1,6,4,7,5,9,14,8,3"
14263,commdev-image-keyboard-response,635,1468327,learnblock2,292.2999999821186,img/planet11_left.png,11,Community 1,NA,FALSE,j,f,NA,NA,NA,3,7,"11,15,13,10,2,12,1,6,4,7,5,9,14,8,3"
14263,commdev-image-keyboard-response,636,1469581,learnblock2,190.89999997615814,img/planet2_left.png,2,Community 1,NA,TRUE,f,f,NA,NA,NA,3,7,"11,15,13,10,2,12,1,6,4,7,5,9,14,8,3"
14263,commdev-image-keyboard-response,637,1470834,learnblock2,59.19999998807907,img/planet11_right.png,11,Community 1,NA,TRUE,j,j,NA,NA,NA,3,7,"11,15,13,10,2,12,1,6,4,7,5,9,14,8,3"
14263,commdev-image-keyboard-response,638,1472086,learnblock2,1050.699999988079,img/planet13_right.png,13,Community 1,NA,TRUE,j,j,NA,NA,NA,3,7,"11,15,13,10,2,12,1,6,4,7,5,9,14,8,3"
14263,commdev-image-keyboard-response,639,1473339,learnblock2,924,img/planet2_right.png,2,Community 1,NA,FALSE,f,j,NA,NA,NA,3,7,"11,15,13,10,2,12,1,6,4,7,5,9,14,8,3"
14263,commdev-image-keyboard-response,640,1474593,learnblock2,705.5999999940395,img/planet5_right.png,5,Community 3,NA,TRUE,j,j,NA,NA,NA,3,7,"11,15,13,10,2,12,1,6,4,7,5,9,14,8,3"
14263,commdev-image-keyboard-response,641,1475846,learnblock2,554.5,img/planet8_right.png,8,Community 3,NA,FALSE,f,j,NA,NA,NA,3,7,"11,15,13,10,2,12,1,6,4,7,5,9,14,8,3"
14263,commdev-image-keyboard-response,642,1477098,learnblock2,null,img/planet9_right.png,9,Community 3,NA,FALSE,null,j,NA,NA,NA,3,7,"11,15,13,10,2,12,1,6,4,7,5,9,14,8,3"
14263,commdev-image-keyboard-response,643,1478352,learnblock2,321.5,img/planet3_left.png,3,Community 3,NA,TRUE,f,f,NA,NA,NA,3,7,"11,15,13,10,2,12,1,6,4,7,5,9,14,8,3"
14263,commdev-image-keyboard-response,644,1479604,learnblock2,316.2999999821186,img/planet14_right.png,14,Community 3,NA,TRUE,j,j,NA,NA,NA,3,7,"11,15,13,10,2,12,1,6,4,7,5,9,14,8,3"
14263,commdev-image-keyboard-response,645,1480858,learnblock2,332.7999999821186,img/planet3_left.png,3,Community 3,NA,TRUE,f,f,NA,NA,NA,3,7,"11,15,13,10,2,12,1,6,4,7,5,9,14,8,3"
14263,commdev-image-keyboard-response,646,1482114,learnblock2,292.2000000178814,img/planet5_right.png,5,Community 3,NA,TRUE,j,j,NA,NA,NA,3,7,"11,15,13,10,2,12,1,6,4,7,5,9,14,8,3"
14263,commdev-image-keyboard-response,647,1483368,learnblock2,232.30000001192093,img/planet14_left.png,14,Community 3,NA,FALSE,j,f,NA,NA,NA,3,7,"11,15,13,10,2,12,1,6,4,7,5,9,14,8,3"
14263,commdev-image-keyboard-response,648,1484621,learnblock2,315.2000000178814,img/planet8_left.png,8,Community 3,NA,TRUE,f,f,NA,NA,NA,3,7,"11,15,13,10,2,12,1,6,4,7,5,9,14,8,3"
14263,commdev-image-keyboard-response,649,1485874,learnblock2,302.5,img/planet5_right.png,5,Community 3,NA,TRUE,j,j,NA,NA,NA,3,7,"11,15,13,10,2,12,1,6,4,7,5,9,14,8,3"
14263,commdev-image-keyboard-response,650,1487127,learnblock2,188.90000000596046,img/planet8_right.png,8,Community 3,NA,FALSE,f,j,NA,NA,NA,3,7,"11,15,13,10,2,12,1,6,4,7,5,9,14,8,3"
14263,commdev-image-keyboard-response,651,1488380,learnblock2,45.69999998807907,img/planet14_right.png,14,Community 3,NA,TRUE,j,j,NA,NA,NA,3,7,"11,15,13,10,2,12,1,6,4,7,5,9,14,8,3"
14263,commdev-image-keyboard-response,652,1489634,learnblock2,354.2999999821186,img/planet9_right.png,9,Community 3,NA,TRUE,j,j,NA,NA,NA,3,7,"11,15,13,10,2,12,1,6,4,7,5,9,14,8,3"
14263,commdev-image-keyboard-response,653,1490887,learnblock2,430.30000001192093,img/planet14_left.png,14,Community 3,NA,TRUE,f,f,NA,NA,NA,3,7,"11,15,13,10,2,12,1,6,4,7,5,9,14,8,3"
14263,commdev-image-keyboard-response,654,1492140,learnblock2,54.79999998211861,img/planet5_left.png,5,Community 3,NA,FALSE,j,f,NA,NA,NA,3,7,"11,15,13,10,2,12,1,6,4,7,5,9,14,8,3"
14263,commdev-image-keyboard-response,655,1493391,learnblock2,42.19999998807907,img/planet2_right.png,2,Community 1,NA,TRUE,j,j,NA,NA,NA,3,7,"11,15,13,10,2,12,1,6,4,7,5,9,14,8,3"
14263,commdev-image-keyboard-response,656,1494644,learnblock2,781.5999999940395,img/planet5_left.png,5,Community 3,NA,TRUE,f,f,NA,NA,NA,3,7,"11,15,13,10,2,12,1,6,4,7,5,9,14,8,3"
14263,commdev-image-keyboard-response,657,1495898,learnblock2,778,img/planet3_left.png,3,Community 3,NA,FALSE,j,f,NA,NA,NA,3,7,"11,15,13,10,2,12,1,6,4,7,5,9,14,8,3"
14263,commdev-image-keyboard-response,658,1497151,learnblock2,822.3000000119209,img/planet14_left.png,14,Community 3,NA,TRUE,f,f,NA,NA,NA,3,7,"11,15,13,10,2,12,1,6,4,7,5,9,14,8,3"
14263,commdev-image-keyboard-response,659,1498403,learnblock2,829.0999999940395,img/planet3_right.png,3,Community 3,NA,TRUE,j,j,NA,NA,NA,3,7,"11,15,13,10,2,12,1,6,4,7,5,9,14,8,3"
14263,commdev-image-keyboard-response,660,1499658,learnblock2,665.0999999940395,img/planet8_left.png,8,Community 3,NA,FALSE,j,f,NA,NA,NA,3,7,"11,15,13,10,2,12,1,6,4,7,5,9,14,8,3"
14263,commdev-image-keyboard-response,661,1500912,learnblock2,546.4000000059605,img/planet3_left.png,3,Community 3,NA,FALSE,j,f,NA,NA,NA,3,7,"11,15,13,10,2,12,1,6,4,7,5,9,14,8,3"
14263,commdev-image-keyboard-response,662,1502166,learnblock2,439.80000001192093,img/planet5_left.png,5,Community 3,NA,FALSE,j,f,NA,NA,NA,3,7,"11,15,13,10,2,12,1,6,4,7,5,9,14,8,3"
14263,commdev-image-keyboard-response,663,1503419,learnblock2,326.2999999821186,img/planet2_left.png,2,Community 1,NA,FALSE,j,f,NA,NA,NA,3,7,"11,15,13,10,2,12,1,6,4,7,5,9,14,8,3"
14263,commdev-image-keyboard-response,664,1504671,learnblock2,82.59999999403954,img/planet5_left.png,5,Community 3,NA,FALSE,j,f,NA,NA,NA,3,7,"11,15,13,10,2,12,1,6,4,7,5,9,14,8,3"
14263,commdev-image-keyboard-response,665,1505925,learnblock2,1034.199999988079,img/planet3_right.png,3,Community 3,NA,FALSE,f,j,NA,NA,NA,3,7,"11,15,13,10,2,12,1,6,4,7,5,9,14,8,3"
14263,commdev-image-keyboard-response,666,1507179,learnblock2,144.7000000178814,img/planet5_right.png,5,Community 3,NA,FALSE,f,j,NA,NA,NA,3,7,"11,15,13,10,2,12,1,6,4,7,5,9,14,8,3"
14263,commdev-image-keyboard-response,667,1508437,learnblock2,57.099999994039536,img/planet3_right.png,3,Community 3,NA,FALSE,f,j,NA,NA,NA,3,7,"11,15,13,10,2,12,1,6,4,7,5,9,14,8,3"
14263,commdev-image-keyboard-response,668,1509690,learnblock2,588,img/planet5_left.png,5,Community 3,NA,FALSE,j,f,NA,NA,NA,3,7,"11,15,13,10,2,12,1,6,4,7,5,9,14,8,3"
14263,commdev-image-keyboard-response,669,1510942,learnblock2,332.90000000596046,img/planet8_right.png,8,Community 3,NA,TRUE,j,j,NA,NA,NA,3,7,"11,15,13,10,2,12,1,6,4,7,5,9,14,8,3"
14263,commdev-image-keyboard-response,670,1512195,learnblock2,243.60000002384186,img/planet9_right.png,9,Community 3,NA,TRUE,j,j,NA,NA,NA,3,7,"11,15,13,10,2,12,1,6,4,7,5,9,14,8,3"
14263,commdev-image-keyboard-response,671,1513449,learnblock2,357.40000000596046,img/planet14_left.png,14,Community 3,NA,FALSE,j,f,NA,NA,NA,3,7,"11,15,13,10,2,12,1,6,4,7,5,9,14,8,3"
14263,commdev-image-keyboard-response,672,1514703,learnblock2,304.69999998807907,img/planet8_left.png,8,Community 3,NA,FALSE,j,f,NA,NA,NA,3,7,"11,15,13,10,2,12,1,6,4,7,5,9,14,8,3"
14263,commdev-image-keyboard-response,673,1515957,learnblock2,178,img/planet14_left.png,14,Community 3,NA,TRUE,f,f,NA,NA,NA,3,7,"11,15,13,10,2,12,1,6,4,7,5,9,14,8,3"
14263,commdev-image-keyboard-response,674,1517208,learnblock2,75.7999999821186,img/planet9_left.png,9,Community 3,NA,FALSE,j,f,NA,NA,NA,3,7,"11,15,13,10,2,12,1,6,4,7,5,9,14,8,3"
14263,commdev-image-keyboard-response,675,1518459,learnblock2,2.300000011920929,img/planet14_left.png,14,Community 3,NA,FALSE,j,f,NA,NA,NA,3,7,"11,15,13,10,2,12,1,6,4,7,5,9,14,8,3"
14263,commdev-image-keyboard-response,676,1519712,learnblock2,330.59999999403954,img/planet3_left.png,3,Community 3,NA,FALSE,j,f,NA,NA,NA,3,7,"11,15,13,10,2,12,1,6,4,7,5,9,14,8,3"
14263,commdev-image-keyboard-response,677,1520964,learnblock2,332.5,img/planet5_right.png,5,Community 3,NA,TRUE,j,j,NA,NA,NA,3,7,"11,15,13,10,2,12,1,6,4,7,5,9,14,8,3"
14263,commdev-image-keyboard-response,678,1522217,learnblock2,150.90000000596046,img/planet2_left.png,2,Community 1,NA,FALSE,j,f,NA,NA,NA,3,7,"11,15,13,10,2,12,1,6,4,7,5,9,14,8,3"
14263,commdev-image-keyboard-response,679,1523469,learnblock2,816.6999999880791,img/planet15_left.png,15,Community 1,NA,FALSE,j,f,NA,NA,NA,3,7,"11,15,13,10,2,12,1,6,4,7,5,9,14,8,3"
14263,commdev-image-keyboard-response,680,1524722,learnblock2,617.0999999940395,img/planet10_left.png,10,Community 1,NA,FALSE,j,f,NA,NA,NA,3,7,"11,15,13,10,2,12,1,6,4,7,5,9,14,8,3"
14263,commdev-image-keyboard-response,681,1525975,learnblock2,741.2999999821186,img/planet12_left.png,12,Community 2,NA,TRUE,f,f,NA,NA,NA,3,7,"11,15,13,10,2,12,1,6,4,7,5,9,14,8,3"
14263,commdev-image-keyboard-response,682,1527228,learnblock2,581.3999999761581,img/planet10_right.png,10,Community 1,NA,FALSE,f,j,NA,NA,NA,3,7,"11,15,13,10,2,12,1,6,4,7,5,9,14,8,3"
14263,commdev-image-keyboard-response,683,1528482,learnblock2,188.2999999821186,img/planet11_right.png,11,Community 1,NA,FALSE,f,j,NA,NA,NA,3,7,"11,15,13,10,2,12,1,6,4,7,5,9,14,8,3"
