subject_id,trial_type,trial_index,time_elapsed,block,rt,stimulus,planet,community,response,correct,key_press,learning_correct_response,parse,init_locations,final_locations,browser_interactions,num_comp,planet_map
15360,commdev-instructions,7,26889,NA,1288,"<p>In this game, you are a scientist on board a space shuttle. </p><p> On each mission, you will visit planets all across the universe.</p><img src=""img/controlroom.jpg"" width=300vw>",NA,NA,NA,NA,NA,NA,NA,NA,NA,1,6,"1,8,10,5,3,11,9,13,14,15,7,4,12,6,2"
15360,commdev-instructions,8,30110,NA,1118,"<p>Here are a few planets you might see:</p><img src=""img/practice1.png"" width=200vw><img src=""img/practice2.png"" width=200vw><img src=""img/practice3.png"" width=200vw>",NA,NA,NA,NA,NA,NA,NA,NA,NA,1,6,"1,8,10,5,3,11,9,13,14,15,7,4,12,6,2"
15360,commdev-instructions,9,38478,NA,948,"<p>Your job as a scientist is to record which direction the winds are moving on each planet.</p><p>There are two types of wind directions:</p><img src=""img/practice1_left.png"" width=200vw><img src=""img/practice1_right.png"" width=200vw>",NA,NA,NA,NA,NA,NA,NA,NA,NA,1,6,"1,8,10,5,3,11,9,13,14,15,7,4,12,6,2"
15360,commdev-instructions,10,44914,NA,1532,"<p>If the winds are moving this way, press the letter <strong>F</strong> on the keyboard as fast as you can.</p><img src=""img/leftwind.png"" width=250vw>",NA,NA,NA,NA,NA,NA,NA,NA,NA,1,6,"1,8,10,5,3,11,9,13,14,15,7,4,12,6,2"
15360,commdev-instructions,11,51244,NA,1823,"<p>If the winds are moving this way, press the letter <strong>J</strong> on the keyboard as fast as you can.</p><img src=""img/rightwind.png"" width=350vw>",NA,NA,NA,NA,NA,NA,NA,NA,NA,1,6,"1,8,10,5,3,11,9,13,14,15,7,4,12,6,2"
15360,commdev-instructions,12,57078,NA,1396,<p>You will have 1 second to respond. Try to respond before the time runs out!,NA,NA,NA,NA,NA,NA,NA,NA,NA,1,6,"1,8,10,5,3,11,9,13,14,15,7,4,12,6,2"
15360,commdev-instructions,13,63578,NA,1056,<p>The planets you will visit will look different from each other.</p><p>You should respond <strong>only</strong> based on wind direction.,NA,NA,NA,NA,NA,NA,NA,NA,NA,1,6,"1,8,10,5,3,11,9,13,14,15,7,4,12,6,2"
15360,commdev-instructions,14,69725,NA,953,"<p> Ready to start the practice round? </p><p> Remember, press <strong>F</strong> or <strong>J</strong> depending on the wind direction.<br><img src=""img/categorize_planet_example.png""",NA,NA,NA,NA,NA,NA,NA,NA,NA,1,6,"1,8,10,5,3,11,9,13,14,15,7,4,12,6,2"
15360,commdev-instructions,26,119864,NA,1092,"<p>Great, now try a short practice mission. </p><p> This time, you will have 1 second to respond and you won't know whether you pressed the right or wrong key for each planet.</p>",NA,NA,NA,NA,NA,NA,NA,NA,NA,1,6,"1,8,10,5,3,11,9,13,14,15,7,4,12,6,2"
15360,commdev-image-keyboard-response,27,121231,practice,732,img/practice1_right.png,NA,Number not found in mappings,NA,TRUE,j,j,NA,NA,NA,1,6,"1,8,10,5,3,11,9,13,14,15,7,4,12,6,2"
15360,commdev-image-keyboard-response,28,122489,practice,622,img/practice3_left.png,NA,Number not found in mappings,NA,TRUE,f,f,NA,NA,NA,1,6,"1,8,10,5,3,11,9,13,14,15,7,4,12,6,2"
15360,commdev-image-keyboard-response,29,123751,practice,479,img/practice1_right.png,NA,Number not found in mappings,NA,TRUE,j,j,NA,NA,NA,1,6,"1,8,10,5,3,11,9,13,14,15,7,4,12,6,2"
15360,commdev-image-keyboard-response,30,125010,practice,463,img/practice3_left.png,NA,Number not found in mappings,NA,TRUE,f,f,NA,NA,NA,1,6,"1,8,10,5,3,11,9,13,14,15,7,4,12,6,2"
15360,commdev-image-keyboard-response,31,126269,practice,395,img/practice4_left.png,NA,Number not found in mappings,NA,TRUE,f,f,NA,NA,NA,1,6,"1,8,10,5,3,11,9,13,14,15,7,4,12,6,2"
15360,commdev-image-keyboard-response,32,127527,practice,464,img/practice1_right.png,NA,Number not found in mappings,NA,TRUE,j,j,NA,NA,NA,1,6,"1,8,10,5,3,11,9,13,14,15,7,4,12,6,2"
15360,commdev-image-keyboard-response,33,128787,practice,483,img/practice3_right.png,NA,Number not found in mappings,NA,TRUE,j,j,NA,NA,NA,1,6,"1,8,10,5,3,11,9,13,14,15,7,4,12,6,2"
15360,commdev-image-keyboard-response,34,130051,practice,445,img/practice4_right.png,NA,Number not found in mappings,NA,TRUE,j,j,NA,NA,NA,1,6,"1,8,10,5,3,11,9,13,14,15,7,4,12,6,2"
15360,commdev-instructions,35,140514,NA,893,"<p>Great job with the practice round.</p><p>During real missions, you won't know whether you pressed the right or wrong key for each planet.</p><p>But between missions, we will tell you how you did overall.</p>",NA,NA,NA,NA,NA,NA,NA,NA,NA,1,6,"1,8,10,5,3,11,9,13,14,15,7,4,12,6,2"
15360,commdev-instructions,36,163024,NA,14252,<p>Try your best! You will be paid a bonus based on how many correct responses you make!</p><p>Responses that are too slow will not count toward your bonus.</p>,NA,NA,NA,NA,NA,NA,NA,NA,NA,1,6,"1,8,10,5,3,11,9,13,14,15,7,4,12,6,2"
15360,commdev-instructions,37,169803,NA,573,"<p>You are almost ready to start the real game.</p><p> First, we are going to ask you some questions about how the game works.</p>",NA,NA,NA,NA,NA,NA,NA,NA,NA,1,6,"1,8,10,5,3,11,9,13,14,15,7,4,12,6,2"
15360,commdev-instructions,46,248385,NA,2194,"<p> Nice work! It is now time to start the real game.<p></p>You will go on two missions to record wind directions of different planets.<p></p>Each one will take about 5 minutes. You will get to take a break between missions.<p><p> Remember, press <strong>F</strong> or <strong>J</strong> depending on the wind direction. Good luck!<br><img src=""img/categorize_planet_example.png""",NA,NA,NA,NA,NA,NA,NA,NA,NA,1,6,"1,8,10,5,3,11,9,13,14,15,7,4,12,6,2"
15360,commdev-image-keyboard-response,48,253374,learnblock1,840,img/planet14_right.png,14,Community 2,NA,TRUE,j,j,NA,NA,NA,1,6,"1,8,10,5,3,11,9,13,14,15,7,4,12,6,2"
15360,commdev-image-keyboard-response,49,254634,learnblock1,698,img/planet9_left.png,9,Community 2,NA,TRUE,f,f,NA,NA,NA,1,6,"1,8,10,5,3,11,9,13,14,15,7,4,12,6,2"
15360,commdev-image-keyboard-response,50,255894,learnblock1,641,img/planet13_left.png,13,Community 2,NA,TRUE,f,f,NA,NA,NA,1,6,"1,8,10,5,3,11,9,13,14,15,7,4,12,6,2"
15360,commdev-image-keyboard-response,51,257229,learnblock1,550,img/planet14_left.png,14,Community 2,NA,TRUE,f,f,NA,NA,NA,1,6,"1,8,10,5,3,11,9,13,14,15,7,4,12,6,2"
15360,commdev-image-keyboard-response,52,258490,learnblock1,521,img/planet13_left.png,13,Community 2,NA,TRUE,f,f,NA,NA,NA,1,6,"1,8,10,5,3,11,9,13,14,15,7,4,12,6,2"
15360,commdev-image-keyboard-response,53,259745,learnblock1,588,img/planet9_right.png,9,Community 2,NA,TRUE,j,j,NA,NA,NA,1,6,"1,8,10,5,3,11,9,13,14,15,7,4,12,6,2"
15360,commdev-image-keyboard-response,54,261007,learnblock1,685,img/planet15_left.png,15,Community 2,NA,TRUE,f,f,NA,NA,NA,1,6,"1,8,10,5,3,11,9,13,14,15,7,4,12,6,2"
15360,commdev-image-keyboard-response,55,262262,learnblock1,674,img/planet9_left.png,9,Community 2,NA,TRUE,f,f,NA,NA,NA,1,6,"1,8,10,5,3,11,9,13,14,15,7,4,12,6,2"
15360,commdev-image-keyboard-response,56,263523,learnblock1,545,img/planet11_left.png,11,Community 2,NA,TRUE,f,f,NA,NA,NA,1,6,"1,8,10,5,3,11,9,13,14,15,7,4,12,6,2"
15360,commdev-image-keyboard-response,57,264786,learnblock1,688,img/planet9_left.png,9,Community 2,NA,TRUE,f,f,NA,NA,NA,1,6,"1,8,10,5,3,11,9,13,14,15,7,4,12,6,2"
15360,commdev-image-keyboard-response,58,266040,learnblock1,943,img/planet13_right.png,13,Community 2,NA,TRUE,j,j,NA,NA,NA,1,6,"1,8,10,5,3,11,9,13,14,15,7,4,12,6,2"
15360,commdev-image-keyboard-response,59,267296,learnblock1,741,img/planet4_right.png,4,Community 3,NA,TRUE,j,j,NA,NA,NA,1,6,"1,8,10,5,3,11,9,13,14,15,7,4,12,6,2"
15360,commdev-image-keyboard-response,60,268550,learnblock1,538,img/planet2_left.png,2,Community 3,NA,TRUE,f,f,NA,NA,NA,1,6,"1,8,10,5,3,11,9,13,14,15,7,4,12,6,2"
15360,commdev-image-keyboard-response,61,269812,learnblock1,573,img/planet7_left.png,7,Community 3,NA,TRUE,f,f,NA,NA,NA,1,6,"1,8,10,5,3,11,9,13,14,15,7,4,12,6,2"
15360,commdev-image-keyboard-response,62,271069,learnblock1,703,img/planet2_right.png,2,Community 3,NA,TRUE,j,j,NA,NA,NA,1,6,"1,8,10,5,3,11,9,13,14,15,7,4,12,6,2"
15360,commdev-image-keyboard-response,63,272332,learnblock1,624,img/planet6_right.png,6,Community 3,NA,TRUE,j,j,NA,NA,NA,1,6,"1,8,10,5,3,11,9,13,14,15,7,4,12,6,2"
15360,commdev-image-keyboard-response,64,273594,learnblock1,639,img/planet4_right.png,4,Community 3,NA,TRUE,j,j,NA,NA,NA,1,6,"1,8,10,5,3,11,9,13,14,15,7,4,12,6,2"
15360,commdev-image-keyboard-response,65,274853,learnblock1,1063,img/planet12_right.png,12,Community 3,NA,TRUE,j,j,NA,NA,NA,1,6,"1,8,10,5,3,11,9,13,14,15,7,4,12,6,2"
15360,commdev-image-keyboard-response,66,276117,learnblock1,718,img/planet2_right.png,2,Community 3,NA,TRUE,j,j,NA,NA,NA,1,6,"1,8,10,5,3,11,9,13,14,15,7,4,12,6,2"
15360,commdev-image-keyboard-response,67,277376,learnblock1,658,img/planet6_left.png,6,Community 3,NA,TRUE,f,f,NA,NA,NA,1,6,"1,8,10,5,3,11,9,13,14,15,7,4,12,6,2"
15360,commdev-image-keyboard-response,68,278632,learnblock1,613,img/planet2_left.png,2,Community 3,NA,TRUE,f,f,NA,NA,NA,1,6,"1,8,10,5,3,11,9,13,14,15,7,4,12,6,2"
15360,commdev-image-keyboard-response,69,279891,learnblock1,680,img/planet7_left.png,7,Community 3,NA,TRUE,f,f,NA,NA,NA,1,6,"1,8,10,5,3,11,9,13,14,15,7,4,12,6,2"
15360,commdev-image-keyboard-response,70,281151,learnblock1,null,img/planet3_left.png,3,Community 1,NA,FALSE,null,f,NA,NA,NA,1,6,"1,8,10,5,3,11,9,13,14,15,7,4,12,6,2"
15360,commdev-image-keyboard-response,71,282409,learnblock1,983,img/planet7_left.png,7,Community 3,NA,TRUE,f,f,NA,NA,NA,1,6,"1,8,10,5,3,11,9,13,14,15,7,4,12,6,2"
15360,commdev-image-keyboard-response,72,283668,learnblock1,742,img/planet12_left.png,12,Community 3,NA,TRUE,f,f,NA,NA,NA,1,6,"1,8,10,5,3,11,9,13,14,15,7,4,12,6,2"
15360,commdev-image-keyboard-response,73,284930,learnblock1,654,img/planet2_left.png,2,Community 3,NA,TRUE,f,f,NA,NA,NA,1,6,"1,8,10,5,3,11,9,13,14,15,7,4,12,6,2"
15360,commdev-image-keyboard-response,74,286190,learnblock1,565,img/planet6_right.png,6,Community 3,NA,TRUE,j,j,NA,NA,NA,1,6,"1,8,10,5,3,11,9,13,14,15,7,4,12,6,2"
15360,commdev-image-keyboard-response,75,287459,learnblock1,543,img/planet7_right.png,7,Community 3,NA,TRUE,j,j,NA,NA,NA,1,6,"1,8,10,5,3,11,9,13,14,15,7,4,12,6,2"
15360,commdev-image-keyboard-response,76,288721,learnblock1,594,img/planet12_right.png,12,Community 3,NA,TRUE,j,j,NA,NA,NA,1,6,"1,8,10,5,3,11,9,13,14,15,7,4,12,6,2"
15360,commdev-image-keyboard-response,77,289985,learnblock1,521,img/planet7_right.png,7,Community 3,NA,TRUE,j,j,NA,NA,NA,1,6,"1,8,10,5,3,11,9,13,14,15,7,4,12,6,2"
15360,commdev-image-keyboard-response,78,291241,learnblock1,720,img/planet2_right.png,2,Community 3,NA,TRUE,j,j,NA,NA,NA,1,6,"1,8,10,5,3,11,9,13,14,15,7,4,12,6,2"
15360,commdev-image-keyboard-response,79,292501,learnblock1,894,img/planet12_right.png,12,Community 3,NA,TRUE,j,j,NA,NA,NA,1,6,"1,8,10,5,3,11,9,13,14,15,7,4,12,6,2"
15360,commdev-image-keyboard-response,80,293762,learnblock1,650,img/planet2_left.png,2,Community 3,NA,TRUE,f,f,NA,NA,NA,1,6,"1,8,10,5,3,11,9,13,14,15,7,4,12,6,2"
15360,commdev-image-keyboard-response,81,295021,learnblock1,620,img/planet7_right.png,7,Community 3,NA,TRUE,j,j,NA,NA,NA,1,6,"1,8,10,5,3,11,9,13,14,15,7,4,12,6,2"
15360,commdev-image-keyboard-response,82,296282,learnblock1,707,img/planet3_right.png,3,Community 1,NA,TRUE,j,j,NA,NA,NA,1,6,"1,8,10,5,3,11,9,13,14,15,7,4,12,6,2"
15360,commdev-image-keyboard-response,83,297557,learnblock1,469,img/planet1_left.png,1,Community 1,NA,TRUE,f,f,NA,NA,NA,1,6,"1,8,10,5,3,11,9,13,14,15,7,4,12,6,2"
15360,commdev-image-keyboard-response,84,298818,learnblock1,502,img/planet5_left.png,5,Community 1,NA,TRUE,f,f,NA,NA,NA,1,6,"1,8,10,5,3,11,9,13,14,15,7,4,12,6,2"
15360,commdev-image-keyboard-response,85,300076,learnblock1,632,img/planet8_right.png,8,Community 1,NA,TRUE,j,j,NA,NA,NA,1,6,"1,8,10,5,3,11,9,13,14,15,7,4,12,6,2"
15360,commdev-image-keyboard-response,86,301339,learnblock1,544,img/planet5_right.png,5,Community 1,NA,TRUE,j,j,NA,NA,NA,1,6,"1,8,10,5,3,11,9,13,14,15,7,4,12,6,2"
15360,commdev-image-keyboard-response,87,302597,learnblock1,595,img/planet11_left.png,11,Community 2,NA,TRUE,f,f,NA,NA,NA,1,6,"1,8,10,5,3,11,9,13,14,15,7,4,12,6,2"
15360,commdev-image-keyboard-response,88,303854,learnblock1,489,img/planet9_left.png,9,Community 2,NA,TRUE,f,f,NA,NA,NA,1,6,"1,8,10,5,3,11,9,13,14,15,7,4,12,6,2"
15360,commdev-image-keyboard-response,89,305110,learnblock1,631,img/planet15_left.png,15,Community 2,NA,TRUE,f,f,NA,NA,NA,1,6,"1,8,10,5,3,11,9,13,14,15,7,4,12,6,2"
15360,commdev-image-keyboard-response,90,306371,learnblock1,660,img/planet11_right.png,11,Community 2,NA,TRUE,j,j,NA,NA,NA,1,6,"1,8,10,5,3,11,9,13,14,15,7,4,12,6,2"
15360,commdev-image-keyboard-response,91,307674,learnblock1,609,img/planet5_right.png,5,Community 1,NA,TRUE,j,j,NA,NA,NA,1,6,"1,8,10,5,3,11,9,13,14,15,7,4,12,6,2"
15360,commdev-image-keyboard-response,92,308937,learnblock1,477,img/planet11_right.png,11,Community 2,NA,TRUE,j,j,NA,NA,NA,1,6,"1,8,10,5,3,11,9,13,14,15,7,4,12,6,2"
15360,commdev-image-keyboard-response,93,310192,learnblock1,614,img/planet14_left.png,14,Community 2,NA,TRUE,f,f,NA,NA,NA,1,6,"1,8,10,5,3,11,9,13,14,15,7,4,12,6,2"
15360,commdev-image-keyboard-response,94,311456,learnblock1,581,img/planet15_right.png,15,Community 2,NA,TRUE,j,j,NA,NA,NA,1,6,"1,8,10,5,3,11,9,13,14,15,7,4,12,6,2"
15360,commdev-image-keyboard-response,95,312711,learnblock1,536,img/planet11_left.png,11,Community 2,NA,TRUE,f,f,NA,NA,NA,1,6,"1,8,10,5,3,11,9,13,14,15,7,4,12,6,2"
15360,commdev-image-keyboard-response,96,313970,learnblock1,607,img/planet5_left.png,5,Community 1,NA,TRUE,f,f,NA,NA,NA,1,6,"1,8,10,5,3,11,9,13,14,15,7,4,12,6,2"
15360,commdev-image-keyboard-response,97,315226,learnblock1,614,img/planet8_right.png,8,Community 1,NA,TRUE,j,j,NA,NA,NA,1,6,"1,8,10,5,3,11,9,13,14,15,7,4,12,6,2"
15360,commdev-image-keyboard-response,98,316488,learnblock1,576,img/planet1_right.png,1,Community 1,NA,TRUE,j,j,NA,NA,NA,1,6,"1,8,10,5,3,11,9,13,14,15,7,4,12,6,2"
15360,commdev-image-keyboard-response,99,317812,learnblock1,583,img/planet5_right.png,5,Community 1,NA,TRUE,j,j,NA,NA,NA,1,6,"1,8,10,5,3,11,9,13,14,15,7,4,12,6,2"
15360,commdev-image-keyboard-response,100,319072,learnblock1,569,img/planet8_right.png,8,Community 1,NA,TRUE,j,j,NA,NA,NA,1,6,"1,8,10,5,3,11,9,13,14,15,7,4,12,6,2"
15360,commdev-image-keyboard-response,101,320395,learnblock1,529,img/planet10_right.png,10,Community 1,NA,TRUE,j,j,NA,NA,NA,1,6,"1,8,10,5,3,11,9,13,14,15,7,4,12,6,2"
15360,commdev-image-keyboard-response,102,321652,learnblock1,539,img/planet1_left.png,1,Community 1,NA,TRUE,f,f,NA,NA,NA,1,6,"1,8,10,5,3,11,9,13,14,15,7,4,12,6,2"
15360,commdev-image-keyboard-response,103,322941,learnblock1,951,img/planet3_left.png,3,Community 1,NA,TRUE,f,f,NA,NA,NA,1,6,"1,8,10,5,3,11,9,13,14,15,7,4,12,6,2"
15360,commdev-image-keyboard-response,104,324201,learnblock1,660,img/planet8_right.png,8,Community 1,NA,TRUE,j,j,NA,NA,NA,1,6,"1,8,10,5,3,11,9,13,14,15,7,4,12,6,2"
15360,commdev-image-keyboard-response,105,325462,learnblock1,573,img/planet5_right.png,5,Community 1,NA,TRUE,j,j,NA,NA,NA,1,6,"1,8,10,5,3,11,9,13,14,15,7,4,12,6,2"
15360,commdev-image-keyboard-response,106,326722,learnblock1,509,img/planet11_left.png,11,Community 2,NA,TRUE,f,f,NA,NA,NA,1,6,"1,8,10,5,3,11,9,13,14,15,7,4,12,6,2"
15360,commdev-image-keyboard-response,107,327985,learnblock1,631,img/planet9_left.png,9,Community 2,NA,TRUE,f,f,NA,NA,NA,1,6,"1,8,10,5,3,11,9,13,14,15,7,4,12,6,2"
15360,commdev-image-keyboard-response,108,329243,learnblock1,498,img/planet13_right.png,13,Community 2,NA,TRUE,j,j,NA,NA,NA,1,6,"1,8,10,5,3,11,9,13,14,15,7,4,12,6,2"
15360,commdev-image-keyboard-response,109,330501,learnblock1,719,img/planet9_left.png,9,Community 2,NA,TRUE,f,f,NA,NA,NA,1,6,"1,8,10,5,3,11,9,13,14,15,7,4,12,6,2"
15360,commdev-image-keyboard-response,110,331760,learnblock1,480,img/planet11_right.png,11,Community 2,NA,TRUE,j,j,NA,NA,NA,1,6,"1,8,10,5,3,11,9,13,14,15,7,4,12,6,2"
15360,commdev-image-keyboard-response,111,333022,learnblock1,645,img/planet9_right.png,9,Community 2,NA,TRUE,j,j,NA,NA,NA,1,6,"1,8,10,5,3,11,9,13,14,15,7,4,12,6,2"
15360,commdev-image-keyboard-response,112,334281,learnblock1,649,img/planet14_right.png,14,Community 2,NA,TRUE,j,j,NA,NA,NA,1,6,"1,8,10,5,3,11,9,13,14,15,7,4,12,6,2"
15360,commdev-image-keyboard-response,113,335543,learnblock1,550,img/planet9_left.png,9,Community 2,NA,TRUE,f,f,NA,NA,NA,1,6,"1,8,10,5,3,11,9,13,14,15,7,4,12,6,2"
15360,commdev-image-keyboard-response,114,336837,learnblock1,551,img/planet15_right.png,15,Community 2,NA,TRUE,j,j,NA,NA,NA,1,6,"1,8,10,5,3,11,9,13,14,15,7,4,12,6,2"
15360,commdev-image-keyboard-response,115,338095,learnblock1,502,img/planet13_left.png,13,Community 2,NA,TRUE,f,f,NA,NA,NA,1,6,"1,8,10,5,3,11,9,13,14,15,7,4,12,6,2"
15360,commdev-image-keyboard-response,116,339359,learnblock1,465,img/planet9_right.png,9,Community 2,NA,TRUE,j,j,NA,NA,NA,1,6,"1,8,10,5,3,11,9,13,14,15,7,4,12,6,2"
15360,commdev-image-keyboard-response,117,340617,learnblock1,884,img/planet15_right.png,15,Community 2,NA,TRUE,j,j,NA,NA,NA,1,6,"1,8,10,5,3,11,9,13,14,15,7,4,12,6,2"
15360,commdev-image-keyboard-response,118,341875,learnblock1,585,img/planet14_left.png,14,Community 2,NA,TRUE,f,f,NA,NA,NA,1,6,"1,8,10,5,3,11,9,13,14,15,7,4,12,6,2"
15360,commdev-image-keyboard-response,119,343128,learnblock1,756,img/planet13_left.png,13,Community 2,NA,TRUE,f,f,NA,NA,NA,1,6,"1,8,10,5,3,11,9,13,14,15,7,4,12,6,2"
15360,commdev-image-keyboard-response,120,344390,learnblock1,661,img/planet14_left.png,14,Community 2,NA,TRUE,f,f,NA,NA,NA,1,6,"1,8,10,5,3,11,9,13,14,15,7,4,12,6,2"
15360,commdev-image-keyboard-response,121,345651,learnblock1,577,img/planet9_left.png,9,Community 2,NA,TRUE,f,f,NA,NA,NA,1,6,"1,8,10,5,3,11,9,13,14,15,7,4,12,6,2"
15360,commdev-image-keyboard-response,122,346910,learnblock1,542,img/planet13_left.png,13,Community 2,NA,TRUE,f,f,NA,NA,NA,1,6,"1,8,10,5,3,11,9,13,14,15,7,4,12,6,2"
15360,commdev-image-keyboard-response,123,348167,learnblock1,484,img/planet14_right.png,14,Community 2,NA,TRUE,j,j,NA,NA,NA,1,6,"1,8,10,5,3,11,9,13,14,15,7,4,12,6,2"
15360,commdev-image-keyboard-response,124,349425,learnblock1,774,img/planet15_right.png,15,Community 2,NA,TRUE,j,j,NA,NA,NA,1,6,"1,8,10,5,3,11,9,13,14,15,7,4,12,6,2"
15360,commdev-image-keyboard-response,125,350688,learnblock1,637,img/planet13_left.png,13,Community 2,NA,TRUE,f,f,NA,NA,NA,1,6,"1,8,10,5,3,11,9,13,14,15,7,4,12,6,2"
15360,commdev-image-keyboard-response,126,351945,learnblock1,667,img/planet9_left.png,9,Community 2,NA,TRUE,f,f,NA,NA,NA,1,6,"1,8,10,5,3,11,9,13,14,15,7,4,12,6,2"
15360,commdev-image-keyboard-response,127,353207,learnblock1,591,img/planet15_right.png,15,Community 2,NA,TRUE,j,j,NA,NA,NA,1,6,"1,8,10,5,3,11,9,13,14,15,7,4,12,6,2"
15360,commdev-image-keyboard-response,128,354465,learnblock1,583,img/planet14_right.png,14,Community 2,NA,TRUE,j,j,NA,NA,NA,1,6,"1,8,10,5,3,11,9,13,14,15,7,4,12,6,2"
15360,commdev-image-keyboard-response,129,355724,learnblock1,667,img/planet11_left.png,11,Community 2,NA,TRUE,f,f,NA,NA,NA,1,6,"1,8,10,5,3,11,9,13,14,15,7,4,12,6,2"
15360,commdev-image-keyboard-response,130,356984,learnblock1,566,img/planet5_left.png,5,Community 1,NA,TRUE,f,f,NA,NA,NA,1,6,"1,8,10,5,3,11,9,13,14,15,7,4,12,6,2"
15360,commdev-image-keyboard-response,131,358244,learnblock1,553,img/planet10_left.png,10,Community 1,NA,TRUE,f,f,NA,NA,NA,1,6,"1,8,10,5,3,11,9,13,14,15,7,4,12,6,2"
15360,commdev-image-keyboard-response,132,359546,learnblock1,612,img/planet5_left.png,5,Community 1,NA,TRUE,f,f,NA,NA,NA,1,6,"1,8,10,5,3,11,9,13,14,15,7,4,12,6,2"
15360,commdev-image-keyboard-response,133,360804,learnblock1,498,img/planet1_left.png,1,Community 1,NA,TRUE,f,f,NA,NA,NA,1,6,"1,8,10,5,3,11,9,13,14,15,7,4,12,6,2"
15360,commdev-image-keyboard-response,134,362063,learnblock1,564,img/planet10_left.png,10,Community 1,NA,TRUE,f,f,NA,NA,NA,1,6,"1,8,10,5,3,11,9,13,14,15,7,4,12,6,2"
15360,commdev-image-keyboard-response,135,363324,learnblock1,580,img/planet8_right.png,8,Community 1,NA,TRUE,j,j,NA,NA,NA,1,6,"1,8,10,5,3,11,9,13,14,15,7,4,12,6,2"
15360,commdev-image-keyboard-response,136,364584,learnblock1,687,img/planet3_right.png,3,Community 1,NA,TRUE,j,j,NA,NA,NA,1,6,"1,8,10,5,3,11,9,13,14,15,7,4,12,6,2"
15360,commdev-image-keyboard-response,137,365847,learnblock1,594,img/planet10_right.png,10,Community 1,NA,TRUE,j,j,NA,NA,NA,1,6,"1,8,10,5,3,11,9,13,14,15,7,4,12,6,2"
15360,commdev-image-keyboard-response,138,367109,learnblock1,492,img/planet1_left.png,1,Community 1,NA,TRUE,f,f,NA,NA,NA,1,6,"1,8,10,5,3,11,9,13,14,15,7,4,12,6,2"
15360,commdev-image-keyboard-response,139,368371,learnblock1,539,img/planet10_right.png,10,Community 1,NA,TRUE,j,j,NA,NA,NA,1,6,"1,8,10,5,3,11,9,13,14,15,7,4,12,6,2"
15360,commdev-image-keyboard-response,140,369632,learnblock1,561,img/planet5_left.png,5,Community 1,NA,TRUE,f,f,NA,NA,NA,1,6,"1,8,10,5,3,11,9,13,14,15,7,4,12,6,2"
15360,commdev-image-keyboard-response,141,370890,learnblock1,614,img/planet10_right.png,10,Community 1,NA,TRUE,j,j,NA,NA,NA,1,6,"1,8,10,5,3,11,9,13,14,15,7,4,12,6,2"
15360,commdev-image-keyboard-response,142,372181,learnblock1,580,img/planet8_right.png,8,Community 1,NA,TRUE,j,j,NA,NA,NA,1,6,"1,8,10,5,3,11,9,13,14,15,7,4,12,6,2"
15360,commdev-image-keyboard-response,143,373437,learnblock1,510,img/planet1_left.png,1,Community 1,NA,FALSE,j,f,NA,NA,NA,1,6,"1,8,10,5,3,11,9,13,14,15,7,4,12,6,2"
15360,commdev-image-keyboard-response,144,374694,learnblock1,663,img/planet5_right.png,5,Community 1,NA,TRUE,j,j,NA,NA,NA,1,6,"1,8,10,5,3,11,9,13,14,15,7,4,12,6,2"
15360,commdev-image-keyboard-response,145,375956,learnblock1,694,img/planet1_left.png,1,Community 1,NA,TRUE,f,f,NA,NA,NA,1,6,"1,8,10,5,3,11,9,13,14,15,7,4,12,6,2"
15360,commdev-image-keyboard-response,146,377215,learnblock1,707,img/planet3_right.png,3,Community 1,NA,TRUE,j,j,NA,NA,NA,1,6,"1,8,10,5,3,11,9,13,14,15,7,4,12,6,2"
15360,commdev-image-keyboard-response,147,378474,learnblock1,668,img/planet8_left.png,8,Community 1,NA,TRUE,f,f,NA,NA,NA,1,6,"1,8,10,5,3,11,9,13,14,15,7,4,12,6,2"
15360,commdev-image-keyboard-response,148,379733,learnblock1,769,img/planet1_left.png,1,Community 1,NA,TRUE,f,f,NA,NA,NA,1,6,"1,8,10,5,3,11,9,13,14,15,7,4,12,6,2"
15360,commdev-image-keyboard-response,149,380995,learnblock1,571,img/planet10_right.png,10,Community 1,NA,TRUE,j,j,NA,NA,NA,1,6,"1,8,10,5,3,11,9,13,14,15,7,4,12,6,2"
15360,commdev-image-keyboard-response,150,382286,learnblock1,547,img/planet5_right.png,5,Community 1,NA,TRUE,j,j,NA,NA,NA,1,6,"1,8,10,5,3,11,9,13,14,15,7,4,12,6,2"
15360,commdev-image-keyboard-response,151,383543,learnblock1,544,img/planet10_right.png,10,Community 1,NA,TRUE,j,j,NA,NA,NA,1,6,"1,8,10,5,3,11,9,13,14,15,7,4,12,6,2"
15360,commdev-image-keyboard-response,152,384805,learnblock1,540,img/planet8_right.png,8,Community 1,NA,TRUE,j,j,NA,NA,NA,1,6,"1,8,10,5,3,11,9,13,14,15,7,4,12,6,2"
15360,commdev-image-keyboard-response,153,386065,learnblock1,708,img/planet5_left.png,5,Community 1,NA,TRUE,f,f,NA,NA,NA,1,6,"1,8,10,5,3,11,9,13,14,15,7,4,12,6,2"
15360,commdev-image-keyboard-response,154,387325,learnblock1,442,img/planet10_left.png,10,Community 1,NA,TRUE,f,f,NA,NA,NA,1,6,"1,8,10,5,3,11,9,13,14,15,7,4,12,6,2"
15360,commdev-image-keyboard-response,155,388586,learnblock1,571,img/planet3_right.png,3,Community 1,NA,TRUE,j,j,NA,NA,NA,1,6,"1,8,10,5,3,11,9,13,14,15,7,4,12,6,2"
15360,commdev-image-keyboard-response,156,389849,learnblock1,500,img/planet7_left.png,7,Community 3,NA,TRUE,f,f,NA,NA,NA,1,6,"1,8,10,5,3,11,9,13,14,15,7,4,12,6,2"
15360,commdev-image-keyboard-response,157,391111,learnblock1,590,img/planet6_left.png,6,Community 3,NA,TRUE,f,f,NA,NA,NA,1,6,"1,8,10,5,3,11,9,13,14,15,7,4,12,6,2"
15360,commdev-image-keyboard-response,158,392386,learnblock1,564,img/planet2_left.png,2,Community 3,NA,TRUE,f,f,NA,NA,NA,1,6,"1,8,10,5,3,11,9,13,14,15,7,4,12,6,2"
15360,commdev-image-keyboard-response,159,393644,learnblock1,565,img/planet4_right.png,4,Community 3,NA,TRUE,j,j,NA,NA,NA,1,6,"1,8,10,5,3,11,9,13,14,15,7,4,12,6,2"
15360,commdev-image-keyboard-response,160,394902,learnblock1,617,img/planet2_left.png,2,Community 3,NA,TRUE,f,f,NA,NA,NA,1,6,"1,8,10,5,3,11,9,13,14,15,7,4,12,6,2"
15360,commdev-image-keyboard-response,161,396165,learnblock1,598,img/planet12_right.png,12,Community 3,NA,TRUE,j,j,NA,NA,NA,1,6,"1,8,10,5,3,11,9,13,14,15,7,4,12,6,2"
15360,commdev-image-keyboard-response,162,397427,learnblock1,538,img/planet4_right.png,4,Community 3,NA,TRUE,j,j,NA,NA,NA,1,6,"1,8,10,5,3,11,9,13,14,15,7,4,12,6,2"
15360,commdev-image-keyboard-response,163,398686,learnblock1,595,img/planet12_right.png,12,Community 3,NA,TRUE,j,j,NA,NA,NA,1,6,"1,8,10,5,3,11,9,13,14,15,7,4,12,6,2"
15360,commdev-image-keyboard-response,164,399945,learnblock1,536,img/planet2_left.png,2,Community 3,NA,TRUE,f,f,NA,NA,NA,1,6,"1,8,10,5,3,11,9,13,14,15,7,4,12,6,2"
15360,commdev-image-keyboard-response,165,401202,learnblock1,520,img/planet6_right.png,6,Community 3,NA,TRUE,j,j,NA,NA,NA,1,6,"1,8,10,5,3,11,9,13,14,15,7,4,12,6,2"
15360,commdev-image-keyboard-response,166,402508,learnblock1,577,img/planet7_left.png,7,Community 3,NA,TRUE,f,f,NA,NA,NA,1,6,"1,8,10,5,3,11,9,13,14,15,7,4,12,6,2"
15360,commdev-image-keyboard-response,167,403772,learnblock1,594,img/planet2_left.png,2,Community 3,NA,TRUE,f,f,NA,NA,NA,1,6,"1,8,10,5,3,11,9,13,14,15,7,4,12,6,2"
15360,commdev-image-keyboard-response,168,405114,learnblock1,543,img/planet7_right.png,7,Community 3,NA,TRUE,j,j,NA,NA,NA,1,6,"1,8,10,5,3,11,9,13,14,15,7,4,12,6,2"
15360,commdev-image-keyboard-response,169,406372,learnblock1,558,img/planet6_left.png,6,Community 3,NA,TRUE,f,f,NA,NA,NA,1,6,"1,8,10,5,3,11,9,13,14,15,7,4,12,6,2"
15360,commdev-image-keyboard-response,170,407680,learnblock1,597,img/planet12_left.png,12,Community 3,NA,TRUE,f,f,NA,NA,NA,1,6,"1,8,10,5,3,11,9,13,14,15,7,4,12,6,2"
15360,commdev-image-keyboard-response,171,408943,learnblock1,597,img/planet7_right.png,7,Community 3,NA,TRUE,j,j,NA,NA,NA,1,6,"1,8,10,5,3,11,9,13,14,15,7,4,12,6,2"
15360,commdev-image-keyboard-response,172,410282,learnblock1,508,img/planet6_right.png,6,Community 3,NA,TRUE,j,j,NA,NA,NA,1,6,"1,8,10,5,3,11,9,13,14,15,7,4,12,6,2"
15360,commdev-image-keyboard-response,173,411541,learnblock1,540,img/planet12_right.png,12,Community 3,NA,TRUE,j,j,NA,NA,NA,1,6,"1,8,10,5,3,11,9,13,14,15,7,4,12,6,2"
15360,commdev-image-keyboard-response,174,412803,learnblock1,504,img/planet2_right.png,2,Community 3,NA,TRUE,j,j,NA,NA,NA,1,6,"1,8,10,5,3,11,9,13,14,15,7,4,12,6,2"
15360,commdev-image-keyboard-response,175,414066,learnblock1,581,img/planet7_left.png,7,Community 3,NA,TRUE,f,f,NA,NA,NA,1,6,"1,8,10,5,3,11,9,13,14,15,7,4,12,6,2"
15360,commdev-image-keyboard-response,176,415324,learnblock1,612,img/planet2_left.png,2,Community 3,NA,TRUE,f,f,NA,NA,NA,1,6,"1,8,10,5,3,11,9,13,14,15,7,4,12,6,2"
15360,commdev-image-keyboard-response,177,416580,learnblock1,656,img/planet7_right.png,7,Community 3,NA,TRUE,j,j,NA,NA,NA,1,6,"1,8,10,5,3,11,9,13,14,15,7,4,12,6,2"
15360,commdev-image-keyboard-response,178,417837,learnblock1,644,img/planet2_right.png,2,Community 3,NA,TRUE,j,j,NA,NA,NA,1,6,"1,8,10,5,3,11,9,13,14,15,7,4,12,6,2"
15360,commdev-image-keyboard-response,179,419096,learnblock1,521,img/planet7_left.png,7,Community 3,NA,TRUE,f,f,NA,NA,NA,1,6,"1,8,10,5,3,11,9,13,14,15,7,4,12,6,2"
15360,commdev-image-keyboard-response,180,420356,learnblock1,1035,img/planet3_left.png,3,Community 1,NA,TRUE,f,f,NA,NA,NA,1,6,"1,8,10,5,3,11,9,13,14,15,7,4,12,6,2"
15360,commdev-image-keyboard-response,181,421616,learnblock1,684,img/planet7_right.png,7,Community 3,NA,TRUE,j,j,NA,NA,NA,1,6,"1,8,10,5,3,11,9,13,14,15,7,4,12,6,2"
15360,commdev-image-keyboard-response,182,422878,learnblock1,628,img/planet2_right.png,2,Community 3,NA,TRUE,j,j,NA,NA,NA,1,6,"1,8,10,5,3,11,9,13,14,15,7,4,12,6,2"
15360,commdev-image-keyboard-response,183,424172,learnblock1,627,img/planet12_left.png,12,Community 3,NA,TRUE,f,f,NA,NA,NA,1,6,"1,8,10,5,3,11,9,13,14,15,7,4,12,6,2"
15360,commdev-image-keyboard-response,184,425431,learnblock1,732,img/planet4_left.png,4,Community 3,NA,TRUE,f,f,NA,NA,NA,1,6,"1,8,10,5,3,11,9,13,14,15,7,4,12,6,2"
15360,commdev-image-keyboard-response,185,426690,learnblock1,597,img/planet13_right.png,13,Community 2,NA,TRUE,j,j,NA,NA,NA,1,6,"1,8,10,5,3,11,9,13,14,15,7,4,12,6,2"
15360,commdev-image-keyboard-response,186,427951,learnblock1,607,img/planet14_right.png,14,Community 2,NA,TRUE,j,j,NA,NA,NA,1,6,"1,8,10,5,3,11,9,13,14,15,7,4,12,6,2"
15360,commdev-image-keyboard-response,187,429211,learnblock1,460,img/planet9_right.png,9,Community 2,NA,TRUE,j,j,NA,NA,NA,1,6,"1,8,10,5,3,11,9,13,14,15,7,4,12,6,2"
15360,commdev-image-keyboard-response,188,430471,learnblock1,444,img/planet13_left.png,13,Community 2,NA,TRUE,f,f,NA,NA,NA,1,6,"1,8,10,5,3,11,9,13,14,15,7,4,12,6,2"
15360,commdev-image-keyboard-response,189,431734,learnblock1,567,img/planet9_right.png,9,Community 2,NA,TRUE,j,j,NA,NA,NA,1,6,"1,8,10,5,3,11,9,13,14,15,7,4,12,6,2"
15360,commdev-image-keyboard-response,190,432997,learnblock1,1166,img/planet15_right.png,15,Community 2,NA,TRUE,j,j,NA,NA,NA,1,6,"1,8,10,5,3,11,9,13,14,15,7,4,12,6,2"
15360,commdev-image-keyboard-response,191,434259,learnblock1,726,img/planet9_right.png,9,Community 2,NA,TRUE,j,j,NA,NA,NA,1,6,"1,8,10,5,3,11,9,13,14,15,7,4,12,6,2"
15360,commdev-image-keyboard-response,192,435535,learnblock1,856,img/planet11_right.png,11,Community 2,NA,TRUE,j,j,NA,NA,NA,1,6,"1,8,10,5,3,11,9,13,14,15,7,4,12,6,2"
15360,commdev-image-keyboard-response,193,436795,learnblock1,675,img/planet5_right.png,5,Community 1,NA,TRUE,j,j,NA,NA,NA,1,6,"1,8,10,5,3,11,9,13,14,15,7,4,12,6,2"
15360,commdev-image-keyboard-response,194,438051,learnblock1,772,img/planet8_right.png,8,Community 1,NA,TRUE,j,j,NA,NA,NA,1,6,"1,8,10,5,3,11,9,13,14,15,7,4,12,6,2"
15360,commdev-image-keyboard-response,195,439312,learnblock1,454,img/planet10_left.png,10,Community 1,NA,FALSE,j,f,NA,NA,NA,1,6,"1,8,10,5,3,11,9,13,14,15,7,4,12,6,2"
15360,commdev-image-keyboard-response,196,440574,learnblock1,814,img/planet8_right.png,8,Community 1,NA,TRUE,j,j,NA,NA,NA,1,6,"1,8,10,5,3,11,9,13,14,15,7,4,12,6,2"
15360,commdev-image-keyboard-response,197,441832,learnblock1,580,img/planet5_right.png,5,Community 1,NA,TRUE,j,j,NA,NA,NA,1,6,"1,8,10,5,3,11,9,13,14,15,7,4,12,6,2"
15360,commdev-image-keyboard-response,198,443093,learnblock1,641,img/planet11_left.png,11,Community 2,NA,TRUE,f,f,NA,NA,NA,1,6,"1,8,10,5,3,11,9,13,14,15,7,4,12,6,2"
15360,commdev-image-keyboard-response,199,444354,learnblock1,536,img/planet9_right.png,9,Community 2,NA,TRUE,j,j,NA,NA,NA,1,6,"1,8,10,5,3,11,9,13,14,15,7,4,12,6,2"
15360,commdev-image-keyboard-response,200,445612,learnblock1,518,img/planet11_left.png,11,Community 2,NA,TRUE,f,f,NA,NA,NA,1,6,"1,8,10,5,3,11,9,13,14,15,7,4,12,6,2"
15360,commdev-image-keyboard-response,201,446870,learnblock1,640,img/planet14_right.png,14,Community 2,NA,TRUE,j,j,NA,NA,NA,1,6,"1,8,10,5,3,11,9,13,14,15,7,4,12,6,2"
15360,commdev-image-keyboard-response,202,448125,learnblock1,738,img/planet9_left.png,9,Community 2,NA,TRUE,f,f,NA,NA,NA,1,6,"1,8,10,5,3,11,9,13,14,15,7,4,12,6,2"
15360,commdev-image-keyboard-response,203,449388,learnblock1,682,img/planet14_left.png,14,Community 2,NA,TRUE,f,f,NA,NA,NA,1,6,"1,8,10,5,3,11,9,13,14,15,7,4,12,6,2"
15360,commdev-image-keyboard-response,204,450651,learnblock1,605,img/planet15_left.png,15,Community 2,NA,TRUE,f,f,NA,NA,NA,1,6,"1,8,10,5,3,11,9,13,14,15,7,4,12,6,2"
15360,commdev-image-keyboard-response,205,451904,learnblock1,533,img/planet13_left.png,13,Community 2,NA,TRUE,f,f,NA,NA,NA,1,6,"1,8,10,5,3,11,9,13,14,15,7,4,12,6,2"
15360,commdev-image-keyboard-response,206,453164,learnblock1,625,img/planet14_left.png,14,Community 2,NA,TRUE,f,f,NA,NA,NA,1,6,"1,8,10,5,3,11,9,13,14,15,7,4,12,6,2"
15360,commdev-image-keyboard-response,207,454456,learnblock1,585,img/planet13_left.png,13,Community 2,NA,TRUE,f,f,NA,NA,NA,1,6,"1,8,10,5,3,11,9,13,14,15,7,4,12,6,2"
15360,commdev-image-keyboard-response,208,455707,learnblock1,526,img/planet9_left.png,9,Community 2,NA,TRUE,f,f,NA,NA,NA,1,6,"1,8,10,5,3,11,9,13,14,15,7,4,12,6,2"
15360,commdev-image-keyboard-response,209,456964,learnblock1,578,img/planet15_left.png,15,Community 2,NA,TRUE,f,f,NA,NA,NA,1,6,"1,8,10,5,3,11,9,13,14,15,7,4,12,6,2"
15360,commdev-image-keyboard-response,210,458222,learnblock1,611,img/planet14_left.png,14,Community 2,NA,TRUE,f,f,NA,NA,NA,1,6,"1,8,10,5,3,11,9,13,14,15,7,4,12,6,2"
15360,commdev-image-keyboard-response,211,459487,learnblock1,436,img/planet13_right.png,13,Community 2,NA,FALSE,f,j,NA,NA,NA,1,6,"1,8,10,5,3,11,9,13,14,15,7,4,12,6,2"
15360,commdev-image-keyboard-response,212,460750,learnblock1,591,img/planet9_right.png,9,Community 2,NA,TRUE,j,j,NA,NA,NA,1,6,"1,8,10,5,3,11,9,13,14,15,7,4,12,6,2"
15360,commdev-image-keyboard-response,213,462009,learnblock1,565,img/planet14_left.png,14,Community 2,NA,TRUE,f,f,NA,NA,NA,1,6,"1,8,10,5,3,11,9,13,14,15,7,4,12,6,2"
15360,commdev-image-keyboard-response,214,463269,learnblock1,565,img/planet9_left.png,9,Community 2,NA,TRUE,f,f,NA,NA,NA,1,6,"1,8,10,5,3,11,9,13,14,15,7,4,12,6,2"
15360,commdev-image-keyboard-response,215,464561,learnblock1,627,img/planet14_left.png,14,Community 2,NA,TRUE,f,f,NA,NA,NA,1,6,"1,8,10,5,3,11,9,13,14,15,7,4,12,6,2"
15360,commdev-image-keyboard-response,216,465821,learnblock1,603,img/planet15_left.png,15,Community 2,NA,TRUE,f,f,NA,NA,NA,1,6,"1,8,10,5,3,11,9,13,14,15,7,4,12,6,2"
15360,commdev-image-keyboard-response,217,467086,learnblock1,446,img/planet11_right.png,11,Community 2,NA,TRUE,j,j,NA,NA,NA,1,6,"1,8,10,5,3,11,9,13,14,15,7,4,12,6,2"
15360,commdev-image-keyboard-response,218,468345,learnblock1,516,img/planet15_right.png,15,Community 2,NA,TRUE,j,j,NA,NA,NA,1,6,"1,8,10,5,3,11,9,13,14,15,7,4,12,6,2"
15360,commdev-image-keyboard-response,219,469606,learnblock1,611,img/planet11_right.png,11,Community 2,NA,TRUE,j,j,NA,NA,NA,1,6,"1,8,10,5,3,11,9,13,14,15,7,4,12,6,2"
15360,commdev-image-keyboard-response,220,470866,learnblock1,551,img/planet15_right.png,15,Community 2,NA,TRUE,j,j,NA,NA,NA,1,6,"1,8,10,5,3,11,9,13,14,15,7,4,12,6,2"
15360,commdev-image-keyboard-response,221,472123,learnblock1,469,img/planet9_left.png,9,Community 2,NA,TRUE,f,f,NA,NA,NA,1,6,"1,8,10,5,3,11,9,13,14,15,7,4,12,6,2"
15360,commdev-image-keyboard-response,222,473379,learnblock1,548,img/planet13_left.png,13,Community 2,NA,TRUE,f,f,NA,NA,NA,1,6,"1,8,10,5,3,11,9,13,14,15,7,4,12,6,2"
15360,commdev-image-keyboard-response,223,474653,learnblock1,760,img/planet4_left.png,4,Community 3,NA,TRUE,f,f,NA,NA,NA,1,6,"1,8,10,5,3,11,9,13,14,15,7,4,12,6,2"
15360,commdev-image-keyboard-response,224,475911,learnblock1,643,img/planet2_left.png,2,Community 3,NA,TRUE,f,f,NA,NA,NA,1,6,"1,8,10,5,3,11,9,13,14,15,7,4,12,6,2"
15360,commdev-image-keyboard-response,225,477171,learnblock1,578,img/planet4_right.png,4,Community 3,NA,TRUE,j,j,NA,NA,NA,1,6,"1,8,10,5,3,11,9,13,14,15,7,4,12,6,2"
15360,commdev-image-keyboard-response,226,478429,learnblock1,694,img/planet12_right.png,12,Community 3,NA,TRUE,j,j,NA,NA,NA,1,6,"1,8,10,5,3,11,9,13,14,15,7,4,12,6,2"
15360,commdev-image-keyboard-response,227,479691,learnblock1,654,img/planet4_left.png,4,Community 3,NA,TRUE,f,f,NA,NA,NA,1,6,"1,8,10,5,3,11,9,13,14,15,7,4,12,6,2"
15360,commdev-image-keyboard-response,228,480949,learnblock1,688,img/planet12_right.png,12,Community 3,NA,TRUE,j,j,NA,NA,NA,1,6,"1,8,10,5,3,11,9,13,14,15,7,4,12,6,2"
15360,commdev-image-keyboard-response,229,482210,learnblock1,664,img/planet2_left.png,2,Community 3,NA,TRUE,f,f,NA,NA,NA,1,6,"1,8,10,5,3,11,9,13,14,15,7,4,12,6,2"
15360,commdev-image-keyboard-response,230,483475,learnblock1,659,img/planet4_left.png,4,Community 3,NA,TRUE,f,f,NA,NA,NA,1,6,"1,8,10,5,3,11,9,13,14,15,7,4,12,6,2"
15360,commdev-image-keyboard-response,231,484752,learnblock1,584,img/planet13_left.png,13,Community 2,NA,TRUE,f,f,NA,NA,NA,1,6,"1,8,10,5,3,11,9,13,14,15,7,4,12,6,2"
15360,commdev-image-keyboard-response,232,486009,learnblock1,531,img/planet4_left.png,4,Community 3,NA,TRUE,f,f,NA,NA,NA,1,6,"1,8,10,5,3,11,9,13,14,15,7,4,12,6,2"
15360,commdev-image-keyboard-response,233,487272,learnblock1,461,img/planet2_left.png,2,Community 3,NA,TRUE,f,f,NA,NA,NA,1,6,"1,8,10,5,3,11,9,13,14,15,7,4,12,6,2"
15360,commdev-image-keyboard-response,234,488529,learnblock1,658,img/planet12_right.png,12,Community 3,NA,TRUE,j,j,NA,NA,NA,1,6,"1,8,10,5,3,11,9,13,14,15,7,4,12,6,2"
15360,commdev-image-keyboard-response,235,489789,learnblock1,730,img/planet2_left.png,2,Community 3,NA,TRUE,f,f,NA,NA,NA,1,6,"1,8,10,5,3,11,9,13,14,15,7,4,12,6,2"
15360,commdev-image-keyboard-response,236,491052,learnblock1,746,img/planet6_right.png,6,Community 3,NA,TRUE,j,j,NA,NA,NA,1,6,"1,8,10,5,3,11,9,13,14,15,7,4,12,6,2"
15360,commdev-image-keyboard-response,237,492311,learnblock1,648,img/planet4_left.png,4,Community 3,NA,TRUE,f,f,NA,NA,NA,1,6,"1,8,10,5,3,11,9,13,14,15,7,4,12,6,2"
15360,commdev-image-keyboard-response,238,493569,learnblock1,690,img/planet13_left.png,13,Community 2,NA,TRUE,f,f,NA,NA,NA,1,6,"1,8,10,5,3,11,9,13,14,15,7,4,12,6,2"
15360,commdev-image-keyboard-response,239,494827,learnblock1,617,img/planet15_right.png,15,Community 2,NA,TRUE,j,j,NA,NA,NA,1,6,"1,8,10,5,3,11,9,13,14,15,7,4,12,6,2"
15360,commdev-image-keyboard-response,240,496084,learnblock1,564,img/planet9_left.png,9,Community 2,NA,TRUE,f,f,NA,NA,NA,1,6,"1,8,10,5,3,11,9,13,14,15,7,4,12,6,2"
15360,commdev-image-keyboard-response,241,497406,learnblock1,547,img/planet13_right.png,13,Community 2,NA,TRUE,j,j,NA,NA,NA,1,6,"1,8,10,5,3,11,9,13,14,15,7,4,12,6,2"
15360,commdev-image-keyboard-response,242,498665,learnblock1,526,img/planet9_left.png,9,Community 2,NA,TRUE,f,f,NA,NA,NA,1,6,"1,8,10,5,3,11,9,13,14,15,7,4,12,6,2"
15360,commdev-image-keyboard-response,243,499938,learnblock1,527,img/planet14_right.png,14,Community 2,NA,TRUE,j,j,NA,NA,NA,1,6,"1,8,10,5,3,11,9,13,14,15,7,4,12,6,2"
15360,commdev-image-keyboard-response,244,501202,learnblock1,591,img/planet11_right.png,11,Community 2,NA,TRUE,j,j,NA,NA,NA,1,6,"1,8,10,5,3,11,9,13,14,15,7,4,12,6,2"
15360,commdev-image-keyboard-response,245,502460,learnblock1,591,img/planet14_right.png,14,Community 2,NA,TRUE,j,j,NA,NA,NA,1,6,"1,8,10,5,3,11,9,13,14,15,7,4,12,6,2"
15360,commdev-image-keyboard-response,246,503727,learnblock1,628,img/planet9_right.png,9,Community 2,NA,TRUE,j,j,NA,NA,NA,1,6,"1,8,10,5,3,11,9,13,14,15,7,4,12,6,2"
15360,commdev-image-keyboard-response,247,504990,learnblock1,579,img/planet15_right.png,15,Community 2,NA,TRUE,j,j,NA,NA,NA,1,6,"1,8,10,5,3,11,9,13,14,15,7,4,12,6,2"
15360,commdev-image-keyboard-response,248,506248,learnblock1,532,img/planet14_right.png,14,Community 2,NA,TRUE,j,j,NA,NA,NA,1,6,"1,8,10,5,3,11,9,13,14,15,7,4,12,6,2"
15360,commdev-image-keyboard-response,249,507506,learnblock1,463,img/planet13_left.png,13,Community 2,NA,TRUE,f,f,NA,NA,NA,1,6,"1,8,10,5,3,11,9,13,14,15,7,4,12,6,2"
15360,commdev-image-keyboard-response,250,508766,learnblock1,459,img/planet9_right.png,9,Community 2,NA,TRUE,j,j,NA,NA,NA,1,6,"1,8,10,5,3,11,9,13,14,15,7,4,12,6,2"
15360,commdev-image-keyboard-response,251,510028,learnblock1,514,img/planet13_right.png,13,Community 2,NA,TRUE,j,j,NA,NA,NA,1,6,"1,8,10,5,3,11,9,13,14,15,7,4,12,6,2"
15360,commdev-image-keyboard-response,252,511284,learnblock1,550,img/planet9_right.png,9,Community 2,NA,TRUE,j,j,NA,NA,NA,1,6,"1,8,10,5,3,11,9,13,14,15,7,4,12,6,2"
15360,commdev-image-keyboard-response,253,512537,learnblock1,775,img/planet15_right.png,15,Community 2,NA,TRUE,j,j,NA,NA,NA,1,6,"1,8,10,5,3,11,9,13,14,15,7,4,12,6,2"
15360,commdev-image-keyboard-response,254,513796,learnblock1,623,img/planet11_left.png,11,Community 2,NA,TRUE,f,f,NA,NA,NA,1,6,"1,8,10,5,3,11,9,13,14,15,7,4,12,6,2"
15360,commdev-image-keyboard-response,255,515054,learnblock1,1105,img/planet9_right.png,9,Community 2,NA,TRUE,j,j,NA,NA,NA,1,6,"1,8,10,5,3,11,9,13,14,15,7,4,12,6,2"
15360,commdev-image-keyboard-response,256,516319,learnblock1,694,img/planet15_left.png,15,Community 2,NA,TRUE,f,f,NA,NA,NA,1,6,"1,8,10,5,3,11,9,13,14,15,7,4,12,6,2"
15360,commdev-image-keyboard-response,257,517580,learnblock1,1015,img/planet14_left.png,14,Community 2,NA,TRUE,f,f,NA,NA,NA,1,6,"1,8,10,5,3,11,9,13,14,15,7,4,12,6,2"
15360,commdev-image-keyboard-response,258,518839,learnblock1,637,img/planet11_right.png,11,Community 2,NA,TRUE,j,j,NA,NA,NA,1,6,"1,8,10,5,3,11,9,13,14,15,7,4,12,6,2"
15360,commdev-image-keyboard-response,259,520099,learnblock1,702,img/planet15_right.png,15,Community 2,NA,TRUE,j,j,NA,NA,NA,1,6,"1,8,10,5,3,11,9,13,14,15,7,4,12,6,2"
15360,commdev-image-keyboard-response,260,521361,learnblock1,599,img/planet9_left.png,9,Community 2,NA,TRUE,f,f,NA,NA,NA,1,6,"1,8,10,5,3,11,9,13,14,15,7,4,12,6,2"
15360,commdev-image-keyboard-response,261,522617,learnblock1,594,img/planet11_left.png,11,Community 2,NA,FALSE,j,f,NA,NA,NA,1,6,"1,8,10,5,3,11,9,13,14,15,7,4,12,6,2"
15360,commdev-image-keyboard-response,262,523878,learnblock1,776,img/planet14_left.png,14,Community 2,NA,TRUE,f,f,NA,NA,NA,1,6,"1,8,10,5,3,11,9,13,14,15,7,4,12,6,2"
15360,commdev-image-keyboard-response,263,525169,learnblock1,646,img/planet11_right.png,11,Community 2,NA,TRUE,j,j,NA,NA,NA,1,6,"1,8,10,5,3,11,9,13,14,15,7,4,12,6,2"
15360,commdev-image-keyboard-response,264,526431,learnblock1,768,img/planet9_right.png,9,Community 2,NA,TRUE,j,j,NA,NA,NA,1,6,"1,8,10,5,3,11,9,13,14,15,7,4,12,6,2"
15360,commdev-image-keyboard-response,265,527691,learnblock1,685,img/planet14_right.png,14,Community 2,NA,TRUE,j,j,NA,NA,NA,1,6,"1,8,10,5,3,11,9,13,14,15,7,4,12,6,2"
15360,commdev-image-keyboard-response,266,528950,learnblock1,621,img/planet15_left.png,15,Community 2,NA,TRUE,f,f,NA,NA,NA,1,6,"1,8,10,5,3,11,9,13,14,15,7,4,12,6,2"
15360,commdev-image-keyboard-response,267,530213,learnblock1,570,img/planet9_right.png,9,Community 2,NA,TRUE,j,j,NA,NA,NA,1,6,"1,8,10,5,3,11,9,13,14,15,7,4,12,6,2"
15360,commdev-image-keyboard-response,268,531471,learnblock1,510,img/planet14_left.png,14,Community 2,NA,TRUE,f,f,NA,NA,NA,1,6,"1,8,10,5,3,11,9,13,14,15,7,4,12,6,2"
15360,commdev-image-keyboard-response,269,532731,learnblock1,549,img/planet11_left.png,11,Community 2,NA,FALSE,j,f,NA,NA,NA,1,6,"1,8,10,5,3,11,9,13,14,15,7,4,12,6,2"
15360,commdev-image-keyboard-response,270,533989,learnblock1,620,img/planet5_right.png,5,Community 1,NA,TRUE,j,j,NA,NA,NA,1,6,"1,8,10,5,3,11,9,13,14,15,7,4,12,6,2"
15360,commdev-image-keyboard-response,271,535279,learnblock1,572,img/planet8_left.png,8,Community 1,NA,TRUE,f,f,NA,NA,NA,1,6,"1,8,10,5,3,11,9,13,14,15,7,4,12,6,2"
15360,commdev-image-keyboard-response,272,536540,learnblock1,587,img/planet5_right.png,5,Community 1,NA,TRUE,j,j,NA,NA,NA,1,6,"1,8,10,5,3,11,9,13,14,15,7,4,12,6,2"
15360,commdev-image-keyboard-response,273,537801,learnblock1,699,img/planet10_right.png,10,Community 1,NA,FALSE,f,j,NA,NA,NA,1,6,"1,8,10,5,3,11,9,13,14,15,7,4,12,6,2"
15360,commdev-image-keyboard-response,274,539061,learnblock1,781,img/planet3_left.png,3,Community 1,NA,TRUE,f,f,NA,NA,NA,1,6,"1,8,10,5,3,11,9,13,14,15,7,4,12,6,2"
15360,commdev-image-keyboard-response,275,540325,learnblock1,722,img/planet1_left.png,1,Community 1,NA,TRUE,f,f,NA,NA,NA,1,6,"1,8,10,5,3,11,9,13,14,15,7,4,12,6,2"
15360,commdev-image-keyboard-response,276,541583,learnblock1,527,img/planet10_left.png,10,Community 1,NA,TRUE,f,f,NA,NA,NA,1,6,"1,8,10,5,3,11,9,13,14,15,7,4,12,6,2"
15360,commdev-image-keyboard-response,277,542842,learnblock1,574,img/planet3_right.png,3,Community 1,NA,TRUE,j,j,NA,NA,NA,1,6,"1,8,10,5,3,11,9,13,14,15,7,4,12,6,2"
15360,commdev-image-keyboard-response,278,544100,learnblock1,759,img/planet7_left.png,7,Community 3,NA,TRUE,f,f,NA,NA,NA,1,6,"1,8,10,5,3,11,9,13,14,15,7,4,12,6,2"
15360,commdev-image-keyboard-response,279,545360,learnblock1,1142,img/planet3_left.png,3,Community 1,NA,TRUE,f,f,NA,NA,NA,1,6,"1,8,10,5,3,11,9,13,14,15,7,4,12,6,2"
15360,commdev-image-keyboard-response,280,546619,learnblock1,831,img/planet7_left.png,7,Community 3,NA,TRUE,f,f,NA,NA,NA,1,6,"1,8,10,5,3,11,9,13,14,15,7,4,12,6,2"
15360,commdev-image-keyboard-response,281,547877,learnblock1,646,img/planet12_right.png,12,Community 3,NA,TRUE,j,j,NA,NA,NA,1,6,"1,8,10,5,3,11,9,13,14,15,7,4,12,6,2"
15360,commdev-image-keyboard-response,282,549137,learnblock1,601,img/planet7_right.png,7,Community 3,NA,TRUE,j,j,NA,NA,NA,1,6,"1,8,10,5,3,11,9,13,14,15,7,4,12,6,2"
15360,commdev-image-keyboard-response,283,550396,learnblock1,647,img/planet2_left.png,2,Community 3,NA,TRUE,f,f,NA,NA,NA,1,6,"1,8,10,5,3,11,9,13,14,15,7,4,12,6,2"
15360,commdev-image-keyboard-response,284,551658,learnblock1,627,img/planet6_right.png,6,Community 3,NA,TRUE,j,j,NA,NA,NA,1,6,"1,8,10,5,3,11,9,13,14,15,7,4,12,6,2"
15360,commdev-image-keyboard-response,285,552919,learnblock1,604,img/planet2_right.png,2,Community 3,NA,TRUE,j,j,NA,NA,NA,1,6,"1,8,10,5,3,11,9,13,14,15,7,4,12,6,2"
15360,commdev-image-keyboard-response,286,554171,learnblock1,692,img/planet7_left.png,7,Community 3,NA,TRUE,f,f,NA,NA,NA,1,6,"1,8,10,5,3,11,9,13,14,15,7,4,12,6,2"
15360,commdev-image-keyboard-response,287,555504,learnblock1,573,img/planet6_right.png,6,Community 3,NA,TRUE,j,j,NA,NA,NA,1,6,"1,8,10,5,3,11,9,13,14,15,7,4,12,6,2"
15360,commdev-image-keyboard-response,288,556765,learnblock1,647,img/planet2_right.png,2,Community 3,NA,TRUE,j,j,NA,NA,NA,1,6,"1,8,10,5,3,11,9,13,14,15,7,4,12,6,2"
15360,commdev-image-keyboard-response,289,558020,learnblock1,738,img/planet7_left.png,7,Community 3,NA,TRUE,f,f,NA,NA,NA,1,6,"1,8,10,5,3,11,9,13,14,15,7,4,12,6,2"
15360,commdev-image-keyboard-response,290,559276,learnblock1,563,img/planet3_right.png,3,Community 1,NA,TRUE,j,j,NA,NA,NA,1,6,"1,8,10,5,3,11,9,13,14,15,7,4,12,6,2"
15360,commdev-image-keyboard-response,291,560536,learnblock1,583,img/planet8_right.png,8,Community 1,NA,TRUE,j,j,NA,NA,NA,1,6,"1,8,10,5,3,11,9,13,14,15,7,4,12,6,2"
15360,commdev-image-keyboard-response,292,561796,learnblock1,776,img/planet10_right.png,10,Community 1,NA,TRUE,j,j,NA,NA,NA,1,6,"1,8,10,5,3,11,9,13,14,15,7,4,12,6,2"
15360,commdev-image-keyboard-response,293,563059,learnblock1,563,img/planet5_right.png,5,Community 1,NA,TRUE,j,j,NA,NA,NA,1,6,"1,8,10,5,3,11,9,13,14,15,7,4,12,6,2"
15360,commdev-image-keyboard-response,294,564320,learnblock1,687,img/planet11_right.png,11,Community 2,NA,TRUE,j,j,NA,NA,NA,1,6,"1,8,10,5,3,11,9,13,14,15,7,4,12,6,2"
15360,commdev-image-keyboard-response,295,565593,learnblock1,678,img/planet15_right.png,15,Community 2,NA,TRUE,j,j,NA,NA,NA,1,6,"1,8,10,5,3,11,9,13,14,15,7,4,12,6,2"
15360,commdev-image-keyboard-response,296,566851,learnblock1,683,img/planet11_right.png,11,Community 2,NA,TRUE,j,j,NA,NA,NA,1,6,"1,8,10,5,3,11,9,13,14,15,7,4,12,6,2"
15360,commdev-image-keyboard-response,297,568116,learnblock1,739,img/planet14_left.png,14,Community 2,NA,TRUE,f,f,NA,NA,NA,1,6,"1,8,10,5,3,11,9,13,14,15,7,4,12,6,2"
15360,commdev-image-keyboard-response,298,569376,learnblock1,622,img/planet9_left.png,9,Community 2,NA,TRUE,f,f,NA,NA,NA,1,6,"1,8,10,5,3,11,9,13,14,15,7,4,12,6,2"
15360,commdev-image-keyboard-response,299,570636,learnblock1,635,img/planet14_left.png,14,Community 2,NA,TRUE,f,f,NA,NA,NA,1,6,"1,8,10,5,3,11,9,13,14,15,7,4,12,6,2"
15360,commdev-image-keyboard-response,300,571898,learnblock1,603,img/planet15_right.png,15,Community 2,NA,TRUE,j,j,NA,NA,NA,1,6,"1,8,10,5,3,11,9,13,14,15,7,4,12,6,2"
15360,commdev-image-keyboard-response,301,573162,learnblock1,556,img/planet13_left.png,13,Community 2,NA,TRUE,f,f,NA,NA,NA,1,6,"1,8,10,5,3,11,9,13,14,15,7,4,12,6,2"
15360,commdev-image-keyboard-response,302,574470,learnblock1,679,img/planet15_right.png,15,Community 2,NA,TRUE,j,j,NA,NA,NA,1,6,"1,8,10,5,3,11,9,13,14,15,7,4,12,6,2"
15360,commdev-image-keyboard-response,303,575732,learnblock1,565,img/planet14_right.png,14,Community 2,NA,TRUE,j,j,NA,NA,NA,1,6,"1,8,10,5,3,11,9,13,14,15,7,4,12,6,2"
15360,commdev-image-keyboard-response,304,577050,learnblock1,547,img/planet13_left.png,13,Community 2,NA,TRUE,f,f,NA,NA,NA,1,6,"1,8,10,5,3,11,9,13,14,15,7,4,12,6,2"
15360,commdev-image-keyboard-response,305,578309,learnblock1,661,img/planet14_left.png,14,Community 2,NA,TRUE,f,f,NA,NA,NA,1,6,"1,8,10,5,3,11,9,13,14,15,7,4,12,6,2"
15360,commdev-image-keyboard-response,306,579569,learnblock1,573,img/planet11_right.png,11,Community 2,NA,TRUE,j,j,NA,NA,NA,1,6,"1,8,10,5,3,11,9,13,14,15,7,4,12,6,2"
15360,commdev-image-keyboard-response,307,580836,learnblock1,700,img/planet5_left.png,5,Community 1,NA,TRUE,f,f,NA,NA,NA,1,6,"1,8,10,5,3,11,9,13,14,15,7,4,12,6,2"
15360,commdev-image-keyboard-response,308,582101,learnblock1,578,img/planet8_right.png,8,Community 1,NA,TRUE,j,j,NA,NA,NA,1,6,"1,8,10,5,3,11,9,13,14,15,7,4,12,6,2"
15360,commdev-image-keyboard-response,309,583364,learnblock1,586,img/planet10_left.png,10,Community 1,NA,TRUE,f,f,NA,NA,NA,1,6,"1,8,10,5,3,11,9,13,14,15,7,4,12,6,2"
15360,commdev-image-keyboard-response,310,584623,learnblock1,689,img/planet5_left.png,5,Community 1,NA,TRUE,f,f,NA,NA,NA,1,6,"1,8,10,5,3,11,9,13,14,15,7,4,12,6,2"
15360,commdev-image-keyboard-response,311,585880,learnblock1,543,img/planet8_right.png,8,Community 1,NA,TRUE,j,j,NA,NA,NA,1,6,"1,8,10,5,3,11,9,13,14,15,7,4,12,6,2"
15360,commdev-image-keyboard-response,312,587142,learnblock1,549,img/planet5_left.png,5,Community 1,NA,TRUE,f,f,NA,NA,NA,1,6,"1,8,10,5,3,11,9,13,14,15,7,4,12,6,2"
15360,commdev-image-keyboard-response,313,588434,learnblock1,611,img/planet11_right.png,11,Community 2,NA,TRUE,j,j,NA,NA,NA,1,6,"1,8,10,5,3,11,9,13,14,15,7,4,12,6,2"
15360,commdev-image-keyboard-response,314,589695,learnblock1,540,img/planet5_right.png,5,Community 1,NA,TRUE,j,j,NA,NA,NA,1,6,"1,8,10,5,3,11,9,13,14,15,7,4,12,6,2"
15360,commdev-image-keyboard-response,315,590974,learnblock1,597,img/planet8_left.png,8,Community 1,NA,TRUE,f,f,NA,NA,NA,1,6,"1,8,10,5,3,11,9,13,14,15,7,4,12,6,2"
15360,commdev-image-keyboard-response,316,592236,learnblock1,537,img/planet10_right.png,10,Community 1,NA,FALSE,f,j,NA,NA,NA,1,6,"1,8,10,5,3,11,9,13,14,15,7,4,12,6,2"
15360,commdev-image-keyboard-response,317,593499,learnblock1,745,img/planet8_left.png,8,Community 1,NA,TRUE,f,f,NA,NA,NA,1,6,"1,8,10,5,3,11,9,13,14,15,7,4,12,6,2"
15360,commdev-image-keyboard-response,318,594756,learnblock1,890,img/planet5_right.png,5,Community 1,NA,TRUE,j,j,NA,NA,NA,1,6,"1,8,10,5,3,11,9,13,14,15,7,4,12,6,2"
15360,commdev-image-keyboard-response,319,596014,learnblock1,836,img/planet1_right.png,1,Community 1,NA,TRUE,j,j,NA,NA,NA,1,6,"1,8,10,5,3,11,9,13,14,15,7,4,12,6,2"
15360,commdev-image-keyboard-response,320,597272,learnblock1,607,img/planet10_right.png,10,Community 1,NA,TRUE,j,j,NA,NA,NA,1,6,"1,8,10,5,3,11,9,13,14,15,7,4,12,6,2"
15360,commdev-image-keyboard-response,321,598528,learnblock1,658,img/planet1_left.png,1,Community 1,NA,TRUE,f,f,NA,NA,NA,1,6,"1,8,10,5,3,11,9,13,14,15,7,4,12,6,2"
15360,commdev-image-keyboard-response,322,599788,learnblock1,592,img/planet3_right.png,3,Community 1,NA,TRUE,j,j,NA,NA,NA,1,6,"1,8,10,5,3,11,9,13,14,15,7,4,12,6,2"
15360,commdev-image-keyboard-response,323,601050,learnblock1,744,img/planet10_right.png,10,Community 1,NA,TRUE,j,j,NA,NA,NA,1,6,"1,8,10,5,3,11,9,13,14,15,7,4,12,6,2"
15360,commdev-image-keyboard-response,324,602311,learnblock1,569,img/planet5_right.png,5,Community 1,NA,TRUE,j,j,NA,NA,NA,1,6,"1,8,10,5,3,11,9,13,14,15,7,4,12,6,2"
15360,commdev-image-keyboard-response,325,603572,learnblock1,540,img/planet1_right.png,1,Community 1,NA,TRUE,j,j,NA,NA,NA,1,6,"1,8,10,5,3,11,9,13,14,15,7,4,12,6,2"
15360,commdev-image-keyboard-response,326,604829,learnblock1,550,img/planet8_right.png,8,Community 1,NA,TRUE,j,j,NA,NA,NA,1,6,"1,8,10,5,3,11,9,13,14,15,7,4,12,6,2"
15360,commdev-image-keyboard-response,327,606086,learnblock1,751,img/planet5_left.png,5,Community 1,NA,TRUE,f,f,NA,NA,NA,1,6,"1,8,10,5,3,11,9,13,14,15,7,4,12,6,2"
15360,commdev-image-keyboard-response,328,607348,learnblock1,738,img/planet1_left.png,1,Community 1,NA,FALSE,j,f,NA,NA,NA,1,6,"1,8,10,5,3,11,9,13,14,15,7,4,12,6,2"
15360,commdev-image-keyboard-response,329,608605,learnblock1,693,img/planet3_right.png,3,Community 1,NA,TRUE,j,j,NA,NA,NA,1,6,"1,8,10,5,3,11,9,13,14,15,7,4,12,6,2"
15360,commdev-image-keyboard-response,330,609864,learnblock1,737,img/planet8_left.png,8,Community 1,NA,TRUE,f,f,NA,NA,NA,1,6,"1,8,10,5,3,11,9,13,14,15,7,4,12,6,2"
15360,commdev-image-keyboard-response,331,611123,learnblock1,532,img/planet5_left.png,5,Community 1,NA,TRUE,f,f,NA,NA,NA,1,6,"1,8,10,5,3,11,9,13,14,15,7,4,12,6,2"
15360,commdev-image-keyboard-response,332,612383,learnblock1,620,img/planet8_left.png,8,Community 1,NA,TRUE,f,f,NA,NA,NA,1,6,"1,8,10,5,3,11,9,13,14,15,7,4,12,6,2"
15360,commdev-image-keyboard-response,333,613642,learnblock1,497,img/planet10_left.png,10,Community 1,NA,TRUE,f,f,NA,NA,NA,1,6,"1,8,10,5,3,11,9,13,14,15,7,4,12,6,2"
15360,commdev-image-keyboard-response,334,614898,learnblock1,634,img/planet5_right.png,5,Community 1,NA,TRUE,j,j,NA,NA,NA,1,6,"1,8,10,5,3,11,9,13,14,15,7,4,12,6,2"
15360,commdev-image-keyboard-response,335,616158,learnblock1,544,img/planet1_left.png,1,Community 1,NA,TRUE,f,f,NA,NA,NA,1,6,"1,8,10,5,3,11,9,13,14,15,7,4,12,6,2"
15360,commdev-image-keyboard-response,336,617419,learnblock1,564,img/planet5_right.png,5,Community 1,NA,TRUE,j,j,NA,NA,NA,1,6,"1,8,10,5,3,11,9,13,14,15,7,4,12,6,2"
15360,commdev-image-keyboard-response,337,618681,learnblock1,605,img/planet1_right.png,1,Community 1,NA,TRUE,j,j,NA,NA,NA,1,6,"1,8,10,5,3,11,9,13,14,15,7,4,12,6,2"
15360,commdev-image-keyboard-response,338,619945,learnblock1,740,img/planet8_left.png,8,Community 1,NA,TRUE,f,f,NA,NA,NA,1,6,"1,8,10,5,3,11,9,13,14,15,7,4,12,6,2"
15360,commdev-image-keyboard-response,339,621205,learnblock1,748,img/planet3_left.png,3,Community 1,NA,TRUE,f,f,NA,NA,NA,1,6,"1,8,10,5,3,11,9,13,14,15,7,4,12,6,2"
15360,commdev-image-keyboard-response,340,622470,learnblock1,821,img/planet7_right.png,7,Community 3,NA,TRUE,j,j,NA,NA,NA,1,6,"1,8,10,5,3,11,9,13,14,15,7,4,12,6,2"
15360,commdev-image-keyboard-response,341,623749,learnblock1,812,img/planet2_right.png,2,Community 3,NA,TRUE,j,j,NA,NA,NA,1,6,"1,8,10,5,3,11,9,13,14,15,7,4,12,6,2"
15360,commdev-image-keyboard-response,342,625012,learnblock1,763,img/planet4_right.png,4,Community 3,NA,TRUE,j,j,NA,NA,NA,1,6,"1,8,10,5,3,11,9,13,14,15,7,4,12,6,2"
15360,commdev-image-keyboard-response,343,626272,learnblock1,750,img/planet12_right.png,12,Community 3,NA,TRUE,j,j,NA,NA,NA,1,6,"1,8,10,5,3,11,9,13,14,15,7,4,12,6,2"
15360,commdev-image-keyboard-response,344,627532,learnblock1,749,img/planet7_left.png,7,Community 3,NA,TRUE,f,f,NA,NA,NA,1,6,"1,8,10,5,3,11,9,13,14,15,7,4,12,6,2"
15360,commdev-image-keyboard-response,345,628791,learnblock1,769,img/planet6_right.png,6,Community 3,NA,TRUE,j,j,NA,NA,NA,1,6,"1,8,10,5,3,11,9,13,14,15,7,4,12,6,2"
15360,commdev-image-keyboard-response,346,630049,learnblock1,762,img/planet7_right.png,7,Community 3,NA,TRUE,j,j,NA,NA,NA,1,6,"1,8,10,5,3,11,9,13,14,15,7,4,12,6,2"
15360,commdev-image-keyboard-response,347,631307,learnblock1,684,img/planet12_right.png,12,Community 3,NA,TRUE,j,j,NA,NA,NA,1,6,"1,8,10,5,3,11,9,13,14,15,7,4,12,6,2"
15360,commdev-image-keyboard-response,351,665250,learnblock2,561,img/planet6_right.png,6,Community 3,NA,TRUE,j,j,NA,NA,NA,1,6,"1,8,10,5,3,11,9,13,14,15,7,4,12,6,2"
15360,commdev-image-keyboard-response,352,666513,learnblock2,628,img/planet12_left.png,12,Community 3,NA,TRUE,f,f,NA,NA,NA,1,6,"1,8,10,5,3,11,9,13,14,15,7,4,12,6,2"
15360,commdev-image-keyboard-response,353,667769,learnblock2,499,img/planet6_right.png,6,Community 3,NA,TRUE,j,j,NA,NA,NA,1,6,"1,8,10,5,3,11,9,13,14,15,7,4,12,6,2"
15360,commdev-image-keyboard-response,354,669029,learnblock2,615,img/planet2_right.png,2,Community 3,NA,TRUE,j,j,NA,NA,NA,1,6,"1,8,10,5,3,11,9,13,14,15,7,4,12,6,2"
15360,commdev-image-keyboard-response,355,670289,learnblock2,552,img/planet4_right.png,4,Community 3,NA,TRUE,j,j,NA,NA,NA,1,6,"1,8,10,5,3,11,9,13,14,15,7,4,12,6,2"
15360,commdev-image-keyboard-response,356,671549,learnblock2,504,img/planet13_right.png,13,Community 2,NA,TRUE,j,j,NA,NA,NA,1,6,"1,8,10,5,3,11,9,13,14,15,7,4,12,6,2"
15360,commdev-image-keyboard-response,357,672810,learnblock2,477,img/planet14_right.png,14,Community 2,NA,TRUE,j,j,NA,NA,NA,1,6,"1,8,10,5,3,11,9,13,14,15,7,4,12,6,2"
15360,commdev-image-keyboard-response,358,674069,learnblock2,500,img/planet13_right.png,13,Community 2,NA,TRUE,j,j,NA,NA,NA,1,6,"1,8,10,5,3,11,9,13,14,15,7,4,12,6,2"
15360,commdev-image-keyboard-response,359,675329,learnblock2,466,img/planet14_right.png,14,Community 2,NA,TRUE,j,j,NA,NA,NA,1,6,"1,8,10,5,3,11,9,13,14,15,7,4,12,6,2"
15360,commdev-image-keyboard-response,360,676588,learnblock2,508,img/planet15_left.png,15,Community 2,NA,TRUE,f,f,NA,NA,NA,1,6,"1,8,10,5,3,11,9,13,14,15,7,4,12,6,2"
15360,commdev-image-keyboard-response,361,677846,learnblock2,476,img/planet9_right.png,9,Community 2,NA,TRUE,j,j,NA,NA,NA,1,6,"1,8,10,5,3,11,9,13,14,15,7,4,12,6,2"
15360,commdev-image-keyboard-response,362,679109,learnblock2,725,img/planet14_right.png,14,Community 2,NA,TRUE,j,j,NA,NA,NA,1,6,"1,8,10,5,3,11,9,13,14,15,7,4,12,6,2"
15360,commdev-image-keyboard-response,363,680371,learnblock2,597,img/planet9_left.png,9,Community 2,NA,TRUE,f,f,NA,NA,NA,1,6,"1,8,10,5,3,11,9,13,14,15,7,4,12,6,2"
15360,commdev-image-keyboard-response,364,681631,learnblock2,598,img/planet11_right.png,11,Community 2,NA,TRUE,j,j,NA,NA,NA,1,6,"1,8,10,5,3,11,9,13,14,15,7,4,12,6,2"
15360,commdev-image-keyboard-response,365,682890,learnblock2,609,img/planet5_right.png,5,Community 1,NA,TRUE,j,j,NA,NA,NA,1,6,"1,8,10,5,3,11,9,13,14,15,7,4,12,6,2"
15360,commdev-image-keyboard-response,366,684145,learnblock2,764,img/planet10_right.png,10,Community 1,NA,TRUE,j,j,NA,NA,NA,1,6,"1,8,10,5,3,11,9,13,14,15,7,4,12,6,2"
15360,commdev-image-keyboard-response,367,685408,learnblock2,598,img/planet5_left.png,5,Community 1,NA,TRUE,f,f,NA,NA,NA,1,6,"1,8,10,5,3,11,9,13,14,15,7,4,12,6,2"
15360,commdev-image-keyboard-response,368,686671,learnblock2,561,img/planet1_left.png,1,Community 1,NA,TRUE,f,f,NA,NA,NA,1,6,"1,8,10,5,3,11,9,13,14,15,7,4,12,6,2"
15360,commdev-image-keyboard-response,369,687930,learnblock2,478,img/planet10_right.png,10,Community 1,NA,TRUE,j,j,NA,NA,NA,1,6,"1,8,10,5,3,11,9,13,14,15,7,4,12,6,2"
15360,commdev-image-keyboard-response,370,689190,learnblock2,703,img/planet3_left.png,3,Community 1,NA,TRUE,f,f,NA,NA,NA,1,6,"1,8,10,5,3,11,9,13,14,15,7,4,12,6,2"
15360,commdev-image-keyboard-response,371,690441,learnblock2,666,img/planet7_left.png,7,Community 3,NA,TRUE,f,f,NA,NA,NA,1,6,"1,8,10,5,3,11,9,13,14,15,7,4,12,6,2"
15360,commdev-image-keyboard-response,372,691703,learnblock2,640,img/planet12_left.png,12,Community 3,NA,TRUE,f,f,NA,NA,NA,1,6,"1,8,10,5,3,11,9,13,14,15,7,4,12,6,2"
15360,commdev-image-keyboard-response,373,692963,learnblock2,541,img/planet6_right.png,6,Community 3,NA,TRUE,j,j,NA,NA,NA,1,6,"1,8,10,5,3,11,9,13,14,15,7,4,12,6,2"
15360,commdev-image-keyboard-response,374,694256,learnblock2,581,img/planet2_left.png,2,Community 3,NA,TRUE,f,f,NA,NA,NA,1,6,"1,8,10,5,3,11,9,13,14,15,7,4,12,6,2"
15360,commdev-image-keyboard-response,375,695517,learnblock2,674,img/planet6_right.png,6,Community 3,NA,TRUE,j,j,NA,NA,NA,1,6,"1,8,10,5,3,11,9,13,14,15,7,4,12,6,2"
15360,commdev-image-keyboard-response,376,696776,learnblock2,816,img/planet7_left.png,7,Community 3,NA,TRUE,f,f,NA,NA,NA,1,6,"1,8,10,5,3,11,9,13,14,15,7,4,12,6,2"
15360,commdev-image-keyboard-response,377,698036,learnblock2,612,img/planet12_left.png,12,Community 3,NA,TRUE,f,f,NA,NA,NA,1,6,"1,8,10,5,3,11,9,13,14,15,7,4,12,6,2"
15360,commdev-image-keyboard-response,378,699295,learnblock2,628,img/planet4_left.png,4,Community 3,NA,TRUE,f,f,NA,NA,NA,1,6,"1,8,10,5,3,11,9,13,14,15,7,4,12,6,2"
15360,commdev-image-keyboard-response,379,700556,learnblock2,560,img/planet13_left.png,13,Community 2,NA,TRUE,f,f,NA,NA,NA,1,6,"1,8,10,5,3,11,9,13,14,15,7,4,12,6,2"
15360,commdev-image-keyboard-response,380,701817,learnblock2,508,img/planet14_left.png,14,Community 2,NA,TRUE,f,f,NA,NA,NA,1,6,"1,8,10,5,3,11,9,13,14,15,7,4,12,6,2"
15360,commdev-image-keyboard-response,381,703077,learnblock2,642,img/planet9_left.png,9,Community 2,NA,TRUE,f,f,NA,NA,NA,1,6,"1,8,10,5,3,11,9,13,14,15,7,4,12,6,2"
15360,commdev-image-keyboard-response,382,704340,learnblock2,562,img/planet11_right.png,11,Community 2,NA,TRUE,j,j,NA,NA,NA,1,6,"1,8,10,5,3,11,9,13,14,15,7,4,12,6,2"
15360,commdev-image-keyboard-response,383,705601,learnblock2,575,img/planet15_left.png,15,Community 2,NA,TRUE,f,f,NA,NA,NA,1,6,"1,8,10,5,3,11,9,13,14,15,7,4,12,6,2"
15360,commdev-image-keyboard-response,384,706862,learnblock2,594,img/planet13_left.png,13,Community 2,NA,TRUE,f,f,NA,NA,NA,1,6,"1,8,10,5,3,11,9,13,14,15,7,4,12,6,2"
15360,commdev-image-keyboard-response,385,708121,learnblock2,499,img/planet4_right.png,4,Community 3,NA,TRUE,j,j,NA,NA,NA,1,6,"1,8,10,5,3,11,9,13,14,15,7,4,12,6,2"
15360,commdev-image-keyboard-response,386,709379,learnblock2,542,img/planet2_right.png,2,Community 3,NA,TRUE,j,j,NA,NA,NA,1,6,"1,8,10,5,3,11,9,13,14,15,7,4,12,6,2"
15360,commdev-image-keyboard-response,387,710643,learnblock2,713,img/planet4_left.png,4,Community 3,NA,TRUE,f,f,NA,NA,NA,1,6,"1,8,10,5,3,11,9,13,14,15,7,4,12,6,2"
15360,commdev-image-keyboard-response,388,711903,learnblock2,541,img/planet6_left.png,6,Community 3,NA,TRUE,f,f,NA,NA,NA,1,6,"1,8,10,5,3,11,9,13,14,15,7,4,12,6,2"
15360,commdev-image-keyboard-response,389,713162,learnblock2,548,img/planet2_left.png,2,Community 3,NA,TRUE,f,f,NA,NA,NA,1,6,"1,8,10,5,3,11,9,13,14,15,7,4,12,6,2"
15360,commdev-image-keyboard-response,390,714454,learnblock2,650,img/planet6_left.png,6,Community 3,NA,TRUE,f,f,NA,NA,NA,1,6,"1,8,10,5,3,11,9,13,14,15,7,4,12,6,2"
15360,commdev-image-keyboard-response,391,715714,learnblock2,522,img/planet2_left.png,2,Community 3,NA,TRUE,f,f,NA,NA,NA,1,6,"1,8,10,5,3,11,9,13,14,15,7,4,12,6,2"
15360,commdev-image-keyboard-response,392,716974,learnblock2,506,img/planet12_left.png,12,Community 3,NA,TRUE,f,f,NA,NA,NA,1,6,"1,8,10,5,3,11,9,13,14,15,7,4,12,6,2"
15360,commdev-image-keyboard-response,393,718235,learnblock2,473,img/planet4_right.png,4,Community 3,NA,TRUE,j,j,NA,NA,NA,1,6,"1,8,10,5,3,11,9,13,14,15,7,4,12,6,2"
15360,commdev-image-keyboard-response,394,719495,learnblock2,430,img/planet6_right.png,6,Community 3,NA,TRUE,j,j,NA,NA,NA,1,6,"1,8,10,5,3,11,9,13,14,15,7,4,12,6,2"
15360,commdev-image-keyboard-response,395,720756,learnblock2,645,img/planet7_left.png,7,Community 3,NA,TRUE,f,f,NA,NA,NA,1,6,"1,8,10,5,3,11,9,13,14,15,7,4,12,6,2"
15360,commdev-image-keyboard-response,396,722019,learnblock2,548,img/planet12_left.png,12,Community 3,NA,TRUE,f,f,NA,NA,NA,1,6,"1,8,10,5,3,11,9,13,14,15,7,4,12,6,2"
15360,commdev-image-keyboard-response,397,723276,learnblock2,438,img/planet6_left.png,6,Community 3,NA,TRUE,f,f,NA,NA,NA,1,6,"1,8,10,5,3,11,9,13,14,15,7,4,12,6,2"
15360,commdev-image-keyboard-response,398,724535,learnblock2,480,img/planet2_left.png,2,Community 3,NA,TRUE,f,f,NA,NA,NA,1,6,"1,8,10,5,3,11,9,13,14,15,7,4,12,6,2"
15360,commdev-image-keyboard-response,399,725794,learnblock2,581,img/planet7_right.png,7,Community 3,NA,TRUE,j,j,NA,NA,NA,1,6,"1,8,10,5,3,11,9,13,14,15,7,4,12,6,2"
15360,commdev-image-keyboard-response,400,727053,learnblock2,620,img/planet12_left.png,12,Community 3,NA,TRUE,f,f,NA,NA,NA,1,6,"1,8,10,5,3,11,9,13,14,15,7,4,12,6,2"
15360,commdev-image-keyboard-response,401,728313,learnblock2,517,img/planet6_right.png,6,Community 3,NA,TRUE,j,j,NA,NA,NA,1,6,"1,8,10,5,3,11,9,13,14,15,7,4,12,6,2"
15360,commdev-image-keyboard-response,402,729575,learnblock2,522,img/planet12_right.png,12,Community 3,NA,TRUE,j,j,NA,NA,NA,1,6,"1,8,10,5,3,11,9,13,14,15,7,4,12,6,2"
15360,commdev-image-keyboard-response,403,730849,learnblock2,586,img/planet7_left.png,7,Community 3,NA,TRUE,f,f,NA,NA,NA,1,6,"1,8,10,5,3,11,9,13,14,15,7,4,12,6,2"
15360,commdev-image-keyboard-response,404,732112,learnblock2,586,img/planet6_left.png,6,Community 3,NA,TRUE,f,f,NA,NA,NA,1,6,"1,8,10,5,3,11,9,13,14,15,7,4,12,6,2"
15360,commdev-image-keyboard-response,405,733374,learnblock2,560,img/planet7_left.png,7,Community 3,NA,TRUE,f,f,NA,NA,NA,1,6,"1,8,10,5,3,11,9,13,14,15,7,4,12,6,2"
15360,commdev-image-keyboard-response,406,734631,learnblock2,559,img/planet12_right.png,12,Community 3,NA,FALSE,f,j,NA,NA,NA,1,6,"1,8,10,5,3,11,9,13,14,15,7,4,12,6,2"
15360,commdev-image-keyboard-response,407,735895,learnblock2,704,img/planet4_left.png,4,Community 3,NA,TRUE,f,f,NA,NA,NA,1,6,"1,8,10,5,3,11,9,13,14,15,7,4,12,6,2"
15360,commdev-image-keyboard-response,408,737150,learnblock2,591,img/planet2_right.png,2,Community 3,NA,TRUE,j,j,NA,NA,NA,1,6,"1,8,10,5,3,11,9,13,14,15,7,4,12,6,2"
15360,commdev-image-keyboard-response,409,738410,learnblock2,612,img/planet6_left.png,6,Community 3,NA,TRUE,f,f,NA,NA,NA,1,6,"1,8,10,5,3,11,9,13,14,15,7,4,12,6,2"
15360,commdev-image-keyboard-response,410,739666,learnblock2,612,img/planet12_left.png,12,Community 3,NA,TRUE,f,f,NA,NA,NA,1,6,"1,8,10,5,3,11,9,13,14,15,7,4,12,6,2"
15360,commdev-image-keyboard-response,411,740927,learnblock2,506,img/planet4_left.png,4,Community 3,NA,TRUE,f,f,NA,NA,NA,1,6,"1,8,10,5,3,11,9,13,14,15,7,4,12,6,2"
15360,commdev-image-keyboard-response,412,742191,learnblock2,489,img/planet13_right.png,13,Community 2,NA,TRUE,j,j,NA,NA,NA,1,6,"1,8,10,5,3,11,9,13,14,15,7,4,12,6,2"
15360,commdev-image-keyboard-response,413,743450,learnblock2,414,img/planet9_right.png,9,Community 2,NA,TRUE,j,j,NA,NA,NA,1,6,"1,8,10,5,3,11,9,13,14,15,7,4,12,6,2"
15360,commdev-image-keyboard-response,414,744706,learnblock2,748,img/planet13_right.png,13,Community 2,NA,TRUE,j,j,NA,NA,NA,1,6,"1,8,10,5,3,11,9,13,14,15,7,4,12,6,2"
15360,commdev-image-keyboard-response,415,745968,learnblock2,596,img/planet15_left.png,15,Community 2,NA,TRUE,f,f,NA,NA,NA,1,6,"1,8,10,5,3,11,9,13,14,15,7,4,12,6,2"
15360,commdev-image-keyboard-response,416,747228,learnblock2,576,img/planet11_left.png,11,Community 2,NA,TRUE,f,f,NA,NA,NA,1,6,"1,8,10,5,3,11,9,13,14,15,7,4,12,6,2"
15360,commdev-image-keyboard-response,417,748549,learnblock2,691,img/planet15_left.png,15,Community 2,NA,TRUE,f,f,NA,NA,NA,1,6,"1,8,10,5,3,11,9,13,14,15,7,4,12,6,2"
15360,commdev-image-keyboard-response,418,749809,learnblock2,555,img/planet13_left.png,13,Community 2,NA,TRUE,f,f,NA,NA,NA,1,6,"1,8,10,5,3,11,9,13,14,15,7,4,12,6,2"
15360,commdev-image-keyboard-response,419,751115,learnblock2,573,img/planet14_right.png,14,Community 2,NA,TRUE,j,j,NA,NA,NA,1,6,"1,8,10,5,3,11,9,13,14,15,7,4,12,6,2"
15360,commdev-image-keyboard-response,420,752376,learnblock2,546,img/planet9_right.png,9,Community 2,NA,TRUE,j,j,NA,NA,NA,1,6,"1,8,10,5,3,11,9,13,14,15,7,4,12,6,2"
15360,commdev-image-keyboard-response,421,753667,learnblock2,362,img/planet15_right.png,15,Community 2,NA,TRUE,j,j,NA,NA,NA,1,6,"1,8,10,5,3,11,9,13,14,15,7,4,12,6,2"
15360,commdev-image-keyboard-response,422,754929,learnblock2,683,img/planet14_left.png,14,Community 2,NA,TRUE,f,f,NA,NA,NA,1,6,"1,8,10,5,3,11,9,13,14,15,7,4,12,6,2"
15360,commdev-image-keyboard-response,423,756191,learnblock2,537,img/planet13_left.png,13,Community 2,NA,TRUE,f,f,NA,NA,NA,1,6,"1,8,10,5,3,11,9,13,14,15,7,4,12,6,2"
15360,commdev-image-keyboard-response,424,757450,learnblock2,501,img/planet9_right.png,9,Community 2,NA,TRUE,j,j,NA,NA,NA,1,6,"1,8,10,5,3,11,9,13,14,15,7,4,12,6,2"
15360,commdev-image-keyboard-response,425,758709,learnblock2,708,img/planet15_left.png,15,Community 2,NA,TRUE,f,f,NA,NA,NA,1,6,"1,8,10,5,3,11,9,13,14,15,7,4,12,6,2"
15360,commdev-image-keyboard-response,426,759972,learnblock2,591,img/planet9_left.png,9,Community 2,NA,FALSE,j,f,NA,NA,NA,1,6,"1,8,10,5,3,11,9,13,14,15,7,4,12,6,2"
15360,commdev-image-keyboard-response,427,761231,learnblock2,542,img/planet13_right.png,13,Community 2,NA,TRUE,j,j,NA,NA,NA,1,6,"1,8,10,5,3,11,9,13,14,15,7,4,12,6,2"
15360,commdev-image-keyboard-response,428,762494,learnblock2,560,img/planet15_right.png,15,Community 2,NA,TRUE,j,j,NA,NA,NA,1,6,"1,8,10,5,3,11,9,13,14,15,7,4,12,6,2"
15360,commdev-image-keyboard-response,429,763751,learnblock2,490,img/planet9_right.png,9,Community 2,NA,TRUE,j,j,NA,NA,NA,1,6,"1,8,10,5,3,11,9,13,14,15,7,4,12,6,2"
15360,commdev-image-keyboard-response,430,765010,learnblock2,432,img/planet13_right.png,13,Community 2,NA,TRUE,j,j,NA,NA,NA,1,6,"1,8,10,5,3,11,9,13,14,15,7,4,12,6,2"
15360,commdev-image-keyboard-response,431,766266,learnblock2,511,img/planet15_right.png,15,Community 2,NA,TRUE,j,j,NA,NA,NA,1,6,"1,8,10,5,3,11,9,13,14,15,7,4,12,6,2"
15360,commdev-image-keyboard-response,432,767526,learnblock2,645,img/planet13_left.png,13,Community 2,NA,TRUE,f,f,NA,NA,NA,1,6,"1,8,10,5,3,11,9,13,14,15,7,4,12,6,2"
15360,commdev-image-keyboard-response,433,768786,learnblock2,464,img/planet15_left.png,15,Community 2,NA,TRUE,f,f,NA,NA,NA,1,6,"1,8,10,5,3,11,9,13,14,15,7,4,12,6,2"
15360,commdev-image-keyboard-response,434,770049,learnblock2,631,img/planet13_right.png,13,Community 2,NA,TRUE,j,j,NA,NA,NA,1,6,"1,8,10,5,3,11,9,13,14,15,7,4,12,6,2"
15360,commdev-image-keyboard-response,435,771311,learnblock2,426,img/planet4_right.png,4,Community 3,NA,TRUE,j,j,NA,NA,NA,1,6,"1,8,10,5,3,11,9,13,14,15,7,4,12,6,2"
15360,commdev-image-keyboard-response,436,772569,learnblock2,499,img/planet12_right.png,12,Community 3,NA,TRUE,j,j,NA,NA,NA,1,6,"1,8,10,5,3,11,9,13,14,15,7,4,12,6,2"
15360,commdev-image-keyboard-response,437,773824,learnblock2,513,img/planet7_left.png,7,Community 3,NA,FALSE,j,f,NA,NA,NA,1,6,"1,8,10,5,3,11,9,13,14,15,7,4,12,6,2"
15360,commdev-image-keyboard-response,438,775079,learnblock2,1015,img/planet3_left.png,3,Community 1,NA,TRUE,f,f,NA,NA,NA,1,6,"1,8,10,5,3,11,9,13,14,15,7,4,12,6,2"
15360,commdev-image-keyboard-response,439,776334,learnblock2,709,img/planet7_left.png,7,Community 3,NA,TRUE,f,f,NA,NA,NA,1,6,"1,8,10,5,3,11,9,13,14,15,7,4,12,6,2"
15360,commdev-image-keyboard-response,440,777591,learnblock2,578,img/planet3_left.png,3,Community 1,NA,TRUE,f,f,NA,NA,NA,1,6,"1,8,10,5,3,11,9,13,14,15,7,4,12,6,2"
15360,commdev-image-keyboard-response,441,778854,learnblock2,641,img/planet7_left.png,7,Community 3,NA,TRUE,f,f,NA,NA,NA,1,6,"1,8,10,5,3,11,9,13,14,15,7,4,12,6,2"
15360,commdev-image-keyboard-response,442,780116,learnblock2,667,img/planet2_left.png,2,Community 3,NA,TRUE,f,f,NA,NA,NA,1,6,"1,8,10,5,3,11,9,13,14,15,7,4,12,6,2"
15360,commdev-image-keyboard-response,443,781375,learnblock2,506,img/planet6_right.png,6,Community 3,NA,TRUE,j,j,NA,NA,NA,1,6,"1,8,10,5,3,11,9,13,14,15,7,4,12,6,2"
15360,commdev-image-keyboard-response,444,782634,learnblock2,659,img/planet7_left.png,7,Community 3,NA,TRUE,f,f,NA,NA,NA,1,6,"1,8,10,5,3,11,9,13,14,15,7,4,12,6,2"
15360,commdev-image-keyboard-response,445,783890,learnblock2,816,img/planet3_left.png,3,Community 1,NA,TRUE,f,f,NA,NA,NA,1,6,"1,8,10,5,3,11,9,13,14,15,7,4,12,6,2"
15360,commdev-image-keyboard-response,446,785149,learnblock2,622,img/planet1_left.png,1,Community 1,NA,TRUE,f,f,NA,NA,NA,1,6,"1,8,10,5,3,11,9,13,14,15,7,4,12,6,2"
15360,commdev-image-keyboard-response,447,786410,learnblock2,571,img/planet10_left.png,10,Community 1,NA,TRUE,f,f,NA,NA,NA,1,6,"1,8,10,5,3,11,9,13,14,15,7,4,12,6,2"
15360,commdev-image-keyboard-response,448,787676,learnblock2,789,img/planet3_left.png,3,Community 1,NA,TRUE,f,f,NA,NA,NA,1,6,"1,8,10,5,3,11,9,13,14,15,7,4,12,6,2"
15360,commdev-image-keyboard-response,449,788934,learnblock2,520,img/planet1_left.png,1,Community 1,NA,TRUE,f,f,NA,NA,NA,1,6,"1,8,10,5,3,11,9,13,14,15,7,4,12,6,2"
15360,commdev-image-keyboard-response,450,790196,learnblock2,649,img/planet8_right.png,8,Community 1,NA,TRUE,j,j,NA,NA,NA,1,6,"1,8,10,5,3,11,9,13,14,15,7,4,12,6,2"
15360,commdev-image-keyboard-response,451,791462,learnblock2,551,img/planet3_left.png,3,Community 1,NA,TRUE,f,f,NA,NA,NA,1,6,"1,8,10,5,3,11,9,13,14,15,7,4,12,6,2"
15360,commdev-image-keyboard-response,452,792719,learnblock2,813,img/planet1_right.png,1,Community 1,NA,TRUE,j,j,NA,NA,NA,1,6,"1,8,10,5,3,11,9,13,14,15,7,4,12,6,2"
15360,commdev-image-keyboard-response,453,793979,learnblock2,631,img/planet5_right.png,5,Community 1,NA,FALSE,f,j,NA,NA,NA,1,6,"1,8,10,5,3,11,9,13,14,15,7,4,12,6,2"
15360,commdev-image-keyboard-response,454,795241,learnblock2,667,img/planet10_left.png,10,Community 1,NA,TRUE,f,f,NA,NA,NA,1,6,"1,8,10,5,3,11,9,13,14,15,7,4,12,6,2"
15360,commdev-image-keyboard-response,455,796499,learnblock2,880,img/planet8_left.png,8,Community 1,NA,TRUE,f,f,NA,NA,NA,1,6,"1,8,10,5,3,11,9,13,14,15,7,4,12,6,2"
15360,commdev-image-keyboard-response,456,797836,learnblock2,520,img/planet10_left.png,10,Community 1,NA,TRUE,f,f,NA,NA,NA,1,6,"1,8,10,5,3,11,9,13,14,15,7,4,12,6,2"
15360,commdev-image-keyboard-response,457,799099,learnblock2,638,img/planet5_left.png,5,Community 1,NA,TRUE,f,f,NA,NA,NA,1,6,"1,8,10,5,3,11,9,13,14,15,7,4,12,6,2"
15360,commdev-image-keyboard-response,458,800363,learnblock2,847,img/planet10_right.png,10,Community 1,NA,TRUE,j,j,NA,NA,NA,1,6,"1,8,10,5,3,11,9,13,14,15,7,4,12,6,2"
15360,commdev-image-keyboard-response,459,801622,learnblock2,790,img/planet1_left.png,1,Community 1,NA,TRUE,f,f,NA,NA,NA,1,6,"1,8,10,5,3,11,9,13,14,15,7,4,12,6,2"
15360,commdev-image-keyboard-response,460,802878,learnblock2,599,img/planet10_left.png,10,Community 1,NA,TRUE,f,f,NA,NA,NA,1,6,"1,8,10,5,3,11,9,13,14,15,7,4,12,6,2"
15360,commdev-image-keyboard-response,461,804133,learnblock2,736,img/planet3_right.png,3,Community 1,NA,TRUE,j,j,NA,NA,NA,1,6,"1,8,10,5,3,11,9,13,14,15,7,4,12,6,2"
15360,commdev-image-keyboard-response,462,805395,learnblock2,629,img/planet1_right.png,1,Community 1,NA,TRUE,j,j,NA,NA,NA,1,6,"1,8,10,5,3,11,9,13,14,15,7,4,12,6,2"
15360,commdev-image-keyboard-response,463,806656,learnblock2,681,img/planet5_left.png,5,Community 1,NA,TRUE,f,f,NA,NA,NA,1,6,"1,8,10,5,3,11,9,13,14,15,7,4,12,6,2"
15360,commdev-image-keyboard-response,464,807917,learnblock2,631,img/planet8_left.png,8,Community 1,NA,TRUE,f,f,NA,NA,NA,1,6,"1,8,10,5,3,11,9,13,14,15,7,4,12,6,2"
15360,commdev-image-keyboard-response,465,809180,learnblock2,613,img/planet3_right.png,3,Community 1,NA,TRUE,j,j,NA,NA,NA,1,6,"1,8,10,5,3,11,9,13,14,15,7,4,12,6,2"
15360,commdev-image-keyboard-response,466,810439,learnblock2,512,img/planet1_right.png,1,Community 1,NA,TRUE,j,j,NA,NA,NA,1,6,"1,8,10,5,3,11,9,13,14,15,7,4,12,6,2"
15360,commdev-image-keyboard-response,467,811716,learnblock2,530,img/planet5_right.png,5,Community 1,NA,TRUE,j,j,NA,NA,NA,1,6,"1,8,10,5,3,11,9,13,14,15,7,4,12,6,2"
15360,commdev-image-keyboard-response,468,812976,learnblock2,669,img/planet11_left.png,11,Community 2,NA,TRUE,f,f,NA,NA,NA,1,6,"1,8,10,5,3,11,9,13,14,15,7,4,12,6,2"
15360,commdev-image-keyboard-response,469,814236,learnblock2,658,img/planet9_right.png,9,Community 2,NA,TRUE,j,j,NA,NA,NA,1,6,"1,8,10,5,3,11,9,13,14,15,7,4,12,6,2"
15360,commdev-image-keyboard-response,470,815497,learnblock2,null,img/planet15_left.png,15,Community 2,NA,FALSE,null,f,NA,NA,NA,1,6,"1,8,10,5,3,11,9,13,14,15,7,4,12,6,2"
15360,commdev-image-keyboard-response,471,816755,learnblock2,624,img/planet11_right.png,11,Community 2,NA,TRUE,j,j,NA,NA,NA,1,6,"1,8,10,5,3,11,9,13,14,15,7,4,12,6,2"
15360,commdev-image-keyboard-response,472,818042,learnblock2,750,img/planet14_right.png,14,Community 2,NA,TRUE,j,j,NA,NA,NA,1,6,"1,8,10,5,3,11,9,13,14,15,7,4,12,6,2"
15360,commdev-image-keyboard-response,473,819304,learnblock2,658,img/planet9_left.png,9,Community 2,NA,TRUE,f,f,NA,NA,NA,1,6,"1,8,10,5,3,11,9,13,14,15,7,4,12,6,2"
15360,commdev-image-keyboard-response,474,820563,learnblock2,548,img/planet11_left.png,11,Community 2,NA,TRUE,f,f,NA,NA,NA,1,6,"1,8,10,5,3,11,9,13,14,15,7,4,12,6,2"
15360,commdev-image-keyboard-response,475,821823,learnblock2,557,img/planet14_right.png,14,Community 2,NA,TRUE,j,j,NA,NA,NA,1,6,"1,8,10,5,3,11,9,13,14,15,7,4,12,6,2"
15360,commdev-image-keyboard-response,476,823127,learnblock2,574,img/planet11_left.png,11,Community 2,NA,FALSE,j,f,NA,NA,NA,1,6,"1,8,10,5,3,11,9,13,14,15,7,4,12,6,2"
15360,commdev-image-keyboard-response,477,824386,learnblock2,654,img/planet5_right.png,5,Community 1,NA,TRUE,j,j,NA,NA,NA,1,6,"1,8,10,5,3,11,9,13,14,15,7,4,12,6,2"
15360,commdev-image-keyboard-response,478,825645,learnblock2,734,img/planet8_left.png,8,Community 1,NA,TRUE,f,f,NA,NA,NA,1,6,"1,8,10,5,3,11,9,13,14,15,7,4,12,6,2"
15360,commdev-image-keyboard-response,479,826903,learnblock2,813,img/planet3_left.png,3,Community 1,NA,TRUE,f,f,NA,NA,NA,1,6,"1,8,10,5,3,11,9,13,14,15,7,4,12,6,2"
15360,commdev-image-keyboard-response,480,828164,learnblock2,559,img/planet10_left.png,10,Community 1,NA,TRUE,f,f,NA,NA,NA,1,6,"1,8,10,5,3,11,9,13,14,15,7,4,12,6,2"
15360,commdev-image-keyboard-response,481,829473,learnblock2,540,img/planet1_left.png,1,Community 1,NA,TRUE,f,f,NA,NA,NA,1,6,"1,8,10,5,3,11,9,13,14,15,7,4,12,6,2"
15360,commdev-image-keyboard-response,482,830732,learnblock2,502,img/planet5_left.png,5,Community 1,NA,TRUE,f,f,NA,NA,NA,1,6,"1,8,10,5,3,11,9,13,14,15,7,4,12,6,2"
15360,commdev-image-keyboard-response,483,831994,learnblock2,807,img/planet10_left.png,10,Community 1,NA,TRUE,f,f,NA,NA,NA,1,6,"1,8,10,5,3,11,9,13,14,15,7,4,12,6,2"
15360,commdev-image-keyboard-response,484,833258,learnblock2,698,img/planet3_right.png,3,Community 1,NA,TRUE,j,j,NA,NA,NA,1,6,"1,8,10,5,3,11,9,13,14,15,7,4,12,6,2"
15360,commdev-image-keyboard-response,485,834520,learnblock2,585,img/planet1_left.png,1,Community 1,NA,TRUE,f,f,NA,NA,NA,1,6,"1,8,10,5,3,11,9,13,14,15,7,4,12,6,2"
15360,commdev-image-keyboard-response,486,835858,learnblock2,518,img/planet5_right.png,5,Community 1,NA,TRUE,j,j,NA,NA,NA,1,6,"1,8,10,5,3,11,9,13,14,15,7,4,12,6,2"
15360,commdev-image-keyboard-response,487,837118,learnblock2,551,img/planet8_left.png,8,Community 1,NA,FALSE,j,f,NA,NA,NA,1,6,"1,8,10,5,3,11,9,13,14,15,7,4,12,6,2"
15360,commdev-image-keyboard-response,488,838377,learnblock2,724,img/planet10_left.png,10,Community 1,NA,TRUE,f,f,NA,NA,NA,1,6,"1,8,10,5,3,11,9,13,14,15,7,4,12,6,2"
15360,commdev-image-keyboard-response,489,839639,learnblock2,613,img/planet3_right.png,3,Community 1,NA,TRUE,j,j,NA,NA,NA,1,6,"1,8,10,5,3,11,9,13,14,15,7,4,12,6,2"
15360,commdev-image-keyboard-response,490,840898,learnblock2,1159,img/planet7_left.png,7,Community 3,NA,TRUE,f,f,NA,NA,NA,1,6,"1,8,10,5,3,11,9,13,14,15,7,4,12,6,2"
15360,commdev-image-keyboard-response,491,842160,learnblock2,661,img/planet12_right.png,12,Community 3,NA,TRUE,j,j,NA,NA,NA,1,6,"1,8,10,5,3,11,9,13,14,15,7,4,12,6,2"
15360,commdev-image-keyboard-response,492,843419,learnblock2,642,img/planet7_right.png,7,Community 3,NA,TRUE,j,j,NA,NA,NA,1,6,"1,8,10,5,3,11,9,13,14,15,7,4,12,6,2"
15360,commdev-image-keyboard-response,493,844677,learnblock2,690,img/planet2_left.png,2,Community 3,NA,TRUE,f,f,NA,NA,NA,1,6,"1,8,10,5,3,11,9,13,14,15,7,4,12,6,2"
15360,commdev-image-keyboard-response,494,845936,learnblock2,546,img/planet4_right.png,4,Community 3,NA,TRUE,j,j,NA,NA,NA,1,6,"1,8,10,5,3,11,9,13,14,15,7,4,12,6,2"
15360,commdev-image-keyboard-response,495,847188,learnblock2,616,img/planet12_right.png,12,Community 3,NA,TRUE,j,j,NA,NA,NA,1,6,"1,8,10,5,3,11,9,13,14,15,7,4,12,6,2"
15360,commdev-image-keyboard-response,496,848450,learnblock2,555,img/planet4_left.png,4,Community 3,NA,TRUE,f,f,NA,NA,NA,1,6,"1,8,10,5,3,11,9,13,14,15,7,4,12,6,2"
15360,commdev-image-keyboard-response,497,849708,learnblock2,581,img/planet13_left.png,13,Community 2,NA,TRUE,f,f,NA,NA,NA,1,6,"1,8,10,5,3,11,9,13,14,15,7,4,12,6,2"
15360,commdev-image-keyboard-response,498,850971,learnblock2,567,img/planet15_left.png,15,Community 2,NA,TRUE,f,f,NA,NA,NA,1,6,"1,8,10,5,3,11,9,13,14,15,7,4,12,6,2"
15360,commdev-image-keyboard-response,499,852232,learnblock2,548,img/planet11_left.png,11,Community 2,NA,TRUE,f,f,NA,NA,NA,1,6,"1,8,10,5,3,11,9,13,14,15,7,4,12,6,2"
15360,commdev-image-keyboard-response,500,853491,learnblock2,962,img/planet9_left.png,9,Community 2,NA,TRUE,f,f,NA,NA,NA,1,6,"1,8,10,5,3,11,9,13,14,15,7,4,12,6,2"
15360,commdev-image-keyboard-response,501,854749,learnblock2,609,img/planet11_left.png,11,Community 2,NA,TRUE,f,f,NA,NA,NA,1,6,"1,8,10,5,3,11,9,13,14,15,7,4,12,6,2"
15360,commdev-image-keyboard-response,502,856011,learnblock2,675,img/planet15_right.png,15,Community 2,NA,TRUE,j,j,NA,NA,NA,1,6,"1,8,10,5,3,11,9,13,14,15,7,4,12,6,2"
15360,commdev-image-keyboard-response,503,857266,learnblock2,534,img/planet14_right.png,14,Community 2,NA,TRUE,j,j,NA,NA,NA,1,6,"1,8,10,5,3,11,9,13,14,15,7,4,12,6,2"
15360,commdev-image-keyboard-response,504,858524,learnblock2,697,img/planet9_left.png,9,Community 2,NA,TRUE,f,f,NA,NA,NA,1,6,"1,8,10,5,3,11,9,13,14,15,7,4,12,6,2"
15360,commdev-image-keyboard-response,505,859783,learnblock2,609,img/planet15_right.png,15,Community 2,NA,TRUE,j,j,NA,NA,NA,1,6,"1,8,10,5,3,11,9,13,14,15,7,4,12,6,2"
15360,commdev-image-keyboard-response,506,861045,learnblock2,554,img/planet13_right.png,13,Community 2,NA,TRUE,j,j,NA,NA,NA,1,6,"1,8,10,5,3,11,9,13,14,15,7,4,12,6,2"
15360,commdev-image-keyboard-response,507,862299,learnblock2,486,img/planet9_right.png,9,Community 2,NA,TRUE,j,j,NA,NA,NA,1,6,"1,8,10,5,3,11,9,13,14,15,7,4,12,6,2"
15360,commdev-image-keyboard-response,508,863588,learnblock2,422,img/planet13_left.png,13,Community 2,NA,TRUE,f,f,NA,NA,NA,1,6,"1,8,10,5,3,11,9,13,14,15,7,4,12,6,2"
15360,commdev-image-keyboard-response,509,864849,learnblock2,568,img/planet9_right.png,9,Community 2,NA,TRUE,j,j,NA,NA,NA,1,6,"1,8,10,5,3,11,9,13,14,15,7,4,12,6,2"
15360,commdev-image-keyboard-response,510,866111,learnblock2,775,img/planet11_right.png,11,Community 2,NA,TRUE,j,j,NA,NA,NA,1,6,"1,8,10,5,3,11,9,13,14,15,7,4,12,6,2"
15360,commdev-image-keyboard-response,511,867451,learnblock2,448,img/planet9_right.png,9,Community 2,NA,TRUE,j,j,NA,NA,NA,1,6,"1,8,10,5,3,11,9,13,14,15,7,4,12,6,2"
15360,commdev-image-keyboard-response,512,868711,learnblock2,553,img/planet13_left.png,13,Community 2,NA,TRUE,f,f,NA,NA,NA,1,6,"1,8,10,5,3,11,9,13,14,15,7,4,12,6,2"
15360,commdev-image-keyboard-response,513,869972,learnblock2,504,img/planet15_right.png,15,Community 2,NA,TRUE,j,j,NA,NA,NA,1,6,"1,8,10,5,3,11,9,13,14,15,7,4,12,6,2"
15360,commdev-image-keyboard-response,514,871230,learnblock2,780,img/planet11_right.png,11,Community 2,NA,TRUE,j,j,NA,NA,NA,1,6,"1,8,10,5,3,11,9,13,14,15,7,4,12,6,2"
15360,commdev-image-keyboard-response,515,872494,learnblock2,622,img/planet14_right.png,14,Community 2,NA,TRUE,j,j,NA,NA,NA,1,6,"1,8,10,5,3,11,9,13,14,15,7,4,12,6,2"
15360,commdev-image-keyboard-response,516,873750,learnblock2,525,img/planet13_right.png,13,Community 2,NA,TRUE,j,j,NA,NA,NA,1,6,"1,8,10,5,3,11,9,13,14,15,7,4,12,6,2"
15360,commdev-image-keyboard-response,517,875008,learnblock2,913,img/planet14_right.png,14,Community 2,NA,TRUE,j,j,NA,NA,NA,1,6,"1,8,10,5,3,11,9,13,14,15,7,4,12,6,2"
15360,commdev-image-keyboard-response,518,876265,learnblock2,654,img/planet9_right.png,9,Community 2,NA,TRUE,j,j,NA,NA,NA,1,6,"1,8,10,5,3,11,9,13,14,15,7,4,12,6,2"
15360,commdev-image-keyboard-response,519,877526,learnblock2,769,img/planet14_left.png,14,Community 2,NA,TRUE,f,f,NA,NA,NA,1,6,"1,8,10,5,3,11,9,13,14,15,7,4,12,6,2"
15360,commdev-image-keyboard-response,520,878782,learnblock2,624,img/planet13_left.png,13,Community 2,NA,TRUE,f,f,NA,NA,NA,1,6,"1,8,10,5,3,11,9,13,14,15,7,4,12,6,2"
15360,commdev-image-keyboard-response,521,880046,learnblock2,632,img/planet9_right.png,9,Community 2,NA,TRUE,j,j,NA,NA,NA,1,6,"1,8,10,5,3,11,9,13,14,15,7,4,12,6,2"
15360,commdev-image-keyboard-response,522,881311,learnblock2,738,img/planet13_right.png,13,Community 2,NA,TRUE,j,j,NA,NA,NA,1,6,"1,8,10,5,3,11,9,13,14,15,7,4,12,6,2"
15360,commdev-image-keyboard-response,523,882569,learnblock2,591,img/planet15_right.png,15,Community 2,NA,TRUE,j,j,NA,NA,NA,1,6,"1,8,10,5,3,11,9,13,14,15,7,4,12,6,2"
15360,commdev-image-keyboard-response,524,883829,learnblock2,707,img/planet11_left.png,11,Community 2,NA,TRUE,f,f,NA,NA,NA,1,6,"1,8,10,5,3,11,9,13,14,15,7,4,12,6,2"
15360,commdev-image-keyboard-response,525,885086,learnblock2,583,img/planet9_left.png,9,Community 2,NA,TRUE,f,f,NA,NA,NA,1,6,"1,8,10,5,3,11,9,13,14,15,7,4,12,6,2"
15360,commdev-image-keyboard-response,526,886345,learnblock2,574,img/planet15_left.png,15,Community 2,NA,TRUE,f,f,NA,NA,NA,1,6,"1,8,10,5,3,11,9,13,14,15,7,4,12,6,2"
15360,commdev-image-keyboard-response,527,887608,learnblock2,691,img/planet14_left.png,14,Community 2,NA,TRUE,f,f,NA,NA,NA,1,6,"1,8,10,5,3,11,9,13,14,15,7,4,12,6,2"
15360,commdev-image-keyboard-response,528,888867,learnblock2,537,img/planet11_right.png,11,Community 2,NA,TRUE,j,j,NA,NA,NA,1,6,"1,8,10,5,3,11,9,13,14,15,7,4,12,6,2"
15360,commdev-image-keyboard-response,529,890125,learnblock2,522,img/planet9_left.png,9,Community 2,NA,TRUE,f,f,NA,NA,NA,1,6,"1,8,10,5,3,11,9,13,14,15,7,4,12,6,2"
15360,commdev-image-keyboard-response,530,891385,learnblock2,548,img/planet13_right.png,13,Community 2,NA,TRUE,j,j,NA,NA,NA,1,6,"1,8,10,5,3,11,9,13,14,15,7,4,12,6,2"
15360,commdev-image-keyboard-response,531,892646,learnblock2,586,img/planet14_left.png,14,Community 2,NA,TRUE,f,f,NA,NA,NA,1,6,"1,8,10,5,3,11,9,13,14,15,7,4,12,6,2"
15360,commdev-image-keyboard-response,532,893905,learnblock2,573,img/planet15_left.png,15,Community 2,NA,TRUE,f,f,NA,NA,NA,1,6,"1,8,10,5,3,11,9,13,14,15,7,4,12,6,2"
15360,commdev-image-keyboard-response,533,895164,learnblock2,838,img/planet9_left.png,9,Community 2,NA,TRUE,f,f,NA,NA,NA,1,6,"1,8,10,5,3,11,9,13,14,15,7,4,12,6,2"
15360,commdev-image-keyboard-response,534,896420,learnblock2,787,img/planet11_left.png,11,Community 2,NA,TRUE,f,f,NA,NA,NA,1,6,"1,8,10,5,3,11,9,13,14,15,7,4,12,6,2"
15360,commdev-image-keyboard-response,535,897678,learnblock2,656,img/planet14_right.png,14,Community 2,NA,TRUE,j,j,NA,NA,NA,1,6,"1,8,10,5,3,11,9,13,14,15,7,4,12,6,2"
15360,commdev-image-keyboard-response,536,898937,learnblock2,619,img/planet13_right.png,13,Community 2,NA,TRUE,j,j,NA,NA,NA,1,6,"1,8,10,5,3,11,9,13,14,15,7,4,12,6,2"
15360,commdev-image-keyboard-response,537,900200,learnblock2,841,img/planet14_right.png,14,Community 2,NA,TRUE,j,j,NA,NA,NA,1,6,"1,8,10,5,3,11,9,13,14,15,7,4,12,6,2"
15360,commdev-image-keyboard-response,538,901460,learnblock2,608,img/planet15_left.png,15,Community 2,NA,TRUE,f,f,NA,NA,NA,1,6,"1,8,10,5,3,11,9,13,14,15,7,4,12,6,2"
15360,commdev-image-keyboard-response,539,902723,learnblock2,872,img/planet14_left.png,14,Community 2,NA,TRUE,f,f,NA,NA,NA,1,6,"1,8,10,5,3,11,9,13,14,15,7,4,12,6,2"
15360,commdev-image-keyboard-response,540,903986,learnblock2,587,img/planet11_left.png,11,Community 2,NA,TRUE,f,f,NA,NA,NA,1,6,"1,8,10,5,3,11,9,13,14,15,7,4,12,6,2"
15360,commdev-image-keyboard-response,541,905324,learnblock2,578,img/planet5_left.png,5,Community 1,NA,TRUE,f,f,NA,NA,NA,1,6,"1,8,10,5,3,11,9,13,14,15,7,4,12,6,2"
15360,commdev-image-keyboard-response,542,906584,learnblock2,516,img/planet11_right.png,11,Community 2,NA,TRUE,j,j,NA,NA,NA,1,6,"1,8,10,5,3,11,9,13,14,15,7,4,12,6,2"
15360,commdev-image-keyboard-response,543,907840,learnblock2,455,img/planet5_right.png,5,Community 1,NA,TRUE,j,j,NA,NA,NA,1,6,"1,8,10,5,3,11,9,13,14,15,7,4,12,6,2"
15360,commdev-image-keyboard-response,544,909099,learnblock2,592,img/planet1_right.png,1,Community 1,NA,TRUE,j,j,NA,NA,NA,1,6,"1,8,10,5,3,11,9,13,14,15,7,4,12,6,2"
15360,commdev-image-keyboard-response,545,910360,learnblock2,487,img/planet10_right.png,10,Community 1,NA,TRUE,j,j,NA,NA,NA,1,6,"1,8,10,5,3,11,9,13,14,15,7,4,12,6,2"
15360,commdev-image-keyboard-response,546,911619,learnblock2,695,img/planet8_left.png,8,Community 1,NA,TRUE,f,f,NA,NA,NA,1,6,"1,8,10,5,3,11,9,13,14,15,7,4,12,6,2"
15360,commdev-image-keyboard-response,547,912881,learnblock2,508,img/planet10_left.png,10,Community 1,NA,TRUE,f,f,NA,NA,NA,1,6,"1,8,10,5,3,11,9,13,14,15,7,4,12,6,2"
15360,commdev-image-keyboard-response,548,914142,learnblock2,1062,img/planet3_left.png,3,Community 1,NA,TRUE,f,f,NA,NA,NA,1,6,"1,8,10,5,3,11,9,13,14,15,7,4,12,6,2"
15360,commdev-image-keyboard-response,549,915401,learnblock2,722,img/planet8_left.png,8,Community 1,NA,TRUE,f,f,NA,NA,NA,1,6,"1,8,10,5,3,11,9,13,14,15,7,4,12,6,2"
15360,commdev-image-keyboard-response,550,916659,learnblock2,720,img/planet3_right.png,3,Community 1,NA,TRUE,j,j,NA,NA,NA,1,6,"1,8,10,5,3,11,9,13,14,15,7,4,12,6,2"
15360,commdev-image-keyboard-response,551,917919,learnblock2,741,img/planet7_left.png,7,Community 3,NA,TRUE,f,f,NA,NA,NA,1,6,"1,8,10,5,3,11,9,13,14,15,7,4,12,6,2"
15360,commdev-image-keyboard-response,552,919179,learnblock2,779,img/planet6_right.png,6,Community 3,NA,TRUE,j,j,NA,NA,NA,1,6,"1,8,10,5,3,11,9,13,14,15,7,4,12,6,2"
15360,commdev-image-keyboard-response,553,920439,learnblock2,710,img/planet7_right.png,7,Community 3,NA,TRUE,j,j,NA,NA,NA,1,6,"1,8,10,5,3,11,9,13,14,15,7,4,12,6,2"
15360,commdev-image-keyboard-response,554,921700,learnblock2,539,img/planet6_right.png,6,Community 3,NA,TRUE,j,j,NA,NA,NA,1,6,"1,8,10,5,3,11,9,13,14,15,7,4,12,6,2"
15360,commdev-image-keyboard-response,555,922960,learnblock2,524,img/planet2_left.png,2,Community 3,NA,TRUE,f,f,NA,NA,NA,1,6,"1,8,10,5,3,11,9,13,14,15,7,4,12,6,2"
15360,commdev-image-keyboard-response,556,924220,learnblock2,598,img/planet4_left.png,4,Community 3,NA,TRUE,f,f,NA,NA,NA,1,6,"1,8,10,5,3,11,9,13,14,15,7,4,12,6,2"
15360,commdev-image-keyboard-response,557,925482,learnblock2,492,img/planet12_left.png,12,Community 3,NA,TRUE,f,f,NA,NA,NA,1,6,"1,8,10,5,3,11,9,13,14,15,7,4,12,6,2"
15360,commdev-image-keyboard-response,558,926739,learnblock2,420,img/planet4_left.png,4,Community 3,NA,TRUE,f,f,NA,NA,NA,1,6,"1,8,10,5,3,11,9,13,14,15,7,4,12,6,2"
15360,commdev-image-keyboard-response,559,928003,learnblock2,541,img/planet13_left.png,13,Community 2,NA,TRUE,f,f,NA,NA,NA,1,6,"1,8,10,5,3,11,9,13,14,15,7,4,12,6,2"
15360,commdev-image-keyboard-response,560,929265,learnblock2,379,img/planet15_right.png,15,Community 2,NA,FALSE,f,j,NA,NA,NA,1,6,"1,8,10,5,3,11,9,13,14,15,7,4,12,6,2"
15360,commdev-image-keyboard-response,561,930524,learnblock2,683,img/planet9_left.png,9,Community 2,NA,TRUE,f,f,NA,NA,NA,1,6,"1,8,10,5,3,11,9,13,14,15,7,4,12,6,2"
15360,commdev-image-keyboard-response,562,931782,learnblock2,547,img/planet11_right.png,11,Community 2,NA,TRUE,j,j,NA,NA,NA,1,6,"1,8,10,5,3,11,9,13,14,15,7,4,12,6,2"
15360,commdev-image-keyboard-response,563,933041,learnblock2,549,img/planet14_left.png,14,Community 2,NA,TRUE,f,f,NA,NA,NA,1,6,"1,8,10,5,3,11,9,13,14,15,7,4,12,6,2"
15360,commdev-image-keyboard-response,564,934316,learnblock2,502,img/planet9_left.png,9,Community 2,NA,TRUE,f,f,NA,NA,NA,1,6,"1,8,10,5,3,11,9,13,14,15,7,4,12,6,2"
15360,commdev-image-keyboard-response,565,935575,learnblock2,517,img/planet15_left.png,15,Community 2,NA,TRUE,f,f,NA,NA,NA,1,6,"1,8,10,5,3,11,9,13,14,15,7,4,12,6,2"
15360,commdev-image-keyboard-response,566,936831,learnblock2,475,img/planet14_left.png,14,Community 2,NA,FALSE,j,f,NA,NA,NA,1,6,"1,8,10,5,3,11,9,13,14,15,7,4,12,6,2"
15360,commdev-image-keyboard-response,567,938092,learnblock2,522,img/planet13_left.png,13,Community 2,NA,TRUE,f,f,NA,NA,NA,1,6,"1,8,10,5,3,11,9,13,14,15,7,4,12,6,2"
15360,commdev-image-keyboard-response,568,939351,learnblock2,679,img/planet15_right.png,15,Community 2,NA,TRUE,j,j,NA,NA,NA,1,6,"1,8,10,5,3,11,9,13,14,15,7,4,12,6,2"
15360,commdev-image-keyboard-response,569,940610,learnblock2,592,img/planet13_left.png,13,Community 2,NA,TRUE,f,f,NA,NA,NA,1,6,"1,8,10,5,3,11,9,13,14,15,7,4,12,6,2"
15360,commdev-image-keyboard-response,570,941872,learnblock2,599,img/planet14_left.png,14,Community 2,NA,TRUE,f,f,NA,NA,NA,1,6,"1,8,10,5,3,11,9,13,14,15,7,4,12,6,2"
15360,commdev-image-keyboard-response,571,943129,learnblock2,569,img/planet15_right.png,15,Community 2,NA,TRUE,j,j,NA,NA,NA,1,6,"1,8,10,5,3,11,9,13,14,15,7,4,12,6,2"
15360,commdev-image-keyboard-response,572,944438,learnblock2,457,img/planet9_left.png,9,Community 2,NA,TRUE,f,f,NA,NA,NA,1,6,"1,8,10,5,3,11,9,13,14,15,7,4,12,6,2"
15360,commdev-image-keyboard-response,573,945697,learnblock2,466,img/planet13_left.png,13,Community 2,NA,TRUE,f,f,NA,NA,NA,1,6,"1,8,10,5,3,11,9,13,14,15,7,4,12,6,2"
15360,commdev-image-keyboard-response,574,946955,learnblock2,379,img/planet4_left.png,4,Community 3,NA,TRUE,f,f,NA,NA,NA,1,6,"1,8,10,5,3,11,9,13,14,15,7,4,12,6,2"
15360,commdev-image-keyboard-response,575,948221,learnblock2,387,img/planet2_left.png,2,Community 3,NA,TRUE,f,f,NA,NA,NA,1,6,"1,8,10,5,3,11,9,13,14,15,7,4,12,6,2"
15360,commdev-image-keyboard-response,576,949482,learnblock2,601,img/planet4_left.png,4,Community 3,NA,TRUE,f,f,NA,NA,NA,1,6,"1,8,10,5,3,11,9,13,14,15,7,4,12,6,2"
15360,commdev-image-keyboard-response,577,950740,learnblock2,537,img/planet12_right.png,12,Community 3,NA,TRUE,j,j,NA,NA,NA,1,6,"1,8,10,5,3,11,9,13,14,15,7,4,12,6,2"
15360,commdev-image-keyboard-response,578,951999,learnblock2,612,img/planet7_left.png,7,Community 3,NA,TRUE,f,f,NA,NA,NA,1,6,"1,8,10,5,3,11,9,13,14,15,7,4,12,6,2"
15360,commdev-image-keyboard-response,579,953258,learnblock2,854,img/planet2_left.png,2,Community 3,NA,TRUE,f,f,NA,NA,NA,1,6,"1,8,10,5,3,11,9,13,14,15,7,4,12,6,2"
15360,commdev-image-keyboard-response,580,954520,learnblock2,678,img/planet4_right.png,4,Community 3,NA,TRUE,j,j,NA,NA,NA,1,6,"1,8,10,5,3,11,9,13,14,15,7,4,12,6,2"
15360,commdev-image-keyboard-response,581,955780,learnblock2,679,img/planet6_right.png,6,Community 3,NA,TRUE,j,j,NA,NA,NA,1,6,"1,8,10,5,3,11,9,13,14,15,7,4,12,6,2"
15360,commdev-image-keyboard-response,582,957044,learnblock2,540,img/planet4_left.png,4,Community 3,NA,TRUE,f,f,NA,NA,NA,1,6,"1,8,10,5,3,11,9,13,14,15,7,4,12,6,2"
15360,commdev-image-keyboard-response,583,958303,learnblock2,500,img/planet12_right.png,12,Community 3,NA,TRUE,j,j,NA,NA,NA,1,6,"1,8,10,5,3,11,9,13,14,15,7,4,12,6,2"
15360,commdev-image-keyboard-response,584,959566,learnblock2,663,img/planet2_left.png,2,Community 3,NA,TRUE,f,f,NA,NA,NA,1,6,"1,8,10,5,3,11,9,13,14,15,7,4,12,6,2"
15360,commdev-image-keyboard-response,585,960823,learnblock2,674,img/planet6_left.png,6,Community 3,NA,TRUE,f,f,NA,NA,NA,1,6,"1,8,10,5,3,11,9,13,14,15,7,4,12,6,2"
15360,commdev-image-keyboard-response,586,962083,learnblock2,596,img/planet4_right.png,4,Community 3,NA,TRUE,j,j,NA,NA,NA,1,6,"1,8,10,5,3,11,9,13,14,15,7,4,12,6,2"
15360,commdev-image-keyboard-response,587,963344,learnblock2,501,img/planet6_right.png,6,Community 3,NA,TRUE,j,j,NA,NA,NA,1,6,"1,8,10,5,3,11,9,13,14,15,7,4,12,6,2"
15360,commdev-image-keyboard-response,588,964604,learnblock2,628,img/planet12_right.png,12,Community 3,NA,TRUE,j,j,NA,NA,NA,1,6,"1,8,10,5,3,11,9,13,14,15,7,4,12,6,2"
15360,commdev-image-keyboard-response,589,965865,learnblock2,558,img/planet4_left.png,4,Community 3,NA,TRUE,f,f,NA,NA,NA,1,6,"1,8,10,5,3,11,9,13,14,15,7,4,12,6,2"
15360,commdev-image-keyboard-response,590,967128,learnblock2,583,img/planet2_right.png,2,Community 3,NA,TRUE,j,j,NA,NA,NA,1,6,"1,8,10,5,3,11,9,13,14,15,7,4,12,6,2"
15360,commdev-image-keyboard-response,591,968389,learnblock2,771,img/planet7_left.png,7,Community 3,NA,TRUE,f,f,NA,NA,NA,1,6,"1,8,10,5,3,11,9,13,14,15,7,4,12,6,2"
15360,commdev-image-keyboard-response,592,969653,learnblock2,666,img/planet6_right.png,6,Community 3,NA,TRUE,j,j,NA,NA,NA,1,6,"1,8,10,5,3,11,9,13,14,15,7,4,12,6,2"
15360,commdev-image-keyboard-response,593,970915,learnblock2,571,img/planet7_left.png,7,Community 3,NA,TRUE,f,f,NA,NA,NA,1,6,"1,8,10,5,3,11,9,13,14,15,7,4,12,6,2"
15360,commdev-image-keyboard-response,594,972172,learnblock2,538,img/planet2_right.png,2,Community 3,NA,TRUE,j,j,NA,NA,NA,1,6,"1,8,10,5,3,11,9,13,14,15,7,4,12,6,2"
15360,commdev-image-keyboard-response,595,973466,learnblock2,437,img/planet7_right.png,7,Community 3,NA,FALSE,f,j,NA,NA,NA,1,6,"1,8,10,5,3,11,9,13,14,15,7,4,12,6,2"
15360,commdev-image-keyboard-response,596,974726,learnblock2,644,img/planet2_left.png,2,Community 3,NA,TRUE,f,f,NA,NA,NA,1,6,"1,8,10,5,3,11,9,13,14,15,7,4,12,6,2"
15360,commdev-image-keyboard-response,597,975988,learnblock2,674,img/planet6_left.png,6,Community 3,NA,TRUE,f,f,NA,NA,NA,1,6,"1,8,10,5,3,11,9,13,14,15,7,4,12,6,2"
15360,commdev-image-keyboard-response,598,977252,learnblock2,630,img/planet7_left.png,7,Community 3,NA,TRUE,f,f,NA,NA,NA,1,6,"1,8,10,5,3,11,9,13,14,15,7,4,12,6,2"
15360,commdev-image-keyboard-response,599,978513,learnblock2,557,img/planet3_right.png,3,Community 1,NA,TRUE,j,j,NA,NA,NA,1,6,"1,8,10,5,3,11,9,13,14,15,7,4,12,6,2"
15360,commdev-image-keyboard-response,600,979774,learnblock2,445,img/planet10_right.png,10,Community 1,NA,TRUE,j,j,NA,NA,NA,1,6,"1,8,10,5,3,11,9,13,14,15,7,4,12,6,2"
15360,commdev-image-keyboard-response,601,981036,learnblock2,506,img/planet8_right.png,8,Community 1,NA,TRUE,j,j,NA,NA,NA,1,6,"1,8,10,5,3,11,9,13,14,15,7,4,12,6,2"
15360,commdev-image-keyboard-response,602,982298,learnblock2,486,img/planet5_right.png,5,Community 1,NA,TRUE,j,j,NA,NA,NA,1,6,"1,8,10,5,3,11,9,13,14,15,7,4,12,6,2"
15360,commdev-image-keyboard-response,603,983557,learnblock2,478,img/planet10_right.png,10,Community 1,NA,TRUE,j,j,NA,NA,NA,1,6,"1,8,10,5,3,11,9,13,14,15,7,4,12,6,2"
15360,commdev-image-keyboard-response,604,984816,learnblock2,906,img/planet3_left.png,3,Community 1,NA,TRUE,f,f,NA,NA,NA,1,6,"1,8,10,5,3,11,9,13,14,15,7,4,12,6,2"
15360,commdev-image-keyboard-response,605,986071,learnblock2,561,img/planet10_left.png,10,Community 1,NA,TRUE,f,f,NA,NA,NA,1,6,"1,8,10,5,3,11,9,13,14,15,7,4,12,6,2"
15360,commdev-image-keyboard-response,606,987327,learnblock2,452,img/planet5_right.png,5,Community 1,NA,FALSE,f,j,NA,NA,NA,1,6,"1,8,10,5,3,11,9,13,14,15,7,4,12,6,2"
15360,commdev-image-keyboard-response,607,988588,learnblock2,560,img/planet11_left.png,11,Community 2,NA,TRUE,f,f,NA,NA,NA,1,6,"1,8,10,5,3,11,9,13,14,15,7,4,12,6,2"
15360,commdev-image-keyboard-response,608,989847,learnblock2,535,img/planet5_left.png,5,Community 1,NA,TRUE,f,f,NA,NA,NA,1,6,"1,8,10,5,3,11,9,13,14,15,7,4,12,6,2"
15360,commdev-image-keyboard-response,609,991108,learnblock2,613,img/planet1_left.png,1,Community 1,NA,TRUE,f,f,NA,NA,NA,1,6,"1,8,10,5,3,11,9,13,14,15,7,4,12,6,2"
15360,commdev-image-keyboard-response,610,992370,learnblock2,692,img/planet8_left.png,8,Community 1,NA,TRUE,f,f,NA,NA,NA,1,6,"1,8,10,5,3,11,9,13,14,15,7,4,12,6,2"
15360,commdev-image-keyboard-response,611,993630,learnblock2,636,img/planet5_left.png,5,Community 1,NA,TRUE,f,f,NA,NA,NA,1,6,"1,8,10,5,3,11,9,13,14,15,7,4,12,6,2"
15360,commdev-image-keyboard-response,612,994889,learnblock2,505,img/planet10_left.png,10,Community 1,NA,TRUE,f,f,NA,NA,NA,1,6,"1,8,10,5,3,11,9,13,14,15,7,4,12,6,2"
15360,commdev-image-keyboard-response,613,996151,learnblock2,576,img/planet1_left.png,1,Community 1,NA,TRUE,f,f,NA,NA,NA,1,6,"1,8,10,5,3,11,9,13,14,15,7,4,12,6,2"
15360,commdev-image-keyboard-response,614,997414,learnblock2,520,img/planet5_left.png,5,Community 1,NA,TRUE,f,f,NA,NA,NA,1,6,"1,8,10,5,3,11,9,13,14,15,7,4,12,6,2"
15360,commdev-image-keyboard-response,615,998677,learnblock2,467,img/planet11_left.png,11,Community 2,NA,TRUE,f,f,NA,NA,NA,1,6,"1,8,10,5,3,11,9,13,14,15,7,4,12,6,2"
15360,commdev-image-keyboard-response,616,999933,learnblock2,559,img/planet14_left.png,14,Community 2,NA,TRUE,f,f,NA,NA,NA,1,6,"1,8,10,5,3,11,9,13,14,15,7,4,12,6,2"
15360,commdev-image-keyboard-response,617,1001194,learnblock2,478,img/planet11_left.png,11,Community 2,NA,TRUE,f,f,NA,NA,NA,1,6,"1,8,10,5,3,11,9,13,14,15,7,4,12,6,2"
15360,commdev-image-keyboard-response,618,1002449,learnblock2,492,img/planet9_left.png,9,Community 2,NA,TRUE,f,f,NA,NA,NA,1,6,"1,8,10,5,3,11,9,13,14,15,7,4,12,6,2"
15360,commdev-image-keyboard-response,619,1003704,learnblock2,508,img/planet14_left.png,14,Community 2,NA,TRUE,f,f,NA,NA,NA,1,6,"1,8,10,5,3,11,9,13,14,15,7,4,12,6,2"
15360,commdev-image-keyboard-response,620,1004962,learnblock2,576,img/planet15_left.png,15,Community 2,NA,TRUE,f,f,NA,NA,NA,1,6,"1,8,10,5,3,11,9,13,14,15,7,4,12,6,2"
15360,commdev-image-keyboard-response,621,1006224,learnblock2,513,img/planet14_left.png,14,Community 2,NA,TRUE,f,f,NA,NA,NA,1,6,"1,8,10,5,3,11,9,13,14,15,7,4,12,6,2"
15360,commdev-image-keyboard-response,622,1007482,learnblock2,574,img/planet13_right.png,13,Community 2,NA,TRUE,j,j,NA,NA,NA,1,6,"1,8,10,5,3,11,9,13,14,15,7,4,12,6,2"
15360,commdev-image-keyboard-response,623,1008744,learnblock2,478,img/planet9_left.png,9,Community 2,NA,TRUE,f,f,NA,NA,NA,1,6,"1,8,10,5,3,11,9,13,14,15,7,4,12,6,2"
15360,commdev-image-keyboard-response,624,1010003,learnblock2,558,img/planet15_left.png,15,Community 2,NA,TRUE,f,f,NA,NA,NA,1,6,"1,8,10,5,3,11,9,13,14,15,7,4,12,6,2"
