subject_id,trial_type,trial_index,time_elapsed,block,rt,stimulus,planet,community,response,correct,key_press,learning_correct_response,parse,init_locations,final_locations,browser_interactions,num_comp,planet_map
14411,commdev-instructions,7,25568,NA,5143.800000011921,"<p>In this game, you are a scientist on board a space shuttle. </p><p> On each mission, you will visit planets all across the universe.</p><img src=""img/controlroom.jpg"" width=300vw>",NA,NA,NA,NA,NA,NA,NA,NA,NA,1,6,"3,5,1,10,15,6,13,12,14,2,7,11,4,8,9"
14411,commdev-instructions,8,30484,NA,2839.300000011921,"<p>Here are a few planets you might see:</p><img src=""img/practice1.png"" width=200vw><img src=""img/practice2.png"" width=200vw><img src=""img/practice3.png"" width=200vw>",NA,NA,NA,NA,NA,NA,NA,NA,NA,1,6,"3,5,1,10,15,6,13,12,14,2,7,11,4,8,9"
14411,commdev-instructions,9,39277,NA,1383.2999999523163,"<p>Your job as a scientist is to record which direction the winds are moving on each planet.</p><p>There are two types of wind directions:</p><img src=""img/practice1_left.png"" width=200vw><img src=""img/practice1_right.png"" width=200vw>",NA,NA,NA,NA,NA,NA,NA,NA,NA,1,6,"3,5,1,10,15,6,13,12,14,2,7,11,4,8,9"
14411,commdev-instructions,10,47528,NA,3374.300000011921,"<p>If the winds are moving this way, press the letter <strong>F</strong> on the keyboard as fast as you can.</p><img src=""img/leftwind.png"" width=250vw>",NA,NA,NA,NA,NA,NA,NA,NA,NA,1,6,"3,5,1,10,15,6,13,12,14,2,7,11,4,8,9"
14411,commdev-instructions,11,53523,NA,1508.6000000238419,"<p>If the winds are moving this way, press the letter <strong>J</strong> on the keyboard as fast as you can.</p><img src=""img/rightwind.png"" width=350vw>",NA,NA,NA,NA,NA,NA,NA,NA,NA,1,6,"3,5,1,10,15,6,13,12,14,2,7,11,4,8,9"
14411,commdev-instructions,12,59508,NA,1563.8999999761581,<p>You will have 1 second to respond. Try to respond before the time runs out!,NA,NA,NA,NA,NA,NA,NA,NA,NA,1,6,"3,5,1,10,15,6,13,12,14,2,7,11,4,8,9"
14411,commdev-instructions,13,68167,NA,3232.5,<p>The planets you will visit will look different from each other.</p><p>You should respond <strong>only</strong> based on wind direction.,NA,NA,NA,NA,NA,NA,NA,NA,NA,1,6,"3,5,1,10,15,6,13,12,14,2,7,11,4,8,9"
14411,commdev-instructions,14,75917,NA,2572.100000023842,"<p> Ready to start the practice round? </p><p> Remember, press <strong>F</strong> or <strong>J</strong> depending on the wind direction.<br><img src=""img/categorize_planet_example.png""",NA,NA,NA,NA,NA,NA,NA,NA,NA,1,6,"3,5,1,10,15,6,13,12,14,2,7,11,4,8,9"
14411,commdev-instructions,26,135844,NA,3779.5,"<p>Great, now try a short practice mission. </p><p> This time, you will have 1 second to respond and you won't know whether you pressed the right or wrong key for each planet.</p>",NA,NA,NA,NA,NA,NA,NA,NA,NA,1,6,"3,5,1,10,15,6,13,12,14,2,7,11,4,8,9"
14411,commdev-image-keyboard-response,27,137205,practice,794.3999999761581,img/practice2_left.png,NA,Number not found in mappings,NA,FALSE,j,f,NA,NA,NA,1,6,"3,5,1,10,15,6,13,12,14,2,7,11,4,8,9"
14411,commdev-image-keyboard-response,28,138460,practice,null,img/practice3_right.png,NA,Number not found in mappings,NA,FALSE,null,j,NA,NA,NA,1,6,"3,5,1,10,15,6,13,12,14,2,7,11,4,8,9"
14411,commdev-image-keyboard-response,29,139715,practice,123.39999997615814,img/practice2_right.png,NA,Number not found in mappings,NA,TRUE,j,j,NA,NA,NA,1,6,"3,5,1,10,15,6,13,12,14,2,7,11,4,8,9"
14411,commdev-image-keyboard-response,30,140973,practice,407.5999999642372,img/practice3_right.png,NA,Number not found in mappings,NA,FALSE,f,j,NA,NA,NA,1,6,"3,5,1,10,15,6,13,12,14,2,7,11,4,8,9"
14411,commdev-image-keyboard-response,31,142227,practice,398.19999998807907,img/practice4_right.png,NA,Number not found in mappings,NA,FALSE,f,j,NA,NA,NA,1,6,"3,5,1,10,15,6,13,12,14,2,7,11,4,8,9"
14411,commdev-image-keyboard-response,32,143487,practice,1156.3999999761581,img/practice1_left.png,NA,Number not found in mappings,NA,FALSE,j,f,NA,NA,NA,1,6,"3,5,1,10,15,6,13,12,14,2,7,11,4,8,9"
14411,commdev-image-keyboard-response,33,144738,practice,983,img/practice4_right.png,NA,Number not found in mappings,NA,TRUE,j,j,NA,NA,NA,1,6,"3,5,1,10,15,6,13,12,14,2,7,11,4,8,9"
14411,commdev-image-keyboard-response,34,146000,practice,986.1999999880791,img/practice3_right.png,NA,Number not found in mappings,NA,FALSE,f,j,NA,NA,NA,1,6,"3,5,1,10,15,6,13,12,14,2,7,11,4,8,9"
14411,commdev-instructions,35,157269,NA,1714.1000000238419,"<p>Great job with the practice round.</p><p>During real missions, you won't know whether you pressed the right or wrong key for each planet.</p><p>But between missions, we will tell you how you did overall.</p>",NA,NA,NA,NA,NA,NA,NA,NA,NA,1,6,"3,5,1,10,15,6,13,12,14,2,7,11,4,8,9"
14411,commdev-instructions,36,172456,NA,6931.600000023842,<p>Try your best! You will be paid a bonus based on how many correct responses you make!</p><p>Responses that are too slow will not count toward your bonus.</p>,NA,NA,NA,NA,NA,NA,NA,NA,NA,1,6,"3,5,1,10,15,6,13,12,14,2,7,11,4,8,9"
14411,commdev-instructions,37,180543,NA,1888.199999988079,"<p>You are almost ready to start the real game.</p><p> First, we are going to ask you some questions about how the game works.</p>",NA,NA,NA,NA,NA,NA,NA,NA,NA,1,6,"3,5,1,10,15,6,13,12,14,2,7,11,4,8,9"
14411,commdev-instructions,46,296828,NA,36251.19999998808,"<p> Nice work! It is now time to start the real game.<p></p>You will go on two missions to record wind directions of different planets.<p></p>Each one will take about 5 minutes. You will get to take a break between missions.<p><p> Remember, press <strong>F</strong> or <strong>J</strong> depending on the wind direction. Good luck!<br><img src=""img/categorize_planet_example.png""",NA,NA,NA,NA,NA,NA,NA,NA,NA,1,6,"3,5,1,10,15,6,13,12,14,2,7,11,4,8,9"
14411,commdev-image-keyboard-response,48,302037,learnblock1,null,img/planet2_right.png,2,Community 2,NA,FALSE,null,j,NA,NA,NA,1,6,"3,5,1,10,15,6,13,12,14,2,7,11,4,8,9"
14411,commdev-image-keyboard-response,49,303290,learnblock1,1062,img/planet12_left.png,12,Community 2,NA,FALSE,j,f,NA,NA,NA,1,6,"3,5,1,10,15,6,13,12,14,2,7,11,4,8,9"
14411,commdev-image-keyboard-response,50,304541,learnblock1,1027.5,img/planet14_right.png,14,Community 2,NA,TRUE,j,j,NA,NA,NA,1,6,"3,5,1,10,15,6,13,12,14,2,7,11,4,8,9"
14411,commdev-image-keyboard-response,51,305793,learnblock1,null,img/planet12_left.png,12,Community 2,NA,FALSE,null,f,NA,NA,NA,1,6,"3,5,1,10,15,6,13,12,14,2,7,11,4,8,9"
14411,commdev-image-keyboard-response,52,307044,learnblock1,346.5,img/planet11_left.png,11,Community 3,NA,TRUE,f,f,NA,NA,NA,1,6,"3,5,1,10,15,6,13,12,14,2,7,11,4,8,9"
14411,commdev-image-keyboard-response,53,308296,learnblock1,718.6999999880791,img/planet4_right.png,4,Community 3,NA,TRUE,j,j,NA,NA,NA,1,6,"3,5,1,10,15,6,13,12,14,2,7,11,4,8,9"
14411,commdev-image-keyboard-response,54,309556,learnblock1,966.8000000119209,img/planet8_left.png,8,Community 3,NA,TRUE,f,f,NA,NA,NA,1,6,"3,5,1,10,15,6,13,12,14,2,7,11,4,8,9"
14411,commdev-image-keyboard-response,55,310808,learnblock1,683.1999999880791,img/planet11_left.png,11,Community 3,NA,TRUE,f,f,NA,NA,NA,1,6,"3,5,1,10,15,6,13,12,14,2,7,11,4,8,9"
14411,commdev-image-keyboard-response,56,312059,learnblock1,792.6999999880791,img/planet4_left.png,4,Community 3,NA,TRUE,f,f,NA,NA,NA,1,6,"3,5,1,10,15,6,13,12,14,2,7,11,4,8,9"
14411,commdev-image-keyboard-response,57,313311,learnblock1,1058.5999999642372,img/planet9_right.png,9,Community 3,NA,TRUE,j,j,NA,NA,NA,1,6,"3,5,1,10,15,6,13,12,14,2,7,11,4,8,9"
14411,commdev-image-keyboard-response,58,314562,learnblock1,1246.9000000357628,img/planet11_left.png,11,Community 3,NA,TRUE,f,f,NA,NA,NA,1,6,"3,5,1,10,15,6,13,12,14,2,7,11,4,8,9"
14411,commdev-image-keyboard-response,59,315815,learnblock1,null,img/planet12_left.png,12,Community 2,NA,FALSE,null,f,NA,NA,NA,1,6,"3,5,1,10,15,6,13,12,14,2,7,11,4,8,9"
14411,commdev-image-keyboard-response,60,317066,learnblock1,92.19999998807907,img/planet14_left.png,14,Community 2,NA,TRUE,f,f,NA,NA,NA,1,6,"3,5,1,10,15,6,13,12,14,2,7,11,4,8,9"
14411,commdev-image-keyboard-response,61,318318,learnblock1,687.3000000119209,img/planet6_right.png,6,Community 2,NA,TRUE,j,j,NA,NA,NA,1,6,"3,5,1,10,15,6,13,12,14,2,7,11,4,8,9"
14411,commdev-image-keyboard-response,62,319570,learnblock1,1099,img/planet10_left.png,10,Community 1,NA,TRUE,f,f,NA,NA,NA,1,6,"3,5,1,10,15,6,13,12,14,2,7,11,4,8,9"
14411,commdev-image-keyboard-response,63,320821,learnblock1,1128,img/planet1_right.png,1,Community 1,NA,TRUE,j,j,NA,NA,NA,1,6,"3,5,1,10,15,6,13,12,14,2,7,11,4,8,9"
14411,commdev-image-keyboard-response,64,322073,learnblock1,755.3999999761581,img/planet3_left.png,3,Community 1,NA,TRUE,f,f,NA,NA,NA,1,6,"3,5,1,10,15,6,13,12,14,2,7,11,4,8,9"
14411,commdev-image-keyboard-response,65,323324,learnblock1,834.3000000119209,img/planet15_left.png,15,Community 1,NA,TRUE,f,f,NA,NA,NA,1,6,"3,5,1,10,15,6,13,12,14,2,7,11,4,8,9"
14411,commdev-image-keyboard-response,66,324576,learnblock1,632,img/planet5_right.png,5,Community 1,NA,TRUE,j,j,NA,NA,NA,1,6,"3,5,1,10,15,6,13,12,14,2,7,11,4,8,9"
14411,commdev-image-keyboard-response,67,325827,learnblock1,626,img/planet10_right.png,10,Community 1,NA,TRUE,j,j,NA,NA,NA,1,6,"3,5,1,10,15,6,13,12,14,2,7,11,4,8,9"
14411,commdev-image-keyboard-response,68,327086,learnblock1,968,img/planet5_left.png,5,Community 1,NA,TRUE,f,f,NA,NA,NA,1,6,"3,5,1,10,15,6,13,12,14,2,7,11,4,8,9"
14411,commdev-image-keyboard-response,69,328337,learnblock1,836.3999999761581,img/planet10_right.png,10,Community 1,NA,TRUE,j,j,NA,NA,NA,1,6,"3,5,1,10,15,6,13,12,14,2,7,11,4,8,9"
14411,commdev-image-keyboard-response,70,329588,learnblock1,null,img/planet3_left.png,3,Community 1,NA,FALSE,null,f,NA,NA,NA,1,6,"3,5,1,10,15,6,13,12,14,2,7,11,4,8,9"
14411,commdev-image-keyboard-response,71,330841,learnblock1,77.59999996423721,img/planet10_right.png,10,Community 1,NA,FALSE,f,j,NA,NA,NA,1,6,"3,5,1,10,15,6,13,12,14,2,7,11,4,8,9"
14411,commdev-image-keyboard-response,72,332092,learnblock1,682.0999999642372,img/planet6_left.png,6,Community 2,NA,TRUE,f,f,NA,NA,NA,1,6,"3,5,1,10,15,6,13,12,14,2,7,11,4,8,9"
14411,commdev-image-keyboard-response,73,333344,learnblock1,580.4000000357628,img/planet13_right.png,13,Community 2,NA,TRUE,j,j,NA,NA,NA,1,6,"3,5,1,10,15,6,13,12,14,2,7,11,4,8,9"
14411,commdev-image-keyboard-response,74,334596,learnblock1,682.1999999880791,img/planet2_left.png,2,Community 2,NA,TRUE,f,f,NA,NA,NA,1,6,"3,5,1,10,15,6,13,12,14,2,7,11,4,8,9"
14411,commdev-image-keyboard-response,75,335848,learnblock1,491.30000001192093,img/planet14_right.png,14,Community 2,NA,TRUE,j,j,NA,NA,NA,1,6,"3,5,1,10,15,6,13,12,14,2,7,11,4,8,9"
14411,commdev-image-keyboard-response,76,337100,learnblock1,848.1999999880791,img/planet12_left.png,12,Community 2,NA,TRUE,f,f,NA,NA,NA,1,6,"3,5,1,10,15,6,13,12,14,2,7,11,4,8,9"
14411,commdev-image-keyboard-response,77,338352,learnblock1,988.6000000238419,img/planet11_left.png,11,Community 3,NA,TRUE,f,f,NA,NA,NA,1,6,"3,5,1,10,15,6,13,12,14,2,7,11,4,8,9"
14411,commdev-image-keyboard-response,78,339602,learnblock1,897.6000000238419,img/planet12_left.png,12,Community 2,NA,TRUE,f,f,NA,NA,NA,1,6,"3,5,1,10,15,6,13,12,14,2,7,11,4,8,9"
14411,commdev-image-keyboard-response,79,340854,learnblock1,790.3999999761581,img/planet13_left.png,13,Community 2,NA,TRUE,f,f,NA,NA,NA,1,6,"3,5,1,10,15,6,13,12,14,2,7,11,4,8,9"
14411,commdev-image-keyboard-response,80,342106,learnblock1,791,img/planet14_right.png,14,Community 2,NA,TRUE,j,j,NA,NA,NA,1,6,"3,5,1,10,15,6,13,12,14,2,7,11,4,8,9"
14411,commdev-image-keyboard-response,81,343359,learnblock1,682.5999999642372,img/planet6_left.png,6,Community 2,NA,TRUE,f,f,NA,NA,NA,1,6,"3,5,1,10,15,6,13,12,14,2,7,11,4,8,9"
14411,commdev-image-keyboard-response,82,344610,learnblock1,916.7000000476837,img/planet13_left.png,13,Community 2,NA,TRUE,f,f,NA,NA,NA,1,6,"3,5,1,10,15,6,13,12,14,2,7,11,4,8,9"
14411,commdev-image-keyboard-response,83,345861,learnblock1,840.6000000238419,img/planet6_left.png,6,Community 2,NA,TRUE,f,f,NA,NA,NA,1,6,"3,5,1,10,15,6,13,12,14,2,7,11,4,8,9"
14411,commdev-image-keyboard-response,84,347112,learnblock1,707.5999999642372,img/planet10_left.png,10,Community 1,NA,TRUE,f,f,NA,NA,NA,1,6,"3,5,1,10,15,6,13,12,14,2,7,11,4,8,9"
14411,commdev-image-keyboard-response,85,348364,learnblock1,818.6999999880791,img/planet5_right.png,5,Community 1,NA,TRUE,j,j,NA,NA,NA,1,6,"3,5,1,10,15,6,13,12,14,2,7,11,4,8,9"
14411,commdev-image-keyboard-response,86,349616,learnblock1,656.5,img/planet15_right.png,15,Community 1,NA,FALSE,f,j,NA,NA,NA,1,6,"3,5,1,10,15,6,13,12,14,2,7,11,4,8,9"
14411,commdev-image-keyboard-response,87,350868,learnblock1,1108.5,img/planet5_left.png,5,Community 1,NA,TRUE,f,f,NA,NA,NA,1,6,"3,5,1,10,15,6,13,12,14,2,7,11,4,8,9"
14411,commdev-image-keyboard-response,88,352120,learnblock1,801.3999999761581,img/planet3_left.png,3,Community 1,NA,TRUE,f,f,NA,NA,NA,1,6,"3,5,1,10,15,6,13,12,14,2,7,11,4,8,9"
14411,commdev-image-keyboard-response,89,353372,learnblock1,919.5999999642372,img/planet10_left.png,10,Community 1,NA,TRUE,f,f,NA,NA,NA,1,6,"3,5,1,10,15,6,13,12,14,2,7,11,4,8,9"
14411,commdev-image-keyboard-response,90,354624,learnblock1,936.2999999523163,img/planet1_left.png,1,Community 1,NA,TRUE,f,f,NA,NA,NA,1,6,"3,5,1,10,15,6,13,12,14,2,7,11,4,8,9"
14411,commdev-image-keyboard-response,91,355876,learnblock1,729.5,img/planet3_left.png,3,Community 1,NA,TRUE,f,f,NA,NA,NA,1,6,"3,5,1,10,15,6,13,12,14,2,7,11,4,8,9"
14411,commdev-image-keyboard-response,92,357128,learnblock1,514.6999999880791,img/planet1_right.png,1,Community 1,NA,TRUE,j,j,NA,NA,NA,1,6,"3,5,1,10,15,6,13,12,14,2,7,11,4,8,9"
14411,commdev-image-keyboard-response,93,358380,learnblock1,600.6999999880791,img/planet15_right.png,15,Community 1,NA,TRUE,j,j,NA,NA,NA,1,6,"3,5,1,10,15,6,13,12,14,2,7,11,4,8,9"
14411,commdev-image-keyboard-response,94,359632,learnblock1,599.3999999761581,img/planet5_left.png,5,Community 1,NA,TRUE,f,f,NA,NA,NA,1,6,"3,5,1,10,15,6,13,12,14,2,7,11,4,8,9"
14411,commdev-image-keyboard-response,95,360883,learnblock1,727.1999999880791,img/planet1_right.png,1,Community 1,NA,TRUE,j,j,NA,NA,NA,1,6,"3,5,1,10,15,6,13,12,14,2,7,11,4,8,9"
14411,commdev-image-keyboard-response,96,362134,learnblock1,546.8000000119209,img/planet15_right.png,15,Community 1,NA,TRUE,j,j,NA,NA,NA,1,6,"3,5,1,10,15,6,13,12,14,2,7,11,4,8,9"
14411,commdev-image-keyboard-response,97,363387,learnblock1,628.1999999880791,img/planet5_left.png,5,Community 1,NA,TRUE,f,f,NA,NA,NA,1,6,"3,5,1,10,15,6,13,12,14,2,7,11,4,8,9"
14411,commdev-image-keyboard-response,98,364639,learnblock1,714.0999999642372,img/planet3_left.png,3,Community 1,NA,TRUE,f,f,NA,NA,NA,1,6,"3,5,1,10,15,6,13,12,14,2,7,11,4,8,9"
14411,commdev-image-keyboard-response,99,365891,learnblock1,593.6999999880791,img/planet15_left.png,15,Community 1,NA,TRUE,f,f,NA,NA,NA,1,6,"3,5,1,10,15,6,13,12,14,2,7,11,4,8,9"
14411,commdev-image-keyboard-response,100,367142,learnblock1,537.6000000238419,img/planet5_left.png,5,Community 1,NA,TRUE,f,f,NA,NA,NA,1,6,"3,5,1,10,15,6,13,12,14,2,7,11,4,8,9"
14411,commdev-image-keyboard-response,101,368393,learnblock1,559.9000000357628,img/planet10_right.png,10,Community 1,NA,TRUE,j,j,NA,NA,NA,1,6,"3,5,1,10,15,6,13,12,14,2,7,11,4,8,9"
14411,commdev-image-keyboard-response,102,369646,learnblock1,498.80000001192093,img/planet3_right.png,3,Community 1,NA,TRUE,j,j,NA,NA,NA,1,6,"3,5,1,10,15,6,13,12,14,2,7,11,4,8,9"
14411,commdev-image-keyboard-response,103,370898,learnblock1,558.6999999880791,img/planet10_right.png,10,Community 1,NA,TRUE,j,j,NA,NA,NA,1,6,"3,5,1,10,15,6,13,12,14,2,7,11,4,8,9"
14411,commdev-image-keyboard-response,104,372150,learnblock1,668.9000000357628,img/planet3_right.png,3,Community 1,NA,TRUE,j,j,NA,NA,NA,1,6,"3,5,1,10,15,6,13,12,14,2,7,11,4,8,9"
14411,commdev-image-keyboard-response,105,373402,learnblock1,772.6999999880791,img/planet15_left.png,15,Community 1,NA,TRUE,f,f,NA,NA,NA,1,6,"3,5,1,10,15,6,13,12,14,2,7,11,4,8,9"
14411,commdev-image-keyboard-response,106,374654,learnblock1,596.5,img/planet3_right.png,3,Community 1,NA,TRUE,j,j,NA,NA,NA,1,6,"3,5,1,10,15,6,13,12,14,2,7,11,4,8,9"
14411,commdev-image-keyboard-response,107,375905,learnblock1,689.4000000357628,img/planet15_left.png,15,Community 1,NA,TRUE,f,f,NA,NA,NA,1,6,"3,5,1,10,15,6,13,12,14,2,7,11,4,8,9"
14411,commdev-image-keyboard-response,108,377156,learnblock1,766.9000000357628,img/planet1_right.png,1,Community 1,NA,TRUE,j,j,NA,NA,NA,1,6,"3,5,1,10,15,6,13,12,14,2,7,11,4,8,9"
14411,commdev-image-keyboard-response,109,378408,learnblock1,626.3000000119209,img/planet10_right.png,10,Community 1,NA,TRUE,j,j,NA,NA,NA,1,6,"3,5,1,10,15,6,13,12,14,2,7,11,4,8,9"
14411,commdev-image-keyboard-response,110,379660,learnblock1,612.6000000238419,img/planet3_right.png,3,Community 1,NA,TRUE,j,j,NA,NA,NA,1,6,"3,5,1,10,15,6,13,12,14,2,7,11,4,8,9"
14411,commdev-image-keyboard-response,111,380911,learnblock1,424.5999999642372,img/planet1_right.png,1,Community 1,NA,TRUE,j,j,NA,NA,NA,1,6,"3,5,1,10,15,6,13,12,14,2,7,11,4,8,9"
14411,commdev-image-keyboard-response,112,382163,learnblock1,671.1999999880791,img/planet3_right.png,3,Community 1,NA,TRUE,j,j,NA,NA,NA,1,6,"3,5,1,10,15,6,13,12,14,2,7,11,4,8,9"
14411,commdev-image-keyboard-response,113,383415,learnblock1,544,img/planet1_right.png,1,Community 1,NA,TRUE,j,j,NA,NA,NA,1,6,"3,5,1,10,15,6,13,12,14,2,7,11,4,8,9"
14411,commdev-image-keyboard-response,114,384668,learnblock1,730,img/planet3_right.png,3,Community 1,NA,TRUE,j,j,NA,NA,NA,1,6,"3,5,1,10,15,6,13,12,14,2,7,11,4,8,9"
14411,commdev-image-keyboard-response,115,385920,learnblock1,703.5,img/planet10_right.png,10,Community 1,NA,TRUE,j,j,NA,NA,NA,1,6,"3,5,1,10,15,6,13,12,14,2,7,11,4,8,9"
14411,commdev-image-keyboard-response,116,387172,learnblock1,578.8999999761581,img/planet1_left.png,1,Community 1,NA,TRUE,f,f,NA,NA,NA,1,6,"3,5,1,10,15,6,13,12,14,2,7,11,4,8,9"
14411,commdev-image-keyboard-response,117,388423,learnblock1,580.9000000357628,img/planet15_left.png,15,Community 1,NA,TRUE,f,f,NA,NA,NA,1,6,"3,5,1,10,15,6,13,12,14,2,7,11,4,8,9"
14411,commdev-image-keyboard-response,118,389675,learnblock1,1010.8999999761581,img/planet5_left.png,5,Community 1,NA,TRUE,f,f,NA,NA,NA,1,6,"3,5,1,10,15,6,13,12,14,2,7,11,4,8,9"
14411,commdev-image-keyboard-response,119,390928,learnblock1,767.3000000119209,img/planet10_right.png,10,Community 1,NA,TRUE,j,j,NA,NA,NA,1,6,"3,5,1,10,15,6,13,12,14,2,7,11,4,8,9"
14411,commdev-image-keyboard-response,120,392179,learnblock1,1113.6000000238419,img/planet3_right.png,3,Community 1,NA,TRUE,j,j,NA,NA,NA,1,6,"3,5,1,10,15,6,13,12,14,2,7,11,4,8,9"
14411,commdev-image-keyboard-response,121,393431,learnblock1,769.6000000238419,img/planet10_left.png,10,Community 1,NA,TRUE,f,f,NA,NA,NA,1,6,"3,5,1,10,15,6,13,12,14,2,7,11,4,8,9"
14411,commdev-image-keyboard-response,122,394684,learnblock1,771.2999999523163,img/planet5_right.png,5,Community 1,NA,TRUE,j,j,NA,NA,NA,1,6,"3,5,1,10,15,6,13,12,14,2,7,11,4,8,9"
14411,commdev-image-keyboard-response,123,395935,learnblock1,841.1999999880791,img/planet15_left.png,15,Community 1,NA,TRUE,f,f,NA,NA,NA,1,6,"3,5,1,10,15,6,13,12,14,2,7,11,4,8,9"
14411,commdev-image-keyboard-response,124,397187,learnblock1,null,img/planet3_left.png,3,Community 1,NA,FALSE,null,f,NA,NA,NA,1,6,"3,5,1,10,15,6,13,12,14,2,7,11,4,8,9"
14411,commdev-image-keyboard-response,125,398438,learnblock1,147.89999997615814,img/planet5_left.png,5,Community 1,NA,TRUE,f,f,NA,NA,NA,1,6,"3,5,1,10,15,6,13,12,14,2,7,11,4,8,9"
14411,commdev-image-keyboard-response,126,399690,learnblock1,608.8000000119209,img/planet10_right.png,10,Community 1,NA,TRUE,j,j,NA,NA,NA,1,6,"3,5,1,10,15,6,13,12,14,2,7,11,4,8,9"
14411,commdev-image-keyboard-response,127,400941,learnblock1,796,img/planet1_right.png,1,Community 1,NA,TRUE,j,j,NA,NA,NA,1,6,"3,5,1,10,15,6,13,12,14,2,7,11,4,8,9"
14411,commdev-image-keyboard-response,128,402193,learnblock1,547.8000000119209,img/planet3_right.png,3,Community 1,NA,TRUE,j,j,NA,NA,NA,1,6,"3,5,1,10,15,6,13,12,14,2,7,11,4,8,9"
14411,commdev-image-keyboard-response,129,403458,learnblock1,486,img/planet10_left.png,10,Community 1,NA,TRUE,f,f,NA,NA,NA,1,6,"3,5,1,10,15,6,13,12,14,2,7,11,4,8,9"
14411,commdev-image-keyboard-response,130,404710,learnblock1,629.9000000357628,img/planet3_left.png,3,Community 1,NA,TRUE,f,f,NA,NA,NA,1,6,"3,5,1,10,15,6,13,12,14,2,7,11,4,8,9"
14411,commdev-image-keyboard-response,131,405961,learnblock1,524.8000000119209,img/planet15_left.png,15,Community 1,NA,TRUE,f,f,NA,NA,NA,1,6,"3,5,1,10,15,6,13,12,14,2,7,11,4,8,9"
14411,commdev-image-keyboard-response,132,407214,learnblock1,592.3000000119209,img/planet1_left.png,1,Community 1,NA,TRUE,f,f,NA,NA,NA,1,6,"3,5,1,10,15,6,13,12,14,2,7,11,4,8,9"
14411,commdev-image-keyboard-response,133,408466,learnblock1,494.19999998807907,img/planet15_left.png,15,Community 1,NA,TRUE,f,f,NA,NA,NA,1,6,"3,5,1,10,15,6,13,12,14,2,7,11,4,8,9"
14411,commdev-image-keyboard-response,134,409717,learnblock1,566.0999999642372,img/planet3_right.png,3,Community 1,NA,TRUE,j,j,NA,NA,NA,1,6,"3,5,1,10,15,6,13,12,14,2,7,11,4,8,9"
14411,commdev-image-keyboard-response,135,410968,learnblock1,298.0999999642372,img/planet1_right.png,1,Community 1,NA,TRUE,j,j,NA,NA,NA,1,6,"3,5,1,10,15,6,13,12,14,2,7,11,4,8,9"
14411,commdev-image-keyboard-response,136,412220,learnblock1,553,img/planet3_right.png,3,Community 1,NA,TRUE,j,j,NA,NA,NA,1,6,"3,5,1,10,15,6,13,12,14,2,7,11,4,8,9"
14411,commdev-image-keyboard-response,137,413472,learnblock1,741.7000000476837,img/planet15_left.png,15,Community 1,NA,TRUE,f,f,NA,NA,NA,1,6,"3,5,1,10,15,6,13,12,14,2,7,11,4,8,9"
14411,commdev-image-keyboard-response,138,414724,learnblock1,683.1999999880791,img/planet5_right.png,5,Community 1,NA,TRUE,j,j,NA,NA,NA,1,6,"3,5,1,10,15,6,13,12,14,2,7,11,4,8,9"
14411,commdev-image-keyboard-response,139,415976,learnblock1,710.4000000357628,img/planet3_left.png,3,Community 1,NA,TRUE,f,f,NA,NA,NA,1,6,"3,5,1,10,15,6,13,12,14,2,7,11,4,8,9"
14411,commdev-image-keyboard-response,140,417228,learnblock1,646.5999999642372,img/planet15_right.png,15,Community 1,NA,TRUE,j,j,NA,NA,NA,1,6,"3,5,1,10,15,6,13,12,14,2,7,11,4,8,9"
14411,commdev-image-keyboard-response,141,418479,learnblock1,711.5,img/planet7_right.png,7,Community 3,NA,TRUE,j,j,NA,NA,NA,1,6,"3,5,1,10,15,6,13,12,14,2,7,11,4,8,9"
14411,commdev-image-keyboard-response,142,419731,learnblock1,628.6000000238419,img/planet8_left.png,8,Community 3,NA,TRUE,f,f,NA,NA,NA,1,6,"3,5,1,10,15,6,13,12,14,2,7,11,4,8,9"
14411,commdev-image-keyboard-response,143,420983,learnblock1,517.3000000119209,img/planet9_right.png,9,Community 3,NA,TRUE,j,j,NA,NA,NA,1,6,"3,5,1,10,15,6,13,12,14,2,7,11,4,8,9"
14411,commdev-image-keyboard-response,144,422235,learnblock1,566.8000000119209,img/planet4_left.png,4,Community 3,NA,FALSE,j,f,NA,NA,NA,1,6,"3,5,1,10,15,6,13,12,14,2,7,11,4,8,9"
14411,commdev-image-keyboard-response,145,423488,learnblock1,861.6000000238419,img/planet9_right.png,9,Community 3,NA,TRUE,j,j,NA,NA,NA,1,6,"3,5,1,10,15,6,13,12,14,2,7,11,4,8,9"
14411,commdev-image-keyboard-response,146,424739,learnblock1,750.9000000357628,img/planet7_right.png,7,Community 3,NA,TRUE,j,j,NA,NA,NA,1,6,"3,5,1,10,15,6,13,12,14,2,7,11,4,8,9"
14411,commdev-image-keyboard-response,147,425990,learnblock1,663,img/planet4_right.png,4,Community 3,NA,TRUE,j,j,NA,NA,NA,1,6,"3,5,1,10,15,6,13,12,14,2,7,11,4,8,9"
14411,commdev-image-keyboard-response,148,427241,learnblock1,650.5,img/planet9_left.png,9,Community 3,NA,TRUE,f,f,NA,NA,NA,1,6,"3,5,1,10,15,6,13,12,14,2,7,11,4,8,9"
14411,commdev-image-keyboard-response,149,428493,learnblock1,576.6999999880791,img/planet8_right.png,8,Community 3,NA,TRUE,j,j,NA,NA,NA,1,6,"3,5,1,10,15,6,13,12,14,2,7,11,4,8,9"
14411,commdev-image-keyboard-response,150,429745,learnblock1,807,img/planet4_left.png,4,Community 3,NA,TRUE,f,f,NA,NA,NA,1,6,"3,5,1,10,15,6,13,12,14,2,7,11,4,8,9"
14411,commdev-image-keyboard-response,151,430998,learnblock1,572.1000000238419,img/planet9_left.png,9,Community 3,NA,TRUE,f,f,NA,NA,NA,1,6,"3,5,1,10,15,6,13,12,14,2,7,11,4,8,9"
14411,commdev-image-keyboard-response,152,432250,learnblock1,585.1999999880791,img/planet8_right.png,8,Community 3,NA,TRUE,j,j,NA,NA,NA,1,6,"3,5,1,10,15,6,13,12,14,2,7,11,4,8,9"
14411,commdev-image-keyboard-response,153,433501,learnblock1,556.7000000476837,img/planet4_left.png,4,Community 3,NA,TRUE,f,f,NA,NA,NA,1,6,"3,5,1,10,15,6,13,12,14,2,7,11,4,8,9"
14411,commdev-image-keyboard-response,154,434752,learnblock1,625.8999999761581,img/planet11_right.png,11,Community 3,NA,TRUE,j,j,NA,NA,NA,1,6,"3,5,1,10,15,6,13,12,14,2,7,11,4,8,9"
14411,commdev-image-keyboard-response,155,436006,learnblock1,751.3000000119209,img/planet8_left.png,8,Community 3,NA,TRUE,f,f,NA,NA,NA,1,6,"3,5,1,10,15,6,13,12,14,2,7,11,4,8,9"
14411,commdev-image-keyboard-response,156,437258,learnblock1,717.4000000357628,img/planet7_left.png,7,Community 3,NA,TRUE,f,f,NA,NA,NA,1,6,"3,5,1,10,15,6,13,12,14,2,7,11,4,8,9"
14411,commdev-image-keyboard-response,157,438510,learnblock1,517.3999999761581,img/planet8_left.png,8,Community 3,NA,TRUE,f,f,NA,NA,NA,1,6,"3,5,1,10,15,6,13,12,14,2,7,11,4,8,9"
14411,commdev-image-keyboard-response,158,439762,learnblock1,470,img/planet9_right.png,9,Community 3,NA,TRUE,j,j,NA,NA,NA,1,6,"3,5,1,10,15,6,13,12,14,2,7,11,4,8,9"
14411,commdev-image-keyboard-response,159,441013,learnblock1,1050.7000000476837,img/planet7_right.png,7,Community 3,NA,TRUE,j,j,NA,NA,NA,1,6,"3,5,1,10,15,6,13,12,14,2,7,11,4,8,9"
14411,commdev-image-keyboard-response,160,442265,learnblock1,685.6999999880791,img/planet9_right.png,9,Community 3,NA,TRUE,j,j,NA,NA,NA,1,6,"3,5,1,10,15,6,13,12,14,2,7,11,4,8,9"
14411,commdev-image-keyboard-response,161,443517,learnblock1,428.19999998807907,img/planet11_left.png,11,Community 3,NA,TRUE,f,f,NA,NA,NA,1,6,"3,5,1,10,15,6,13,12,14,2,7,11,4,8,9"
14411,commdev-image-keyboard-response,162,444768,learnblock1,579.3000000119209,img/planet4_right.png,4,Community 3,NA,TRUE,j,j,NA,NA,NA,1,6,"3,5,1,10,15,6,13,12,14,2,7,11,4,8,9"
14411,commdev-image-keyboard-response,163,446020,learnblock1,530.5,img/planet9_left.png,9,Community 3,NA,TRUE,f,f,NA,NA,NA,1,6,"3,5,1,10,15,6,13,12,14,2,7,11,4,8,9"
14411,commdev-image-keyboard-response,164,447272,learnblock1,979.3999999761581,img/planet7_right.png,7,Community 3,NA,TRUE,j,j,NA,NA,NA,1,6,"3,5,1,10,15,6,13,12,14,2,7,11,4,8,9"
14411,commdev-image-keyboard-response,165,448524,learnblock1,711,img/planet8_left.png,8,Community 3,NA,TRUE,f,f,NA,NA,NA,1,6,"3,5,1,10,15,6,13,12,14,2,7,11,4,8,9"
14411,commdev-image-keyboard-response,166,449775,learnblock1,608.3999999761581,img/planet9_left.png,9,Community 3,NA,TRUE,f,f,NA,NA,NA,1,6,"3,5,1,10,15,6,13,12,14,2,7,11,4,8,9"
14411,commdev-image-keyboard-response,167,451027,learnblock1,559,img/planet8_left.png,8,Community 3,NA,TRUE,f,f,NA,NA,NA,1,6,"3,5,1,10,15,6,13,12,14,2,7,11,4,8,9"
14411,commdev-image-keyboard-response,168,452279,learnblock1,628.3999999761581,img/planet7_left.png,7,Community 3,NA,TRUE,f,f,NA,NA,NA,1,6,"3,5,1,10,15,6,13,12,14,2,7,11,4,8,9"
14411,commdev-image-keyboard-response,169,453530,learnblock1,986.5999999642372,img/planet15_left.png,15,Community 1,NA,TRUE,f,f,NA,NA,NA,1,6,"3,5,1,10,15,6,13,12,14,2,7,11,4,8,9"
14411,commdev-image-keyboard-response,170,454781,learnblock1,610.6999999880791,img/planet1_right.png,1,Community 1,NA,TRUE,j,j,NA,NA,NA,1,6,"3,5,1,10,15,6,13,12,14,2,7,11,4,8,9"
14411,commdev-image-keyboard-response,171,456033,learnblock1,855.1000000238419,img/planet15_left.png,15,Community 1,NA,TRUE,f,f,NA,NA,NA,1,6,"3,5,1,10,15,6,13,12,14,2,7,11,4,8,9"
14411,commdev-image-keyboard-response,172,457286,learnblock1,663.6999999880791,img/planet3_right.png,3,Community 1,NA,TRUE,j,j,NA,NA,NA,1,6,"3,5,1,10,15,6,13,12,14,2,7,11,4,8,9"
14411,commdev-image-keyboard-response,173,458538,learnblock1,708.4000000357628,img/planet10_right.png,10,Community 1,NA,TRUE,j,j,NA,NA,NA,1,6,"3,5,1,10,15,6,13,12,14,2,7,11,4,8,9"
14411,commdev-image-keyboard-response,174,459789,learnblock1,640.6000000238419,img/planet1_left.png,1,Community 1,NA,TRUE,f,f,NA,NA,NA,1,6,"3,5,1,10,15,6,13,12,14,2,7,11,4,8,9"
14411,commdev-image-keyboard-response,175,461041,learnblock1,702.1000000238419,img/planet3_right.png,3,Community 1,NA,TRUE,j,j,NA,NA,NA,1,6,"3,5,1,10,15,6,13,12,14,2,7,11,4,8,9"
14411,commdev-image-keyboard-response,176,462292,learnblock1,738.5999999642372,img/planet15_right.png,15,Community 1,NA,TRUE,j,j,NA,NA,NA,1,6,"3,5,1,10,15,6,13,12,14,2,7,11,4,8,9"
14411,commdev-image-keyboard-response,177,463544,learnblock1,579,img/planet7_right.png,7,Community 3,NA,TRUE,j,j,NA,NA,NA,1,6,"3,5,1,10,15,6,13,12,14,2,7,11,4,8,9"
14411,commdev-image-keyboard-response,178,464796,learnblock1,815.5,img/planet8_left.png,8,Community 3,NA,TRUE,f,f,NA,NA,NA,1,6,"3,5,1,10,15,6,13,12,14,2,7,11,4,8,9"
14411,commdev-image-keyboard-response,179,466048,learnblock1,748.5,img/planet7_left.png,7,Community 3,NA,TRUE,f,f,NA,NA,NA,1,6,"3,5,1,10,15,6,13,12,14,2,7,11,4,8,9"
14411,commdev-image-keyboard-response,180,467300,learnblock1,435.30000001192093,img/planet9_right.png,9,Community 3,NA,TRUE,j,j,NA,NA,NA,1,6,"3,5,1,10,15,6,13,12,14,2,7,11,4,8,9"
14411,commdev-image-keyboard-response,181,468551,learnblock1,580,img/planet7_right.png,7,Community 3,NA,TRUE,j,j,NA,NA,NA,1,6,"3,5,1,10,15,6,13,12,14,2,7,11,4,8,9"
14411,commdev-image-keyboard-response,182,469803,learnblock1,650.5999999642372,img/planet9_left.png,9,Community 3,NA,TRUE,f,f,NA,NA,NA,1,6,"3,5,1,10,15,6,13,12,14,2,7,11,4,8,9"
14411,commdev-image-keyboard-response,183,471055,learnblock1,602.1999999880791,img/planet8_left.png,8,Community 3,NA,TRUE,f,f,NA,NA,NA,1,6,"3,5,1,10,15,6,13,12,14,2,7,11,4,8,9"
14411,commdev-image-keyboard-response,184,472306,learnblock1,652,img/planet4_right.png,4,Community 3,NA,TRUE,j,j,NA,NA,NA,1,6,"3,5,1,10,15,6,13,12,14,2,7,11,4,8,9"
14411,commdev-image-keyboard-response,185,473558,learnblock1,547.6999999880791,img/planet9_left.png,9,Community 3,NA,FALSE,j,f,NA,NA,NA,1,6,"3,5,1,10,15,6,13,12,14,2,7,11,4,8,9"
14411,commdev-image-keyboard-response,186,474809,learnblock1,742.2999999523163,img/planet7_left.png,7,Community 3,NA,TRUE,f,f,NA,NA,NA,1,6,"3,5,1,10,15,6,13,12,14,2,7,11,4,8,9"
14411,commdev-image-keyboard-response,187,476062,learnblock1,614.4000000357628,img/planet4_right.png,4,Community 3,NA,TRUE,j,j,NA,NA,NA,1,6,"3,5,1,10,15,6,13,12,14,2,7,11,4,8,9"
14411,commdev-image-keyboard-response,188,477313,learnblock1,652,img/planet7_right.png,7,Community 3,NA,TRUE,j,j,NA,NA,NA,1,6,"3,5,1,10,15,6,13,12,14,2,7,11,4,8,9"
14411,commdev-image-keyboard-response,189,478564,learnblock1,605.9000000357628,img/planet15_left.png,15,Community 1,NA,TRUE,f,f,NA,NA,NA,1,6,"3,5,1,10,15,6,13,12,14,2,7,11,4,8,9"
14411,commdev-image-keyboard-response,190,479815,learnblock1,602.7000000476837,img/planet3_right.png,3,Community 1,NA,TRUE,j,j,NA,NA,NA,1,6,"3,5,1,10,15,6,13,12,14,2,7,11,4,8,9"
14411,commdev-image-keyboard-response,191,481070,learnblock1,592,img/planet1_right.png,1,Community 1,NA,TRUE,j,j,NA,NA,NA,1,6,"3,5,1,10,15,6,13,12,14,2,7,11,4,8,9"
14411,commdev-image-keyboard-response,192,482321,learnblock1,542.1999999880791,img/planet5_right.png,5,Community 1,NA,TRUE,j,j,NA,NA,NA,1,6,"3,5,1,10,15,6,13,12,14,2,7,11,4,8,9"
14411,commdev-image-keyboard-response,193,483574,learnblock1,542.3000000119209,img/planet15_left.png,15,Community 1,NA,TRUE,f,f,NA,NA,NA,1,6,"3,5,1,10,15,6,13,12,14,2,7,11,4,8,9"
14411,commdev-image-keyboard-response,194,484824,learnblock1,684.9000000357628,img/planet7_left.png,7,Community 3,NA,TRUE,f,f,NA,NA,NA,1,6,"3,5,1,10,15,6,13,12,14,2,7,11,4,8,9"
14411,commdev-image-keyboard-response,195,486076,learnblock1,779.4000000357628,img/planet9_left.png,9,Community 3,NA,TRUE,f,f,NA,NA,NA,1,6,"3,5,1,10,15,6,13,12,14,2,7,11,4,8,9"
14411,commdev-image-keyboard-response,196,487328,learnblock1,612.5,img/planet11_left.png,11,Community 3,NA,TRUE,f,f,NA,NA,NA,1,6,"3,5,1,10,15,6,13,12,14,2,7,11,4,8,9"
14411,commdev-image-keyboard-response,197,488580,learnblock1,790.3999999761581,img/planet8_right.png,8,Community 3,NA,TRUE,j,j,NA,NA,NA,1,6,"3,5,1,10,15,6,13,12,14,2,7,11,4,8,9"
14411,commdev-image-keyboard-response,198,489831,learnblock1,986,img/planet11_left.png,11,Community 3,NA,TRUE,f,f,NA,NA,NA,1,6,"3,5,1,10,15,6,13,12,14,2,7,11,4,8,9"
14411,commdev-image-keyboard-response,199,491083,learnblock1,670.5,img/planet8_right.png,8,Community 3,NA,TRUE,j,j,NA,NA,NA,1,6,"3,5,1,10,15,6,13,12,14,2,7,11,4,8,9"
14411,commdev-image-keyboard-response,200,492335,learnblock1,717.3000000119209,img/planet4_left.png,4,Community 3,NA,TRUE,f,f,NA,NA,NA,1,6,"3,5,1,10,15,6,13,12,14,2,7,11,4,8,9"
14411,commdev-image-keyboard-response,201,493587,learnblock1,552.5,img/planet9_right.png,9,Community 3,NA,TRUE,j,j,NA,NA,NA,1,6,"3,5,1,10,15,6,13,12,14,2,7,11,4,8,9"
14411,commdev-image-keyboard-response,202,494839,learnblock1,377.60000002384186,img/planet4_right.png,4,Community 3,NA,FALSE,f,j,NA,NA,NA,1,6,"3,5,1,10,15,6,13,12,14,2,7,11,4,8,9"
14411,commdev-image-keyboard-response,203,496091,learnblock1,565.5,img/planet11_left.png,11,Community 3,NA,TRUE,f,f,NA,NA,NA,1,6,"3,5,1,10,15,6,13,12,14,2,7,11,4,8,9"
14411,commdev-image-keyboard-response,204,497343,learnblock1,606.1999999880791,img/planet9_left.png,9,Community 3,NA,TRUE,f,f,NA,NA,NA,1,6,"3,5,1,10,15,6,13,12,14,2,7,11,4,8,9"
14411,commdev-image-keyboard-response,205,498594,learnblock1,717.1000000238419,img/planet8_left.png,8,Community 3,NA,TRUE,f,f,NA,NA,NA,1,6,"3,5,1,10,15,6,13,12,14,2,7,11,4,8,9"
14411,commdev-image-keyboard-response,206,499846,learnblock1,518.4000000357628,img/planet7_right.png,7,Community 3,NA,TRUE,j,j,NA,NA,NA,1,6,"3,5,1,10,15,6,13,12,14,2,7,11,4,8,9"
14411,commdev-image-keyboard-response,207,501107,learnblock1,518.5,img/planet4_right.png,4,Community 3,NA,TRUE,j,j,NA,NA,NA,1,6,"3,5,1,10,15,6,13,12,14,2,7,11,4,8,9"
14411,commdev-image-keyboard-response,208,502359,learnblock1,399.60000002384186,img/planet8_right.png,8,Community 3,NA,TRUE,j,j,NA,NA,NA,1,6,"3,5,1,10,15,6,13,12,14,2,7,11,4,8,9"
14411,commdev-image-keyboard-response,209,503611,learnblock1,706.8000000119209,img/planet9_left.png,9,Community 3,NA,TRUE,f,f,NA,NA,NA,1,6,"3,5,1,10,15,6,13,12,14,2,7,11,4,8,9"
14411,commdev-image-keyboard-response,210,504862,learnblock1,581.2999999523163,img/planet8_right.png,8,Community 3,NA,TRUE,j,j,NA,NA,NA,1,6,"3,5,1,10,15,6,13,12,14,2,7,11,4,8,9"
14411,commdev-image-keyboard-response,211,506114,learnblock1,555.1000000238419,img/planet7_right.png,7,Community 3,NA,TRUE,j,j,NA,NA,NA,1,6,"3,5,1,10,15,6,13,12,14,2,7,11,4,8,9"
14411,commdev-image-keyboard-response,212,507367,learnblock1,689.5,img/planet9_left.png,9,Community 3,NA,TRUE,f,f,NA,NA,NA,1,6,"3,5,1,10,15,6,13,12,14,2,7,11,4,8,9"
14411,commdev-image-keyboard-response,213,508619,learnblock1,552.7000000476837,img/planet7_right.png,7,Community 3,NA,TRUE,j,j,NA,NA,NA,1,6,"3,5,1,10,15,6,13,12,14,2,7,11,4,8,9"
14411,commdev-image-keyboard-response,214,509870,learnblock1,476,img/planet8_left.png,8,Community 3,NA,TRUE,f,f,NA,NA,NA,1,6,"3,5,1,10,15,6,13,12,14,2,7,11,4,8,9"
14411,commdev-image-keyboard-response,215,511122,learnblock1,1207.5,img/planet4_left.png,4,Community 3,NA,TRUE,f,f,NA,NA,NA,1,6,"3,5,1,10,15,6,13,12,14,2,7,11,4,8,9"
14411,commdev-image-keyboard-response,216,512374,learnblock1,655.3000000119209,img/planet9_left.png,9,Community 3,NA,TRUE,f,f,NA,NA,NA,1,6,"3,5,1,10,15,6,13,12,14,2,7,11,4,8,9"
14411,commdev-image-keyboard-response,217,513626,learnblock1,554.1999999880791,img/planet11_left.png,11,Community 3,NA,TRUE,f,f,NA,NA,NA,1,6,"3,5,1,10,15,6,13,12,14,2,7,11,4,8,9"
14411,commdev-image-keyboard-response,218,514878,learnblock1,517.2000000476837,img/planet12_right.png,12,Community 2,NA,TRUE,j,j,NA,NA,NA,1,6,"3,5,1,10,15,6,13,12,14,2,7,11,4,8,9"
14411,commdev-image-keyboard-response,219,516129,learnblock1,639.3999999761581,img/planet11_left.png,11,Community 3,NA,TRUE,f,f,NA,NA,NA,1,6,"3,5,1,10,15,6,13,12,14,2,7,11,4,8,9"
14411,commdev-image-keyboard-response,220,517381,learnblock1,543.3000000119209,img/planet9_right.png,9,Community 3,NA,TRUE,j,j,NA,NA,NA,1,6,"3,5,1,10,15,6,13,12,14,2,7,11,4,8,9"
14411,commdev-image-keyboard-response,221,518633,learnblock1,676.2000000476837,img/planet7_right.png,7,Community 3,NA,TRUE,j,j,NA,NA,NA,1,6,"3,5,1,10,15,6,13,12,14,2,7,11,4,8,9"
14411,commdev-image-keyboard-response,222,519885,learnblock1,817.5,img/planet4_right.png,4,Community 3,NA,TRUE,j,j,NA,NA,NA,1,6,"3,5,1,10,15,6,13,12,14,2,7,11,4,8,9"
14411,commdev-image-keyboard-response,223,521137,learnblock1,1101.300000011921,img/planet7_left.png,7,Community 3,NA,FALSE,j,f,NA,NA,NA,1,6,"3,5,1,10,15,6,13,12,14,2,7,11,4,8,9"
14411,commdev-image-keyboard-response,224,522388,learnblock1,751.8999999761581,img/planet15_right.png,15,Community 1,NA,TRUE,j,j,NA,NA,NA,1,6,"3,5,1,10,15,6,13,12,14,2,7,11,4,8,9"
14411,commdev-image-keyboard-response,225,523640,learnblock1,598.7000000476837,img/planet5_right.png,5,Community 1,NA,TRUE,j,j,NA,NA,NA,1,6,"3,5,1,10,15,6,13,12,14,2,7,11,4,8,9"
14411,commdev-image-keyboard-response,226,524891,learnblock1,517.3000000119209,img/planet10_left.png,10,Community 1,NA,TRUE,f,f,NA,NA,NA,1,6,"3,5,1,10,15,6,13,12,14,2,7,11,4,8,9"
14411,commdev-image-keyboard-response,227,526143,learnblock1,812.3999999761581,img/planet5_left.png,5,Community 1,NA,TRUE,f,f,NA,NA,NA,1,6,"3,5,1,10,15,6,13,12,14,2,7,11,4,8,9"
14411,commdev-image-keyboard-response,228,527396,learnblock1,512.8999999761581,img/planet10_left.png,10,Community 1,NA,TRUE,f,f,NA,NA,NA,1,6,"3,5,1,10,15,6,13,12,14,2,7,11,4,8,9"
14411,commdev-image-keyboard-response,229,528648,learnblock1,720.5,img/planet1_left.png,1,Community 1,NA,TRUE,f,f,NA,NA,NA,1,6,"3,5,1,10,15,6,13,12,14,2,7,11,4,8,9"
14411,commdev-image-keyboard-response,230,529901,learnblock1,876,img/planet3_left.png,3,Community 1,NA,TRUE,f,f,NA,NA,NA,1,6,"3,5,1,10,15,6,13,12,14,2,7,11,4,8,9"
14411,commdev-image-keyboard-response,231,531151,learnblock1,853.5,img/planet10_right.png,10,Community 1,NA,TRUE,j,j,NA,NA,NA,1,6,"3,5,1,10,15,6,13,12,14,2,7,11,4,8,9"
14411,commdev-image-keyboard-response,232,532404,learnblock1,982.1999999880791,img/planet5_left.png,5,Community 1,NA,TRUE,f,f,NA,NA,NA,1,6,"3,5,1,10,15,6,13,12,14,2,7,11,4,8,9"
14411,commdev-image-keyboard-response,233,533656,learnblock1,891.6999999880791,img/planet10_left.png,10,Community 1,NA,TRUE,f,f,NA,NA,NA,1,6,"3,5,1,10,15,6,13,12,14,2,7,11,4,8,9"
14411,commdev-image-keyboard-response,234,534908,learnblock1,778.1999999880791,img/planet1_right.png,1,Community 1,NA,TRUE,j,j,NA,NA,NA,1,6,"3,5,1,10,15,6,13,12,14,2,7,11,4,8,9"
14411,commdev-image-keyboard-response,235,536160,learnblock1,461.5999999642372,img/planet5_left.png,5,Community 1,NA,TRUE,f,f,NA,NA,NA,1,6,"3,5,1,10,15,6,13,12,14,2,7,11,4,8,9"
14411,commdev-image-keyboard-response,236,537412,learnblock1,572.6000000238419,img/planet1_left.png,1,Community 1,NA,TRUE,f,f,NA,NA,NA,1,6,"3,5,1,10,15,6,13,12,14,2,7,11,4,8,9"
14411,commdev-image-keyboard-response,237,538663,learnblock1,1070.5,img/planet10_left.png,10,Community 1,NA,TRUE,f,f,NA,NA,NA,1,6,"3,5,1,10,15,6,13,12,14,2,7,11,4,8,9"
14411,commdev-image-keyboard-response,238,539916,learnblock1,768.8000000119209,img/planet6_left.png,6,Community 2,NA,TRUE,f,f,NA,NA,NA,1,6,"3,5,1,10,15,6,13,12,14,2,7,11,4,8,9"
14411,commdev-image-keyboard-response,239,541168,learnblock1,667,img/planet14_left.png,14,Community 2,NA,TRUE,f,f,NA,NA,NA,1,6,"3,5,1,10,15,6,13,12,14,2,7,11,4,8,9"
14411,commdev-image-keyboard-response,240,542421,learnblock1,397.30000001192093,img/planet13_right.png,13,Community 2,NA,FALSE,f,j,NA,NA,NA,1,6,"3,5,1,10,15,6,13,12,14,2,7,11,4,8,9"
14411,commdev-image-keyboard-response,241,543672,learnblock1,605.5,img/planet6_right.png,6,Community 2,NA,TRUE,j,j,NA,NA,NA,1,6,"3,5,1,10,15,6,13,12,14,2,7,11,4,8,9"
14411,commdev-image-keyboard-response,242,544928,learnblock1,272.89999997615814,img/planet13_right.png,13,Community 2,NA,TRUE,j,j,NA,NA,NA,1,6,"3,5,1,10,15,6,13,12,14,2,7,11,4,8,9"
14411,commdev-image-keyboard-response,243,546180,learnblock1,447.5,img/planet12_left.png,12,Community 2,NA,FALSE,j,f,NA,NA,NA,1,6,"3,5,1,10,15,6,13,12,14,2,7,11,4,8,9"
14411,commdev-image-keyboard-response,244,547432,learnblock1,672.6999999880791,img/planet11_right.png,11,Community 3,NA,TRUE,j,j,NA,NA,NA,1,6,"3,5,1,10,15,6,13,12,14,2,7,11,4,8,9"
14411,commdev-image-keyboard-response,245,548684,learnblock1,643.5,img/planet8_right.png,8,Community 3,NA,TRUE,j,j,NA,NA,NA,1,6,"3,5,1,10,15,6,13,12,14,2,7,11,4,8,9"
14411,commdev-image-keyboard-response,246,549936,learnblock1,467.2999999523163,img/planet9_right.png,9,Community 3,NA,TRUE,j,j,NA,NA,NA,1,6,"3,5,1,10,15,6,13,12,14,2,7,11,4,8,9"
14411,commdev-image-keyboard-response,247,551188,learnblock1,523.1999999880791,img/planet7_left.png,7,Community 3,NA,TRUE,f,f,NA,NA,NA,1,6,"3,5,1,10,15,6,13,12,14,2,7,11,4,8,9"
14411,commdev-image-keyboard-response,248,552453,learnblock1,597.6999999880791,img/planet15_right.png,15,Community 1,NA,TRUE,j,j,NA,NA,NA,1,6,"3,5,1,10,15,6,13,12,14,2,7,11,4,8,9"
14411,commdev-image-keyboard-response,249,553718,learnblock1,871.9000000357628,img/planet7_left.png,7,Community 3,NA,TRUE,f,f,NA,NA,NA,1,6,"3,5,1,10,15,6,13,12,14,2,7,11,4,8,9"
14411,commdev-image-keyboard-response,250,554970,learnblock1,770.5,img/planet8_left.png,8,Community 3,NA,TRUE,f,f,NA,NA,NA,1,6,"3,5,1,10,15,6,13,12,14,2,7,11,4,8,9"
14411,commdev-image-keyboard-response,251,556222,learnblock1,633.3999999761581,img/planet9_right.png,9,Community 3,NA,TRUE,j,j,NA,NA,NA,1,6,"3,5,1,10,15,6,13,12,14,2,7,11,4,8,9"
14411,commdev-image-keyboard-response,252,557474,learnblock1,739.2000000476837,img/planet7_right.png,7,Community 3,NA,TRUE,j,j,NA,NA,NA,1,6,"3,5,1,10,15,6,13,12,14,2,7,11,4,8,9"
14411,commdev-image-keyboard-response,253,558725,learnblock1,573,img/planet15_left.png,15,Community 1,NA,TRUE,f,f,NA,NA,NA,1,6,"3,5,1,10,15,6,13,12,14,2,7,11,4,8,9"
14411,commdev-image-keyboard-response,254,559976,learnblock1,781.1000000238419,img/planet1_right.png,1,Community 1,NA,FALSE,f,j,NA,NA,NA,1,6,"3,5,1,10,15,6,13,12,14,2,7,11,4,8,9"
14411,commdev-image-keyboard-response,255,561229,learnblock1,605.3000000119209,img/planet3_right.png,3,Community 1,NA,TRUE,j,j,NA,NA,NA,1,6,"3,5,1,10,15,6,13,12,14,2,7,11,4,8,9"
14411,commdev-image-keyboard-response,256,562481,learnblock1,508.89999997615814,img/planet10_right.png,10,Community 1,NA,TRUE,j,j,NA,NA,NA,1,6,"3,5,1,10,15,6,13,12,14,2,7,11,4,8,9"
14411,commdev-image-keyboard-response,257,563732,learnblock1,549.3999999761581,img/planet1_left.png,1,Community 1,NA,TRUE,f,f,NA,NA,NA,1,6,"3,5,1,10,15,6,13,12,14,2,7,11,4,8,9"
14411,commdev-image-keyboard-response,258,564985,learnblock1,559.6999999880791,img/planet15_left.png,15,Community 1,NA,TRUE,f,f,NA,NA,NA,1,6,"3,5,1,10,15,6,13,12,14,2,7,11,4,8,9"
14411,commdev-image-keyboard-response,259,566237,learnblock1,661.7999999523163,img/planet7_left.png,7,Community 3,NA,TRUE,f,f,NA,NA,NA,1,6,"3,5,1,10,15,6,13,12,14,2,7,11,4,8,9"
14411,commdev-image-keyboard-response,260,567489,learnblock1,584.6999999880791,img/planet9_right.png,9,Community 3,NA,TRUE,j,j,NA,NA,NA,1,6,"3,5,1,10,15,6,13,12,14,2,7,11,4,8,9"
14411,commdev-image-keyboard-response,261,568740,learnblock1,617.3000000119209,img/planet8_right.png,8,Community 3,NA,TRUE,j,j,NA,NA,NA,1,6,"3,5,1,10,15,6,13,12,14,2,7,11,4,8,9"
14411,commdev-image-keyboard-response,262,569991,learnblock1,521.1000000238419,img/planet4_right.png,4,Community 3,NA,TRUE,j,j,NA,NA,NA,1,6,"3,5,1,10,15,6,13,12,14,2,7,11,4,8,9"
14411,commdev-image-keyboard-response,263,571242,learnblock1,343.80000001192093,img/planet7_right.png,7,Community 3,NA,TRUE,j,j,NA,NA,NA,1,6,"3,5,1,10,15,6,13,12,14,2,7,11,4,8,9"
14411,commdev-image-keyboard-response,264,572494,learnblock1,485,img/planet9_right.png,9,Community 3,NA,TRUE,j,j,NA,NA,NA,1,6,"3,5,1,10,15,6,13,12,14,2,7,11,4,8,9"
14411,commdev-image-keyboard-response,265,573746,learnblock1,696.0999999642372,img/planet7_left.png,7,Community 3,NA,TRUE,f,f,NA,NA,NA,1,6,"3,5,1,10,15,6,13,12,14,2,7,11,4,8,9"
14411,commdev-image-keyboard-response,266,574998,learnblock1,586.6000000238419,img/planet8_right.png,8,Community 3,NA,FALSE,f,j,NA,NA,NA,1,6,"3,5,1,10,15,6,13,12,14,2,7,11,4,8,9"
14411,commdev-image-keyboard-response,267,576249,learnblock1,92.10000002384186,img/planet11_left.png,11,Community 3,NA,FALSE,j,f,NA,NA,NA,1,6,"3,5,1,10,15,6,13,12,14,2,7,11,4,8,9"
14411,commdev-image-keyboard-response,268,577501,learnblock1,867.1999999880791,img/planet8_left.png,8,Community 3,NA,TRUE,f,f,NA,NA,NA,1,6,"3,5,1,10,15,6,13,12,14,2,7,11,4,8,9"
14411,commdev-image-keyboard-response,269,578753,learnblock1,724.6999999880791,img/planet7_left.png,7,Community 3,NA,TRUE,f,f,NA,NA,NA,1,6,"3,5,1,10,15,6,13,12,14,2,7,11,4,8,9"
14411,commdev-image-keyboard-response,270,580005,learnblock1,883.3000000119209,img/planet4_left.png,4,Community 3,NA,TRUE,f,f,NA,NA,NA,1,6,"3,5,1,10,15,6,13,12,14,2,7,11,4,8,9"
14411,commdev-image-keyboard-response,271,581257,learnblock1,600,img/planet7_right.png,7,Community 3,NA,TRUE,j,j,NA,NA,NA,1,6,"3,5,1,10,15,6,13,12,14,2,7,11,4,8,9"
14411,commdev-image-keyboard-response,272,582521,learnblock1,749.5,img/planet4_left.png,4,Community 3,NA,FALSE,j,f,NA,NA,NA,1,6,"3,5,1,10,15,6,13,12,14,2,7,11,4,8,9"
14411,commdev-image-keyboard-response,273,583772,learnblock1,1049.6000000238419,img/planet11_left.png,11,Community 3,NA,TRUE,f,f,NA,NA,NA,1,6,"3,5,1,10,15,6,13,12,14,2,7,11,4,8,9"
14411,commdev-image-keyboard-response,274,585025,learnblock1,622.3999999761581,img/planet8_left.png,8,Community 3,NA,TRUE,f,f,NA,NA,NA,1,6,"3,5,1,10,15,6,13,12,14,2,7,11,4,8,9"
14411,commdev-image-keyboard-response,275,586276,learnblock1,547.6000000238419,img/planet7_right.png,7,Community 3,NA,TRUE,j,j,NA,NA,NA,1,6,"3,5,1,10,15,6,13,12,14,2,7,11,4,8,9"
14411,commdev-image-keyboard-response,276,587528,learnblock1,581.3999999761581,img/planet8_left.png,8,Community 3,NA,TRUE,f,f,NA,NA,NA,1,6,"3,5,1,10,15,6,13,12,14,2,7,11,4,8,9"
14411,commdev-image-keyboard-response,277,588779,learnblock1,515.5,img/planet4_right.png,4,Community 3,NA,TRUE,j,j,NA,NA,NA,1,6,"3,5,1,10,15,6,13,12,14,2,7,11,4,8,9"
14411,commdev-image-keyboard-response,278,590031,learnblock1,514.6999999880791,img/planet9_right.png,9,Community 3,NA,TRUE,j,j,NA,NA,NA,1,6,"3,5,1,10,15,6,13,12,14,2,7,11,4,8,9"
14411,commdev-image-keyboard-response,279,591283,learnblock1,678.9000000357628,img/planet11_right.png,11,Community 3,NA,TRUE,j,j,NA,NA,NA,1,6,"3,5,1,10,15,6,13,12,14,2,7,11,4,8,9"
14411,commdev-image-keyboard-response,280,592534,learnblock1,448.69999998807907,img/planet12_left.png,12,Community 2,NA,TRUE,f,f,NA,NA,NA,1,6,"3,5,1,10,15,6,13,12,14,2,7,11,4,8,9"
14411,commdev-image-keyboard-response,281,593785,learnblock1,795.8999999761581,img/planet11_right.png,11,Community 3,NA,TRUE,j,j,NA,NA,NA,1,6,"3,5,1,10,15,6,13,12,14,2,7,11,4,8,9"
14411,commdev-image-keyboard-response,282,595036,learnblock1,463.69999998807907,img/planet9_right.png,9,Community 3,NA,TRUE,j,j,NA,NA,NA,1,6,"3,5,1,10,15,6,13,12,14,2,7,11,4,8,9"
14411,commdev-image-keyboard-response,283,596288,learnblock1,472.60000002384186,img/planet7_left.png,7,Community 3,NA,FALSE,j,f,NA,NA,NA,1,6,"3,5,1,10,15,6,13,12,14,2,7,11,4,8,9"
14411,commdev-image-keyboard-response,284,597539,learnblock1,701.3999999761581,img/planet9_left.png,9,Community 3,NA,TRUE,f,f,NA,NA,NA,1,6,"3,5,1,10,15,6,13,12,14,2,7,11,4,8,9"
14411,commdev-image-keyboard-response,285,598792,learnblock1,559.8000000119209,img/planet4_left.png,4,Community 3,NA,TRUE,f,f,NA,NA,NA,1,6,"3,5,1,10,15,6,13,12,14,2,7,11,4,8,9"
14411,commdev-image-keyboard-response,286,600044,learnblock1,667.1000000238419,img/planet7_right.png,7,Community 3,NA,TRUE,j,j,NA,NA,NA,1,6,"3,5,1,10,15,6,13,12,14,2,7,11,4,8,9"
14411,commdev-image-keyboard-response,287,601295,learnblock1,703.8000000119209,img/planet8_left.png,8,Community 3,NA,TRUE,f,f,NA,NA,NA,1,6,"3,5,1,10,15,6,13,12,14,2,7,11,4,8,9"
14411,commdev-image-keyboard-response,288,602546,learnblock1,660.0999999642372,img/planet11_right.png,11,Community 3,NA,TRUE,j,j,NA,NA,NA,1,6,"3,5,1,10,15,6,13,12,14,2,7,11,4,8,9"
14411,commdev-image-keyboard-response,289,603797,learnblock1,464,img/planet8_left.png,8,Community 3,NA,TRUE,f,f,NA,NA,NA,1,6,"3,5,1,10,15,6,13,12,14,2,7,11,4,8,9"
14411,commdev-image-keyboard-response,290,605050,learnblock1,535.8999999761581,img/planet11_left.png,11,Community 3,NA,TRUE,f,f,NA,NA,NA,1,6,"3,5,1,10,15,6,13,12,14,2,7,11,4,8,9"
14411,commdev-image-keyboard-response,291,606301,learnblock1,678,img/planet8_left.png,8,Community 3,NA,TRUE,f,f,NA,NA,NA,1,6,"3,5,1,10,15,6,13,12,14,2,7,11,4,8,9"
14411,commdev-image-keyboard-response,292,607553,learnblock1,570.6999999880791,img/planet11_right.png,11,Community 3,NA,TRUE,j,j,NA,NA,NA,1,6,"3,5,1,10,15,6,13,12,14,2,7,11,4,8,9"
14411,commdev-image-keyboard-response,293,608803,learnblock1,632.1000000238419,img/planet12_left.png,12,Community 2,NA,TRUE,f,f,NA,NA,NA,1,6,"3,5,1,10,15,6,13,12,14,2,7,11,4,8,9"
14411,commdev-image-keyboard-response,294,610055,learnblock1,689.3000000119209,img/planet2_right.png,2,Community 2,NA,TRUE,j,j,NA,NA,NA,1,6,"3,5,1,10,15,6,13,12,14,2,7,11,4,8,9"
14411,commdev-image-keyboard-response,295,611307,learnblock1,640.2999999523163,img/planet13_right.png,13,Community 2,NA,TRUE,j,j,NA,NA,NA,1,6,"3,5,1,10,15,6,13,12,14,2,7,11,4,8,9"
14411,commdev-image-keyboard-response,296,612560,learnblock1,581.1000000238419,img/planet2_right.png,2,Community 2,NA,TRUE,j,j,NA,NA,NA,1,6,"3,5,1,10,15,6,13,12,14,2,7,11,4,8,9"
14411,commdev-image-keyboard-response,297,613811,learnblock1,675,img/planet12_left.png,12,Community 2,NA,TRUE,f,f,NA,NA,NA,1,6,"3,5,1,10,15,6,13,12,14,2,7,11,4,8,9"
14411,commdev-image-keyboard-response,298,615063,learnblock1,808.1999999880791,img/planet13_left.png,13,Community 2,NA,TRUE,f,f,NA,NA,NA,1,6,"3,5,1,10,15,6,13,12,14,2,7,11,4,8,9"
14411,commdev-image-keyboard-response,299,616315,learnblock1,552.9000000357628,img/planet2_right.png,2,Community 2,NA,TRUE,j,j,NA,NA,NA,1,6,"3,5,1,10,15,6,13,12,14,2,7,11,4,8,9"
14411,commdev-image-keyboard-response,300,617567,learnblock1,556.3999999761581,img/planet12_left.png,12,Community 2,NA,TRUE,f,f,NA,NA,NA,1,6,"3,5,1,10,15,6,13,12,14,2,7,11,4,8,9"
14411,commdev-image-keyboard-response,301,618818,learnblock1,697.6999999880791,img/planet14_left.png,14,Community 2,NA,TRUE,f,f,NA,NA,NA,1,6,"3,5,1,10,15,6,13,12,14,2,7,11,4,8,9"
14411,commdev-image-keyboard-response,302,620070,learnblock1,483.60000002384186,img/planet12_left.png,12,Community 2,NA,TRUE,f,f,NA,NA,NA,1,6,"3,5,1,10,15,6,13,12,14,2,7,11,4,8,9"
14411,commdev-image-keyboard-response,303,621322,learnblock1,729.1999999880791,img/planet2_left.png,2,Community 2,NA,TRUE,f,f,NA,NA,NA,1,6,"3,5,1,10,15,6,13,12,14,2,7,11,4,8,9"
14411,commdev-image-keyboard-response,304,622573,learnblock1,619.3000000119209,img/planet6_left.png,6,Community 2,NA,TRUE,f,f,NA,NA,NA,1,6,"3,5,1,10,15,6,13,12,14,2,7,11,4,8,9"
14411,commdev-image-keyboard-response,305,623825,learnblock1,547.9000000357628,img/planet13_right.png,13,Community 2,NA,TRUE,j,j,NA,NA,NA,1,6,"3,5,1,10,15,6,13,12,14,2,7,11,4,8,9"
14411,commdev-image-keyboard-response,306,625078,learnblock1,433.4000000357628,img/planet6_right.png,6,Community 2,NA,TRUE,j,j,NA,NA,NA,1,6,"3,5,1,10,15,6,13,12,14,2,7,11,4,8,9"
14411,commdev-image-keyboard-response,307,626329,learnblock1,349.0999999642372,img/planet10_right.png,10,Community 1,NA,TRUE,j,j,NA,NA,NA,1,6,"3,5,1,10,15,6,13,12,14,2,7,11,4,8,9"
14411,commdev-image-keyboard-response,308,627580,learnblock1,367.60000002384186,img/planet3_left.png,3,Community 1,NA,FALSE,j,f,NA,NA,NA,1,6,"3,5,1,10,15,6,13,12,14,2,7,11,4,8,9"
14411,commdev-image-keyboard-response,309,628833,learnblock1,717.8000000119209,img/planet5_right.png,5,Community 1,NA,TRUE,j,j,NA,NA,NA,1,6,"3,5,1,10,15,6,13,12,14,2,7,11,4,8,9"
14411,commdev-image-keyboard-response,310,630085,learnblock1,563.8000000119209,img/planet3_left.png,3,Community 1,NA,TRUE,f,f,NA,NA,NA,1,6,"3,5,1,10,15,6,13,12,14,2,7,11,4,8,9"
14411,commdev-image-keyboard-response,311,631336,learnblock1,547.3999999761581,img/planet1_left.png,1,Community 1,NA,TRUE,f,f,NA,NA,NA,1,6,"3,5,1,10,15,6,13,12,14,2,7,11,4,8,9"
14411,commdev-image-keyboard-response,312,632588,learnblock1,530.1999999880791,img/planet15_right.png,15,Community 1,NA,TRUE,j,j,NA,NA,NA,1,6,"3,5,1,10,15,6,13,12,14,2,7,11,4,8,9"
14411,commdev-image-keyboard-response,313,633840,learnblock1,776.3000000119209,img/planet5_left.png,5,Community 1,NA,TRUE,f,f,NA,NA,NA,1,6,"3,5,1,10,15,6,13,12,14,2,7,11,4,8,9"
14411,commdev-image-keyboard-response,314,635091,learnblock1,640.6000000238419,img/planet3_left.png,3,Community 1,NA,TRUE,f,f,NA,NA,NA,1,6,"3,5,1,10,15,6,13,12,14,2,7,11,4,8,9"
14411,commdev-image-keyboard-response,315,636343,learnblock1,1069.9000000357628,img/planet5_left.png,5,Community 1,NA,TRUE,f,f,NA,NA,NA,1,6,"3,5,1,10,15,6,13,12,14,2,7,11,4,8,9"
14411,commdev-image-keyboard-response,316,637595,learnblock1,660.3999999761581,img/planet15_right.png,15,Community 1,NA,TRUE,j,j,NA,NA,NA,1,6,"3,5,1,10,15,6,13,12,14,2,7,11,4,8,9"
14411,commdev-image-keyboard-response,317,638846,learnblock1,674.2999999523163,img/planet3_right.png,3,Community 1,NA,TRUE,j,j,NA,NA,NA,1,6,"3,5,1,10,15,6,13,12,14,2,7,11,4,8,9"
14411,commdev-image-keyboard-response,318,640098,learnblock1,701.1999999880791,img/planet5_right.png,5,Community 1,NA,TRUE,j,j,NA,NA,NA,1,6,"3,5,1,10,15,6,13,12,14,2,7,11,4,8,9"
14411,commdev-image-keyboard-response,319,641350,learnblock1,938.1999999880791,img/planet1_right.png,1,Community 1,NA,TRUE,j,j,NA,NA,NA,1,6,"3,5,1,10,15,6,13,12,14,2,7,11,4,8,9"
14411,commdev-image-keyboard-response,320,642601,learnblock1,577.3000000119209,img/planet5_right.png,5,Community 1,NA,TRUE,j,j,NA,NA,NA,1,6,"3,5,1,10,15,6,13,12,14,2,7,11,4,8,9"
14411,commdev-image-keyboard-response,321,643852,learnblock1,525.6000000238419,img/planet10_left.png,10,Community 1,NA,TRUE,f,f,NA,NA,NA,1,6,"3,5,1,10,15,6,13,12,14,2,7,11,4,8,9"
14411,commdev-image-keyboard-response,322,645104,learnblock1,964.5,img/planet1_right.png,1,Community 1,NA,TRUE,j,j,NA,NA,NA,1,6,"3,5,1,10,15,6,13,12,14,2,7,11,4,8,9"
14411,commdev-image-keyboard-response,323,646355,learnblock1,481.69999998807907,img/planet5_right.png,5,Community 1,NA,TRUE,j,j,NA,NA,NA,1,6,"3,5,1,10,15,6,13,12,14,2,7,11,4,8,9"
14411,commdev-image-keyboard-response,324,647606,learnblock1,768.3999999761581,img/planet1_right.png,1,Community 1,NA,TRUE,j,j,NA,NA,NA,1,6,"3,5,1,10,15,6,13,12,14,2,7,11,4,8,9"
14411,commdev-image-keyboard-response,325,648858,learnblock1,521.4000000357628,img/planet3_left.png,3,Community 1,NA,TRUE,f,f,NA,NA,NA,1,6,"3,5,1,10,15,6,13,12,14,2,7,11,4,8,9"
14411,commdev-image-keyboard-response,326,650110,learnblock1,649,img/planet10_right.png,10,Community 1,NA,TRUE,j,j,NA,NA,NA,1,6,"3,5,1,10,15,6,13,12,14,2,7,11,4,8,9"
14411,commdev-image-keyboard-response,327,651361,learnblock1,559.8000000119209,img/planet5_right.png,5,Community 1,NA,TRUE,j,j,NA,NA,NA,1,6,"3,5,1,10,15,6,13,12,14,2,7,11,4,8,9"
14411,commdev-image-keyboard-response,328,652612,learnblock1,553.3000000119209,img/planet3_left.png,3,Community 1,NA,TRUE,f,f,NA,NA,NA,1,6,"3,5,1,10,15,6,13,12,14,2,7,11,4,8,9"
14411,commdev-image-keyboard-response,329,653863,learnblock1,687.0999999642372,img/planet15_right.png,15,Community 1,NA,TRUE,j,j,NA,NA,NA,1,6,"3,5,1,10,15,6,13,12,14,2,7,11,4,8,9"
14411,commdev-image-keyboard-response,330,655114,learnblock1,814.5,img/planet7_left.png,7,Community 3,NA,TRUE,f,f,NA,NA,NA,1,6,"3,5,1,10,15,6,13,12,14,2,7,11,4,8,9"
14411,commdev-image-keyboard-response,331,656365,learnblock1,930.5,img/planet15_right.png,15,Community 1,NA,TRUE,j,j,NA,NA,NA,1,6,"3,5,1,10,15,6,13,12,14,2,7,11,4,8,9"
14411,commdev-image-keyboard-response,332,657617,learnblock1,738.7999999523163,img/planet3_left.png,3,Community 1,NA,TRUE,f,f,NA,NA,NA,1,6,"3,5,1,10,15,6,13,12,14,2,7,11,4,8,9"
14411,commdev-image-keyboard-response,333,658869,learnblock1,738.5,img/planet15_left.png,15,Community 1,NA,TRUE,f,f,NA,NA,NA,1,6,"3,5,1,10,15,6,13,12,14,2,7,11,4,8,9"
14411,commdev-image-keyboard-response,334,660121,learnblock1,568.6999999880791,img/planet1_left.png,1,Community 1,NA,TRUE,f,f,NA,NA,NA,1,6,"3,5,1,10,15,6,13,12,14,2,7,11,4,8,9"
14411,commdev-image-keyboard-response,335,660002,learnblock1,817.1999999880791,img/planet5_left.png,5,Community 1,NA,TRUE,f,f,NA,NA,NA,1,6,"3,5,1,10,15,6,13,12,14,2,7,11,4,8,9"
14411,commdev-image-keyboard-response,336,661254,learnblock1,504.30000001192093,img/planet1_left.png,1,Community 1,NA,TRUE,f,f,NA,NA,NA,1,6,"3,5,1,10,15,6,13,12,14,2,7,11,4,8,9"
14411,commdev-image-keyboard-response,337,662505,learnblock1,1157.300000011921,img/planet15_left.png,15,Community 1,NA,TRUE,f,f,NA,NA,NA,1,6,"3,5,1,10,15,6,13,12,14,2,7,11,4,8,9"
14411,commdev-image-keyboard-response,338,663757,learnblock1,669.5,img/planet1_right.png,1,Community 1,NA,TRUE,j,j,NA,NA,NA,1,6,"3,5,1,10,15,6,13,12,14,2,7,11,4,8,9"
14411,commdev-image-keyboard-response,339,665009,learnblock1,874.4000000357628,img/planet15_left.png,15,Community 1,NA,TRUE,f,f,NA,NA,NA,1,6,"3,5,1,10,15,6,13,12,14,2,7,11,4,8,9"
14411,commdev-image-keyboard-response,340,666261,learnblock1,717.8000000119209,img/planet3_right.png,3,Community 1,NA,TRUE,j,j,NA,NA,NA,1,6,"3,5,1,10,15,6,13,12,14,2,7,11,4,8,9"
14411,commdev-image-keyboard-response,341,667513,learnblock1,670.5,img/planet5_right.png,5,Community 1,NA,TRUE,j,j,NA,NA,NA,1,6,"3,5,1,10,15,6,13,12,14,2,7,11,4,8,9"
14411,commdev-image-keyboard-response,342,668769,learnblock1,1036.1000000238419,img/planet10_right.png,10,Community 1,NA,TRUE,j,j,NA,NA,NA,1,6,"3,5,1,10,15,6,13,12,14,2,7,11,4,8,9"
14411,commdev-image-keyboard-response,343,670021,learnblock1,873.5999999642372,img/planet1_left.png,1,Community 1,NA,TRUE,f,f,NA,NA,NA,1,6,"3,5,1,10,15,6,13,12,14,2,7,11,4,8,9"
14411,commdev-image-keyboard-response,344,671273,learnblock1,548.2999999523163,img/planet10_left.png,10,Community 1,NA,TRUE,f,f,NA,NA,NA,1,6,"3,5,1,10,15,6,13,12,14,2,7,11,4,8,9"
14411,commdev-image-keyboard-response,345,672525,learnblock1,725.5,img/planet6_left.png,6,Community 2,NA,TRUE,f,f,NA,NA,NA,1,6,"3,5,1,10,15,6,13,12,14,2,7,11,4,8,9"
14411,commdev-image-keyboard-response,346,673778,learnblock1,699.9000000357628,img/planet10_left.png,10,Community 1,NA,TRUE,f,f,NA,NA,NA,1,6,"3,5,1,10,15,6,13,12,14,2,7,11,4,8,9"
14411,commdev-image-keyboard-response,347,675039,learnblock1,376.69999998807907,img/planet3_left.png,3,Community 1,NA,TRUE,f,f,NA,NA,NA,1,6,"3,5,1,10,15,6,13,12,14,2,7,11,4,8,9"
14411,commdev-image-keyboard-response,351,749651,learnblock2,1143.6000000238419,img/planet13_right.png,13,Community 2,NA,TRUE,j,j,NA,NA,NA,1,6,"3,5,1,10,15,6,13,12,14,2,7,11,4,8,9"
14411,commdev-image-keyboard-response,352,750902,learnblock2,null,img/planet2_right.png,2,Community 2,NA,FALSE,null,j,NA,NA,NA,1,6,"3,5,1,10,15,6,13,12,14,2,7,11,4,8,9"
14411,commdev-image-keyboard-response,353,752153,learnblock2,246.5999999642372,img/planet6_left.png,6,Community 2,NA,FALSE,j,f,NA,NA,NA,1,6,"3,5,1,10,15,6,13,12,14,2,7,11,4,8,9"
14411,commdev-image-keyboard-response,354,753404,learnblock2,594.8999999761581,img/planet10_right.png,10,Community 1,NA,TRUE,j,j,NA,NA,NA,1,6,"3,5,1,10,15,6,13,12,14,2,7,11,4,8,9"
14411,commdev-image-keyboard-response,355,754655,learnblock2,630.8999999761581,img/planet5_left.png,5,Community 1,NA,TRUE,f,f,NA,NA,NA,1,6,"3,5,1,10,15,6,13,12,14,2,7,11,4,8,9"
14411,commdev-image-keyboard-response,356,755907,learnblock2,974.2999999523163,img/planet15_right.png,15,Community 1,NA,TRUE,j,j,NA,NA,NA,1,6,"3,5,1,10,15,6,13,12,14,2,7,11,4,8,9"
14411,commdev-image-keyboard-response,357,757159,learnblock2,969.0999999642372,img/planet3_left.png,3,Community 1,NA,TRUE,f,f,NA,NA,NA,1,6,"3,5,1,10,15,6,13,12,14,2,7,11,4,8,9"
14411,commdev-image-keyboard-response,358,758411,learnblock2,974,img/planet1_right.png,1,Community 1,NA,TRUE,j,j,NA,NA,NA,1,6,"3,5,1,10,15,6,13,12,14,2,7,11,4,8,9"
14411,commdev-image-keyboard-response,359,759663,learnblock2,993.8000000119209,img/planet15_right.png,15,Community 1,NA,TRUE,j,j,NA,NA,NA,1,6,"3,5,1,10,15,6,13,12,14,2,7,11,4,8,9"
14411,commdev-image-keyboard-response,360,760914,learnblock2,808.8999999761581,img/planet7_right.png,7,Community 3,NA,TRUE,j,j,NA,NA,NA,1,6,"3,5,1,10,15,6,13,12,14,2,7,11,4,8,9"
14411,commdev-image-keyboard-response,361,762165,learnblock2,889.6000000238419,img/planet15_left.png,15,Community 1,NA,TRUE,f,f,NA,NA,NA,1,6,"3,5,1,10,15,6,13,12,14,2,7,11,4,8,9"
14411,commdev-image-keyboard-response,362,763418,learnblock2,895.5,img/planet3_left.png,3,Community 1,NA,TRUE,f,f,NA,NA,NA,1,6,"3,5,1,10,15,6,13,12,14,2,7,11,4,8,9"
14411,commdev-image-keyboard-response,363,764670,learnblock2,865.0999999642372,img/planet15_left.png,15,Community 1,NA,TRUE,f,f,NA,NA,NA,1,6,"3,5,1,10,15,6,13,12,14,2,7,11,4,8,9"
14411,commdev-image-keyboard-response,364,765922,learnblock2,640.7999999523163,img/planet7_left.png,7,Community 3,NA,TRUE,f,f,NA,NA,NA,1,6,"3,5,1,10,15,6,13,12,14,2,7,11,4,8,9"
14411,commdev-image-keyboard-response,365,767174,learnblock2,636.6999999880791,img/planet4_left.png,4,Community 3,NA,TRUE,f,f,NA,NA,NA,1,6,"3,5,1,10,15,6,13,12,14,2,7,11,4,8,9"
14411,commdev-image-keyboard-response,366,768426,learnblock2,562,img/planet11_left.png,11,Community 3,NA,TRUE,f,f,NA,NA,NA,1,6,"3,5,1,10,15,6,13,12,14,2,7,11,4,8,9"
14411,commdev-image-keyboard-response,367,769679,learnblock2,593.1000000238419,img/planet12_right.png,12,Community 2,NA,TRUE,j,j,NA,NA,NA,1,6,"3,5,1,10,15,6,13,12,14,2,7,11,4,8,9"
14411,commdev-image-keyboard-response,368,770931,learnblock2,558.6000000238419,img/planet11_right.png,11,Community 3,NA,TRUE,j,j,NA,NA,NA,1,6,"3,5,1,10,15,6,13,12,14,2,7,11,4,8,9"
14411,commdev-image-keyboard-response,369,772183,learnblock2,857.3000000119209,img/planet9_left.png,9,Community 3,NA,TRUE,f,f,NA,NA,NA,1,6,"3,5,1,10,15,6,13,12,14,2,7,11,4,8,9"
14411,commdev-image-keyboard-response,370,773435,learnblock2,648.1000000238419,img/planet7_left.png,7,Community 3,NA,TRUE,f,f,NA,NA,NA,1,6,"3,5,1,10,15,6,13,12,14,2,7,11,4,8,9"
14411,commdev-image-keyboard-response,371,774686,learnblock2,564.6000000238419,img/planet9_right.png,9,Community 3,NA,TRUE,j,j,NA,NA,NA,1,6,"3,5,1,10,15,6,13,12,14,2,7,11,4,8,9"
14411,commdev-image-keyboard-response,372,775938,learnblock2,611.7999999523163,img/planet11_left.png,11,Community 3,NA,TRUE,f,f,NA,NA,NA,1,6,"3,5,1,10,15,6,13,12,14,2,7,11,4,8,9"
14411,commdev-image-keyboard-response,373,777190,learnblock2,803.9000000357628,img/planet9_left.png,9,Community 3,NA,TRUE,f,f,NA,NA,NA,1,6,"3,5,1,10,15,6,13,12,14,2,7,11,4,8,9"
14411,commdev-image-keyboard-response,374,778442,learnblock2,677.6000000238419,img/planet7_left.png,7,Community 3,NA,TRUE,f,f,NA,NA,NA,1,6,"3,5,1,10,15,6,13,12,14,2,7,11,4,8,9"
14411,commdev-image-keyboard-response,375,779694,learnblock2,550,img/planet15_left.png,15,Community 1,NA,TRUE,f,f,NA,NA,NA,1,6,"3,5,1,10,15,6,13,12,14,2,7,11,4,8,9"
14411,commdev-image-keyboard-response,376,780946,learnblock2,500,img/planet5_left.png,5,Community 1,NA,TRUE,f,f,NA,NA,NA,1,6,"3,5,1,10,15,6,13,12,14,2,7,11,4,8,9"
14411,commdev-image-keyboard-response,377,782197,learnblock2,586.5999999642372,img/planet3_right.png,3,Community 1,NA,TRUE,j,j,NA,NA,NA,1,6,"3,5,1,10,15,6,13,12,14,2,7,11,4,8,9"
14411,commdev-image-keyboard-response,378,783449,learnblock2,561.5999999642372,img/planet15_left.png,15,Community 1,NA,TRUE,f,f,NA,NA,NA,1,6,"3,5,1,10,15,6,13,12,14,2,7,11,4,8,9"
14411,commdev-image-keyboard-response,379,784701,learnblock2,793.3000000119209,img/planet7_left.png,7,Community 3,NA,TRUE,f,f,NA,NA,NA,1,6,"3,5,1,10,15,6,13,12,14,2,7,11,4,8,9"
14411,commdev-image-keyboard-response,380,785954,learnblock2,676.5,img/planet15_left.png,15,Community 1,NA,TRUE,f,f,NA,NA,NA,1,6,"3,5,1,10,15,6,13,12,14,2,7,11,4,8,9"
14411,commdev-image-keyboard-response,381,787205,learnblock2,492.69999998807907,img/planet5_right.png,5,Community 1,NA,TRUE,j,j,NA,NA,NA,1,6,"3,5,1,10,15,6,13,12,14,2,7,11,4,8,9"
14411,commdev-image-keyboard-response,382,788457,learnblock2,486.10000002384186,img/planet10_left.png,10,Community 1,NA,TRUE,f,f,NA,NA,NA,1,6,"3,5,1,10,15,6,13,12,14,2,7,11,4,8,9"
14411,commdev-image-keyboard-response,383,789708,learnblock2,531.6000000238419,img/planet1_left.png,1,Community 1,NA,TRUE,f,f,NA,NA,NA,1,6,"3,5,1,10,15,6,13,12,14,2,7,11,4,8,9"
14411,commdev-image-keyboard-response,384,790960,learnblock2,452,img/planet15_right.png,15,Community 1,NA,TRUE,j,j,NA,NA,NA,1,6,"3,5,1,10,15,6,13,12,14,2,7,11,4,8,9"
14411,commdev-image-keyboard-response,385,792212,learnblock2,592.3000000119209,img/planet7_right.png,7,Community 3,NA,TRUE,j,j,NA,NA,NA,1,6,"3,5,1,10,15,6,13,12,14,2,7,11,4,8,9"
14411,commdev-image-keyboard-response,386,793463,learnblock2,666.5,img/planet4_left.png,4,Community 3,NA,TRUE,f,f,NA,NA,NA,1,6,"3,5,1,10,15,6,13,12,14,2,7,11,4,8,9"
14411,commdev-image-keyboard-response,387,794715,learnblock2,649.1000000238419,img/planet9_left.png,9,Community 3,NA,TRUE,f,f,NA,NA,NA,1,6,"3,5,1,10,15,6,13,12,14,2,7,11,4,8,9"
14411,commdev-image-keyboard-response,388,795967,learnblock2,662.6000000238419,img/planet4_left.png,4,Community 3,NA,TRUE,f,f,NA,NA,NA,1,6,"3,5,1,10,15,6,13,12,14,2,7,11,4,8,9"
14411,commdev-image-keyboard-response,389,797218,learnblock2,592.3000000119209,img/planet7_right.png,7,Community 3,NA,TRUE,j,j,NA,NA,NA,1,6,"3,5,1,10,15,6,13,12,14,2,7,11,4,8,9"
14411,commdev-image-keyboard-response,390,798469,learnblock2,654,img/planet15_left.png,15,Community 1,NA,TRUE,f,f,NA,NA,NA,1,6,"3,5,1,10,15,6,13,12,14,2,7,11,4,8,9"
14411,commdev-image-keyboard-response,391,799721,learnblock2,767.1999999880791,img/planet5_left.png,5,Community 1,NA,TRUE,f,f,NA,NA,NA,1,6,"3,5,1,10,15,6,13,12,14,2,7,11,4,8,9"
14411,commdev-image-keyboard-response,392,800973,learnblock2,567.6000000238419,img/planet10_left.png,10,Community 1,NA,TRUE,f,f,NA,NA,NA,1,6,"3,5,1,10,15,6,13,12,14,2,7,11,4,8,9"
14411,commdev-image-keyboard-response,393,802224,learnblock2,701.8000000119209,img/planet3_left.png,3,Community 1,NA,TRUE,f,f,NA,NA,NA,1,6,"3,5,1,10,15,6,13,12,14,2,7,11,4,8,9"
14411,commdev-image-keyboard-response,394,803477,learnblock2,503.19999998807907,img/planet1_left.png,1,Community 1,NA,TRUE,f,f,NA,NA,NA,1,6,"3,5,1,10,15,6,13,12,14,2,7,11,4,8,9"
14411,commdev-image-keyboard-response,395,804728,learnblock2,652.8000000119209,img/planet5_right.png,5,Community 1,NA,TRUE,j,j,NA,NA,NA,1,6,"3,5,1,10,15,6,13,12,14,2,7,11,4,8,9"
14411,commdev-image-keyboard-response,396,805980,learnblock2,1167,img/planet10_right.png,10,Community 1,NA,TRUE,j,j,NA,NA,NA,1,6,"3,5,1,10,15,6,13,12,14,2,7,11,4,8,9"
14411,commdev-image-keyboard-response,397,807232,learnblock2,671.1000000238419,img/planet5_right.png,5,Community 1,NA,TRUE,j,j,NA,NA,NA,1,6,"3,5,1,10,15,6,13,12,14,2,7,11,4,8,9"
14411,commdev-image-keyboard-response,398,808483,learnblock2,614.3999999761581,img/planet3_right.png,3,Community 1,NA,TRUE,j,j,NA,NA,NA,1,6,"3,5,1,10,15,6,13,12,14,2,7,11,4,8,9"
14411,commdev-image-keyboard-response,399,809735,learnblock2,503.80000001192093,img/planet10_left.png,10,Community 1,NA,TRUE,f,f,NA,NA,NA,1,6,"3,5,1,10,15,6,13,12,14,2,7,11,4,8,9"
14411,commdev-image-keyboard-response,400,810986,learnblock2,557.8000000119209,img/planet5_right.png,5,Community 1,NA,TRUE,j,j,NA,NA,NA,1,6,"3,5,1,10,15,6,13,12,14,2,7,11,4,8,9"
14411,commdev-image-keyboard-response,401,812238,learnblock2,618.5,img/planet15_right.png,15,Community 1,NA,TRUE,j,j,NA,NA,NA,1,6,"3,5,1,10,15,6,13,12,14,2,7,11,4,8,9"
14411,commdev-image-keyboard-response,402,813489,learnblock2,780.5,img/planet5_left.png,5,Community 1,NA,TRUE,f,f,NA,NA,NA,1,6,"3,5,1,10,15,6,13,12,14,2,7,11,4,8,9"
14411,commdev-image-keyboard-response,403,814740,learnblock2,608.5999999642372,img/planet1_right.png,1,Community 1,NA,TRUE,j,j,NA,NA,NA,1,6,"3,5,1,10,15,6,13,12,14,2,7,11,4,8,9"
14411,commdev-image-keyboard-response,404,815991,learnblock2,660.1000000238419,img/planet10_left.png,10,Community 1,NA,TRUE,f,f,NA,NA,NA,1,6,"3,5,1,10,15,6,13,12,14,2,7,11,4,8,9"
14411,commdev-image-keyboard-response,405,817254,learnblock2,623.9000000357628,img/planet1_left.png,1,Community 1,NA,TRUE,f,f,NA,NA,NA,1,6,"3,5,1,10,15,6,13,12,14,2,7,11,4,8,9"
14411,commdev-image-keyboard-response,406,818506,learnblock2,540.5,img/planet10_right.png,10,Community 1,NA,TRUE,j,j,NA,NA,NA,1,6,"3,5,1,10,15,6,13,12,14,2,7,11,4,8,9"
14411,commdev-image-keyboard-response,407,819758,learnblock2,489.69999998807907,img/planet5_right.png,5,Community 1,NA,TRUE,j,j,NA,NA,NA,1,6,"3,5,1,10,15,6,13,12,14,2,7,11,4,8,9"
14411,commdev-image-keyboard-response,408,821009,learnblock2,409,img/planet10_right.png,10,Community 1,NA,TRUE,j,j,NA,NA,NA,1,6,"3,5,1,10,15,6,13,12,14,2,7,11,4,8,9"
14411,commdev-image-keyboard-response,409,822260,learnblock2,494.5,img/planet6_left.png,6,Community 2,NA,TRUE,f,f,NA,NA,NA,1,6,"3,5,1,10,15,6,13,12,14,2,7,11,4,8,9"
14411,commdev-image-keyboard-response,410,823516,learnblock2,487.80000001192093,img/planet2_left.png,2,Community 2,NA,TRUE,f,f,NA,NA,NA,1,6,"3,5,1,10,15,6,13,12,14,2,7,11,4,8,9"
14411,commdev-image-keyboard-response,411,824768,learnblock2,502.30000001192093,img/planet13_right.png,13,Community 2,NA,TRUE,j,j,NA,NA,NA,1,6,"3,5,1,10,15,6,13,12,14,2,7,11,4,8,9"
14411,commdev-image-keyboard-response,412,826020,learnblock2,702.6999999880791,img/planet12_right.png,12,Community 2,NA,TRUE,j,j,NA,NA,NA,1,6,"3,5,1,10,15,6,13,12,14,2,7,11,4,8,9"
14411,commdev-image-keyboard-response,413,827271,learnblock2,503.69999998807907,img/planet11_left.png,11,Community 3,NA,TRUE,f,f,NA,NA,NA,1,6,"3,5,1,10,15,6,13,12,14,2,7,11,4,8,9"
14411,commdev-image-keyboard-response,414,828523,learnblock2,532.3000000119209,img/planet12_right.png,12,Community 2,NA,TRUE,j,j,NA,NA,NA,1,6,"3,5,1,10,15,6,13,12,14,2,7,11,4,8,9"
14411,commdev-image-keyboard-response,415,829776,learnblock2,846.3999999761581,img/planet13_right.png,13,Community 2,NA,TRUE,j,j,NA,NA,NA,1,6,"3,5,1,10,15,6,13,12,14,2,7,11,4,8,9"
14411,commdev-image-keyboard-response,416,831029,learnblock2,787.4000000357628,img/planet6_right.png,6,Community 2,NA,TRUE,j,j,NA,NA,NA,1,6,"3,5,1,10,15,6,13,12,14,2,7,11,4,8,9"
14411,commdev-image-keyboard-response,417,832281,learnblock2,763.3999999761581,img/planet13_right.png,13,Community 2,NA,TRUE,j,j,NA,NA,NA,1,6,"3,5,1,10,15,6,13,12,14,2,7,11,4,8,9"
14411,commdev-image-keyboard-response,418,833532,learnblock2,774.5,img/planet12_right.png,12,Community 2,NA,TRUE,j,j,NA,NA,NA,1,6,"3,5,1,10,15,6,13,12,14,2,7,11,4,8,9"
14411,commdev-image-keyboard-response,419,834784,learnblock2,529.8000000119209,img/planet13_left.png,13,Community 2,NA,TRUE,f,f,NA,NA,NA,1,6,"3,5,1,10,15,6,13,12,14,2,7,11,4,8,9"
14411,commdev-image-keyboard-response,420,836035,learnblock2,623.1999999880791,img/planet2_right.png,2,Community 2,NA,TRUE,j,j,NA,NA,NA,1,6,"3,5,1,10,15,6,13,12,14,2,7,11,4,8,9"
14411,commdev-image-keyboard-response,421,837287,learnblock2,671.6000000238419,img/planet12_left.png,12,Community 2,NA,TRUE,f,f,NA,NA,NA,1,6,"3,5,1,10,15,6,13,12,14,2,7,11,4,8,9"
14411,commdev-image-keyboard-response,422,838538,learnblock2,551.7000000476837,img/planet11_left.png,11,Community 3,NA,TRUE,f,f,NA,NA,NA,1,6,"3,5,1,10,15,6,13,12,14,2,7,11,4,8,9"
14411,commdev-image-keyboard-response,423,839789,learnblock2,627.4000000357628,img/planet8_right.png,8,Community 3,NA,TRUE,j,j,NA,NA,NA,1,6,"3,5,1,10,15,6,13,12,14,2,7,11,4,8,9"
14411,commdev-image-keyboard-response,424,841040,learnblock2,508,img/planet7_right.png,7,Community 3,NA,TRUE,j,j,NA,NA,NA,1,6,"3,5,1,10,15,6,13,12,14,2,7,11,4,8,9"
14411,commdev-image-keyboard-response,425,842292,learnblock2,562,img/planet9_left.png,9,Community 3,NA,TRUE,f,f,NA,NA,NA,1,6,"3,5,1,10,15,6,13,12,14,2,7,11,4,8,9"
14411,commdev-image-keyboard-response,426,843543,learnblock2,510.80000001192093,img/planet4_right.png,4,Community 3,NA,TRUE,j,j,NA,NA,NA,1,6,"3,5,1,10,15,6,13,12,14,2,7,11,4,8,9"
14411,commdev-image-keyboard-response,427,844795,learnblock2,699.6999999880791,img/planet7_right.png,7,Community 3,NA,TRUE,j,j,NA,NA,NA,1,6,"3,5,1,10,15,6,13,12,14,2,7,11,4,8,9"
14411,commdev-image-keyboard-response,428,846046,learnblock2,621.2000000476837,img/planet8_right.png,8,Community 3,NA,TRUE,j,j,NA,NA,NA,1,6,"3,5,1,10,15,6,13,12,14,2,7,11,4,8,9"
14411,commdev-image-keyboard-response,429,847297,learnblock2,520.8000000119209,img/planet7_left.png,7,Community 3,NA,TRUE,f,f,NA,NA,NA,1,6,"3,5,1,10,15,6,13,12,14,2,7,11,4,8,9"
14411,commdev-image-keyboard-response,430,848557,learnblock2,455.7000000476837,img/planet9_right.png,9,Community 3,NA,FALSE,f,j,NA,NA,NA,1,6,"3,5,1,10,15,6,13,12,14,2,7,11,4,8,9"
14411,commdev-image-keyboard-response,431,849809,learnblock2,746.6999999880791,img/planet4_right.png,4,Community 3,NA,TRUE,j,j,NA,NA,NA,1,6,"3,5,1,10,15,6,13,12,14,2,7,11,4,8,9"
14411,commdev-image-keyboard-response,432,851061,learnblock2,617.6000000238419,img/planet7_right.png,7,Community 3,NA,TRUE,j,j,NA,NA,NA,1,6,"3,5,1,10,15,6,13,12,14,2,7,11,4,8,9"
14411,commdev-image-keyboard-response,433,852312,learnblock2,611.1999999880791,img/planet15_left.png,15,Community 1,NA,TRUE,f,f,NA,NA,NA,1,6,"3,5,1,10,15,6,13,12,14,2,7,11,4,8,9"
14411,commdev-image-keyboard-response,434,853564,learnblock2,796.6999999880791,img/planet7_right.png,7,Community 3,NA,TRUE,j,j,NA,NA,NA,1,6,"3,5,1,10,15,6,13,12,14,2,7,11,4,8,9"
14411,commdev-image-keyboard-response,435,854816,learnblock2,645.5,img/planet9_right.png,9,Community 3,NA,TRUE,j,j,NA,NA,NA,1,6,"3,5,1,10,15,6,13,12,14,2,7,11,4,8,9"
14411,commdev-image-keyboard-response,436,856068,learnblock2,656.0999999642372,img/planet4_right.png,4,Community 3,NA,TRUE,j,j,NA,NA,NA,1,6,"3,5,1,10,15,6,13,12,14,2,7,11,4,8,9"
14411,commdev-image-keyboard-response,437,857320,learnblock2,646.1000000238419,img/planet7_left.png,7,Community 3,NA,TRUE,f,f,NA,NA,NA,1,6,"3,5,1,10,15,6,13,12,14,2,7,11,4,8,9"
14411,commdev-image-keyboard-response,438,858571,learnblock2,540.5,img/planet8_right.png,8,Community 3,NA,TRUE,j,j,NA,NA,NA,1,6,"3,5,1,10,15,6,13,12,14,2,7,11,4,8,9"
14411,commdev-image-keyboard-response,439,859823,learnblock2,634.1000000238419,img/planet9_left.png,9,Community 3,NA,TRUE,f,f,NA,NA,NA,1,6,"3,5,1,10,15,6,13,12,14,2,7,11,4,8,9"
14411,commdev-image-keyboard-response,440,861076,learnblock2,594.8000000119209,img/planet4_left.png,4,Community 3,NA,TRUE,f,f,NA,NA,NA,1,6,"3,5,1,10,15,6,13,12,14,2,7,11,4,8,9"
14411,commdev-image-keyboard-response,441,862327,learnblock2,706.6999999880791,img/planet7_left.png,7,Community 3,NA,TRUE,f,f,NA,NA,NA,1,6,"3,5,1,10,15,6,13,12,14,2,7,11,4,8,9"
14411,commdev-image-keyboard-response,442,863579,learnblock2,643.8000000119209,img/planet15_left.png,15,Community 1,NA,TRUE,f,f,NA,NA,NA,1,6,"3,5,1,10,15,6,13,12,14,2,7,11,4,8,9"
14411,commdev-image-keyboard-response,443,864830,learnblock2,560.6999999880791,img/planet3_right.png,3,Community 1,NA,TRUE,j,j,NA,NA,NA,1,6,"3,5,1,10,15,6,13,12,14,2,7,11,4,8,9"
14411,commdev-image-keyboard-response,444,866082,learnblock2,460.5,img/planet10_right.png,10,Community 1,NA,TRUE,j,j,NA,NA,NA,1,6,"3,5,1,10,15,6,13,12,14,2,7,11,4,8,9"
14411,commdev-image-keyboard-response,445,867334,learnblock2,567.1999999880791,img/planet3_left.png,3,Community 1,NA,TRUE,f,f,NA,NA,NA,1,6,"3,5,1,10,15,6,13,12,14,2,7,11,4,8,9"
14411,commdev-image-keyboard-response,446,868585,learnblock2,692,img/planet5_right.png,5,Community 1,NA,TRUE,j,j,NA,NA,NA,1,6,"3,5,1,10,15,6,13,12,14,2,7,11,4,8,9"
14411,commdev-image-keyboard-response,447,869836,learnblock2,609.7000000476837,img/planet3_right.png,3,Community 1,NA,TRUE,j,j,NA,NA,NA,1,6,"3,5,1,10,15,6,13,12,14,2,7,11,4,8,9"
14411,commdev-image-keyboard-response,448,871088,learnblock2,484.5,img/planet15_right.png,15,Community 1,NA,TRUE,j,j,NA,NA,NA,1,6,"3,5,1,10,15,6,13,12,14,2,7,11,4,8,9"
14411,commdev-image-keyboard-response,449,872352,learnblock2,647.8000000119209,img/planet3_left.png,3,Community 1,NA,TRUE,f,f,NA,NA,NA,1,6,"3,5,1,10,15,6,13,12,14,2,7,11,4,8,9"
14411,commdev-image-keyboard-response,450,873604,learnblock2,466.30000001192093,img/planet1_left.png,1,Community 1,NA,TRUE,f,f,NA,NA,NA,1,6,"3,5,1,10,15,6,13,12,14,2,7,11,4,8,9"
14411,commdev-image-keyboard-response,451,874856,learnblock2,528.6999999880791,img/planet3_right.png,3,Community 1,NA,TRUE,j,j,NA,NA,NA,1,6,"3,5,1,10,15,6,13,12,14,2,7,11,4,8,9"
14411,commdev-image-keyboard-response,452,876107,learnblock2,564.8999999761581,img/planet15_right.png,15,Community 1,NA,TRUE,j,j,NA,NA,NA,1,6,"3,5,1,10,15,6,13,12,14,2,7,11,4,8,9"
14411,commdev-image-keyboard-response,453,877359,learnblock2,550.2999999523163,img/planet1_right.png,1,Community 1,NA,TRUE,j,j,NA,NA,NA,1,6,"3,5,1,10,15,6,13,12,14,2,7,11,4,8,9"
14411,commdev-image-keyboard-response,454,878610,learnblock2,528.6999999880791,img/planet5_left.png,5,Community 1,NA,TRUE,f,f,NA,NA,NA,1,6,"3,5,1,10,15,6,13,12,14,2,7,11,4,8,9"
14411,commdev-image-keyboard-response,455,879862,learnblock2,566.3999999761581,img/planet15_left.png,15,Community 1,NA,TRUE,f,f,NA,NA,NA,1,6,"3,5,1,10,15,6,13,12,14,2,7,11,4,8,9"
14411,commdev-image-keyboard-response,456,881114,learnblock2,558.1000000238419,img/planet7_left.png,7,Community 3,NA,TRUE,f,f,NA,NA,NA,1,6,"3,5,1,10,15,6,13,12,14,2,7,11,4,8,9"
14411,commdev-image-keyboard-response,457,882366,learnblock2,627.5,img/planet4_left.png,4,Community 3,NA,TRUE,f,f,NA,NA,NA,1,6,"3,5,1,10,15,6,13,12,14,2,7,11,4,8,9"
14411,commdev-image-keyboard-response,458,883617,learnblock2,572.3999999761581,img/planet8_right.png,8,Community 3,NA,TRUE,j,j,NA,NA,NA,1,6,"3,5,1,10,15,6,13,12,14,2,7,11,4,8,9"
14411,commdev-image-keyboard-response,459,884868,learnblock2,489.89999997615814,img/planet4_right.png,4,Community 3,NA,TRUE,j,j,NA,NA,NA,1,6,"3,5,1,10,15,6,13,12,14,2,7,11,4,8,9"
14411,commdev-image-keyboard-response,460,886119,learnblock2,409.39999997615814,img/planet9_right.png,9,Community 3,NA,TRUE,j,j,NA,NA,NA,1,6,"3,5,1,10,15,6,13,12,14,2,7,11,4,8,9"
14411,commdev-image-keyboard-response,461,887370,learnblock2,517.3999999761581,img/planet4_left.png,4,Community 3,NA,TRUE,f,f,NA,NA,NA,1,6,"3,5,1,10,15,6,13,12,14,2,7,11,4,8,9"
14411,commdev-image-keyboard-response,462,888622,learnblock2,490.39999997615814,img/planet11_right.png,11,Community 3,NA,TRUE,j,j,NA,NA,NA,1,6,"3,5,1,10,15,6,13,12,14,2,7,11,4,8,9"
14411,commdev-image-keyboard-response,463,889874,learnblock2,431.2000000476837,img/planet12_right.png,12,Community 2,NA,TRUE,j,j,NA,NA,NA,1,6,"3,5,1,10,15,6,13,12,14,2,7,11,4,8,9"
14411,commdev-image-keyboard-response,464,891126,learnblock2,528.6000000238419,img/planet13_right.png,13,Community 2,NA,TRUE,j,j,NA,NA,NA,1,6,"3,5,1,10,15,6,13,12,14,2,7,11,4,8,9"
14411,commdev-image-keyboard-response,465,892378,learnblock2,328.80000001192093,img/planet2_right.png,2,Community 2,NA,TRUE,j,j,NA,NA,NA,1,6,"3,5,1,10,15,6,13,12,14,2,7,11,4,8,9"
14411,commdev-image-keyboard-response,466,893630,learnblock2,469.60000002384186,img/planet6_right.png,6,Community 2,NA,TRUE,j,j,NA,NA,NA,1,6,"3,5,1,10,15,6,13,12,14,2,7,11,4,8,9"
14411,commdev-image-keyboard-response,467,894881,learnblock2,608.6000000238419,img/planet14_left.png,14,Community 2,NA,TRUE,f,f,NA,NA,NA,1,6,"3,5,1,10,15,6,13,12,14,2,7,11,4,8,9"
14411,commdev-image-keyboard-response,468,896132,learnblock2,775,img/planet6_left.png,6,Community 2,NA,TRUE,f,f,NA,NA,NA,1,6,"3,5,1,10,15,6,13,12,14,2,7,11,4,8,9"
14411,commdev-image-keyboard-response,469,897385,learnblock2,552.5,img/planet2_right.png,2,Community 2,NA,TRUE,j,j,NA,NA,NA,1,6,"3,5,1,10,15,6,13,12,14,2,7,11,4,8,9"
14411,commdev-image-keyboard-response,470,898638,learnblock2,565.5999999642372,img/planet12_left.png,12,Community 2,NA,TRUE,f,f,NA,NA,NA,1,6,"3,5,1,10,15,6,13,12,14,2,7,11,4,8,9"
14411,commdev-image-keyboard-response,471,899889,learnblock2,633,img/planet14_right.png,14,Community 2,NA,TRUE,j,j,NA,NA,NA,1,6,"3,5,1,10,15,6,13,12,14,2,7,11,4,8,9"
14411,commdev-image-keyboard-response,472,901140,learnblock2,603.3000000119209,img/planet12_left.png,12,Community 2,NA,TRUE,f,f,NA,NA,NA,1,6,"3,5,1,10,15,6,13,12,14,2,7,11,4,8,9"
14411,commdev-image-keyboard-response,473,902392,learnblock2,511.39999997615814,img/planet13_right.png,13,Community 2,NA,TRUE,j,j,NA,NA,NA,1,6,"3,5,1,10,15,6,13,12,14,2,7,11,4,8,9"
14411,commdev-image-keyboard-response,474,903644,learnblock2,554.4000000357628,img/planet12_left.png,12,Community 2,NA,TRUE,f,f,NA,NA,NA,1,6,"3,5,1,10,15,6,13,12,14,2,7,11,4,8,9"
14411,commdev-image-keyboard-response,475,904895,learnblock2,493.69999998807907,img/planet14_right.png,14,Community 2,NA,TRUE,j,j,NA,NA,NA,1,6,"3,5,1,10,15,6,13,12,14,2,7,11,4,8,9"
14411,commdev-image-keyboard-response,476,906147,learnblock2,527.5,img/planet12_left.png,12,Community 2,NA,TRUE,f,f,NA,NA,NA,1,6,"3,5,1,10,15,6,13,12,14,2,7,11,4,8,9"
14411,commdev-image-keyboard-response,477,907398,learnblock2,465.2000000476837,img/planet11_right.png,11,Community 3,NA,TRUE,j,j,NA,NA,NA,1,6,"3,5,1,10,15,6,13,12,14,2,7,11,4,8,9"
14411,commdev-image-keyboard-response,478,908650,learnblock2,601.5,img/planet9_right.png,9,Community 3,NA,TRUE,j,j,NA,NA,NA,1,6,"3,5,1,10,15,6,13,12,14,2,7,11,4,8,9"
14411,commdev-image-keyboard-response,479,909901,learnblock2,721.5,img/planet7_left.png,7,Community 3,NA,TRUE,f,f,NA,NA,NA,1,6,"3,5,1,10,15,6,13,12,14,2,7,11,4,8,9"
14411,commdev-image-keyboard-response,480,911155,learnblock2,637.1999999880791,img/planet8_left.png,8,Community 3,NA,TRUE,f,f,NA,NA,NA,1,6,"3,5,1,10,15,6,13,12,14,2,7,11,4,8,9"
14411,commdev-image-keyboard-response,481,912407,learnblock2,481.60000002384186,img/planet4_right.png,4,Community 3,NA,TRUE,j,j,NA,NA,NA,1,6,"3,5,1,10,15,6,13,12,14,2,7,11,4,8,9"
14411,commdev-image-keyboard-response,482,913673,learnblock2,528.0999999642372,img/planet8_right.png,8,Community 3,NA,TRUE,j,j,NA,NA,NA,1,6,"3,5,1,10,15,6,13,12,14,2,7,11,4,8,9"
14411,commdev-image-keyboard-response,483,914924,learnblock2,574.7999999523163,img/planet4_left.png,4,Community 3,NA,TRUE,f,f,NA,NA,NA,1,6,"3,5,1,10,15,6,13,12,14,2,7,11,4,8,9"
14411,commdev-image-keyboard-response,484,916176,learnblock2,734.8000000119209,img/planet7_left.png,7,Community 3,NA,TRUE,f,f,NA,NA,NA,1,6,"3,5,1,10,15,6,13,12,14,2,7,11,4,8,9"
14411,commdev-image-keyboard-response,485,917428,learnblock2,482.2999999523163,img/planet4_right.png,4,Community 3,NA,TRUE,j,j,NA,NA,NA,1,6,"3,5,1,10,15,6,13,12,14,2,7,11,4,8,9"
14411,commdev-image-keyboard-response,486,918680,learnblock2,540.3999999761581,img/planet7_left.png,7,Community 3,NA,TRUE,f,f,NA,NA,NA,1,6,"3,5,1,10,15,6,13,12,14,2,7,11,4,8,9"
14411,commdev-image-keyboard-response,487,919931,learnblock2,483.69999998807907,img/planet15_right.png,15,Community 1,NA,TRUE,j,j,NA,NA,NA,1,6,"3,5,1,10,15,6,13,12,14,2,7,11,4,8,9"
14411,commdev-image-keyboard-response,488,921183,learnblock2,396.7999999523163,img/planet1_left.png,1,Community 1,NA,TRUE,f,f,NA,NA,NA,1,6,"3,5,1,10,15,6,13,12,14,2,7,11,4,8,9"
14411,commdev-image-keyboard-response,489,922434,learnblock2,631.3000000119209,img/planet15_left.png,15,Community 1,NA,TRUE,f,f,NA,NA,NA,1,6,"3,5,1,10,15,6,13,12,14,2,7,11,4,8,9"
14411,commdev-image-keyboard-response,490,923686,learnblock2,495.9000000357628,img/planet7_right.png,7,Community 3,NA,TRUE,j,j,NA,NA,NA,1,6,"3,5,1,10,15,6,13,12,14,2,7,11,4,8,9"
14411,commdev-image-keyboard-response,491,924939,learnblock2,615.2000000476837,img/planet4_right.png,4,Community 3,NA,TRUE,j,j,NA,NA,NA,1,6,"3,5,1,10,15,6,13,12,14,2,7,11,4,8,9"
14411,commdev-image-keyboard-response,492,926190,learnblock2,993.0999999642372,img/planet8_right.png,8,Community 3,NA,TRUE,j,j,NA,NA,NA,1,6,"3,5,1,10,15,6,13,12,14,2,7,11,4,8,9"
14411,commdev-image-keyboard-response,493,927442,learnblock2,624.8000000119209,img/planet4_right.png,4,Community 3,NA,TRUE,j,j,NA,NA,NA,1,6,"3,5,1,10,15,6,13,12,14,2,7,11,4,8,9"
14411,commdev-image-keyboard-response,494,928693,learnblock2,562.7000000476837,img/planet9_left.png,9,Community 3,NA,TRUE,f,f,NA,NA,NA,1,6,"3,5,1,10,15,6,13,12,14,2,7,11,4,8,9"
14411,commdev-image-keyboard-response,495,929945,learnblock2,557.1999999880791,img/planet8_left.png,8,Community 3,NA,TRUE,f,f,NA,NA,NA,1,6,"3,5,1,10,15,6,13,12,14,2,7,11,4,8,9"
14411,commdev-image-keyboard-response,496,931197,learnblock2,457.80000001192093,img/planet9_left.png,9,Community 3,NA,TRUE,f,f,NA,NA,NA,1,6,"3,5,1,10,15,6,13,12,14,2,7,11,4,8,9"
14411,commdev-image-keyboard-response,497,932449,learnblock2,578.1000000238419,img/planet4_right.png,4,Community 3,NA,TRUE,j,j,NA,NA,NA,1,6,"3,5,1,10,15,6,13,12,14,2,7,11,4,8,9"
14411,commdev-image-keyboard-response,498,933701,learnblock2,572.4000000357628,img/planet11_right.png,11,Community 3,NA,TRUE,j,j,NA,NA,NA,1,6,"3,5,1,10,15,6,13,12,14,2,7,11,4,8,9"
14411,commdev-image-keyboard-response,499,934952,learnblock2,532,img/planet9_left.png,9,Community 3,NA,TRUE,f,f,NA,NA,NA,1,6,"3,5,1,10,15,6,13,12,14,2,7,11,4,8,9"
14411,commdev-image-keyboard-response,500,936205,learnblock2,504.69999998807907,img/planet11_left.png,11,Community 3,NA,TRUE,f,f,NA,NA,NA,1,6,"3,5,1,10,15,6,13,12,14,2,7,11,4,8,9"
14411,commdev-image-keyboard-response,501,937456,learnblock2,503.19999998807907,img/planet8_right.png,8,Community 3,NA,TRUE,j,j,NA,NA,NA,1,6,"3,5,1,10,15,6,13,12,14,2,7,11,4,8,9"
14411,commdev-image-keyboard-response,502,938709,learnblock2,438.80000001192093,img/planet4_right.png,4,Community 3,NA,TRUE,j,j,NA,NA,NA,1,6,"3,5,1,10,15,6,13,12,14,2,7,11,4,8,9"
14411,commdev-image-keyboard-response,503,939961,learnblock2,505.69999998807907,img/planet8_right.png,8,Community 3,NA,TRUE,j,j,NA,NA,NA,1,6,"3,5,1,10,15,6,13,12,14,2,7,11,4,8,9"
14411,commdev-image-keyboard-response,504,941213,learnblock2,435.39999997615814,img/planet9_right.png,9,Community 3,NA,TRUE,j,j,NA,NA,NA,1,6,"3,5,1,10,15,6,13,12,14,2,7,11,4,8,9"
14411,commdev-image-keyboard-response,505,942464,learnblock2,711,img/planet8_left.png,8,Community 3,NA,TRUE,f,f,NA,NA,NA,1,6,"3,5,1,10,15,6,13,12,14,2,7,11,4,8,9"
14411,commdev-image-keyboard-response,506,943717,learnblock2,526.6000000238419,img/planet4_left.png,4,Community 3,NA,TRUE,f,f,NA,NA,NA,1,6,"3,5,1,10,15,6,13,12,14,2,7,11,4,8,9"
14411,commdev-image-keyboard-response,507,944968,learnblock2,443.5999999642372,img/planet9_left.png,9,Community 3,NA,TRUE,f,f,NA,NA,NA,1,6,"3,5,1,10,15,6,13,12,14,2,7,11,4,8,9"
14411,commdev-image-keyboard-response,508,946220,learnblock2,624.4000000357628,img/planet4_right.png,4,Community 3,NA,TRUE,j,j,NA,NA,NA,1,6,"3,5,1,10,15,6,13,12,14,2,7,11,4,8,9"
14411,commdev-image-keyboard-response,509,947471,learnblock2,466,img/planet9_right.png,9,Community 3,NA,TRUE,j,j,NA,NA,NA,1,6,"3,5,1,10,15,6,13,12,14,2,7,11,4,8,9"
14411,commdev-image-keyboard-response,510,948723,learnblock2,541.1999999880791,img/planet11_right.png,11,Community 3,NA,TRUE,j,j,NA,NA,NA,1,6,"3,5,1,10,15,6,13,12,14,2,7,11,4,8,9"
14411,commdev-image-keyboard-response,511,949975,learnblock2,516.5,img/planet8_right.png,8,Community 3,NA,TRUE,j,j,NA,NA,NA,1,6,"3,5,1,10,15,6,13,12,14,2,7,11,4,8,9"
14411,commdev-image-keyboard-response,512,951231,learnblock2,610.5,img/planet4_left.png,4,Community 3,NA,TRUE,f,f,NA,NA,NA,1,6,"3,5,1,10,15,6,13,12,14,2,7,11,4,8,9"
14411,commdev-image-keyboard-response,513,952482,learnblock2,684.6999999880791,img/planet7_left.png,7,Community 3,NA,TRUE,f,f,NA,NA,NA,1,6,"3,5,1,10,15,6,13,12,14,2,7,11,4,8,9"
14411,commdev-image-keyboard-response,514,953734,learnblock2,459.60000002384186,img/planet9_right.png,9,Community 3,NA,TRUE,j,j,NA,NA,NA,1,6,"3,5,1,10,15,6,13,12,14,2,7,11,4,8,9"
14411,commdev-image-keyboard-response,515,954987,learnblock2,572.3000000119209,img/planet4_right.png,4,Community 3,NA,TRUE,j,j,NA,NA,NA,1,6,"3,5,1,10,15,6,13,12,14,2,7,11,4,8,9"
14411,commdev-image-keyboard-response,516,956239,learnblock2,518.5999999642372,img/planet11_right.png,11,Community 3,NA,TRUE,j,j,NA,NA,NA,1,6,"3,5,1,10,15,6,13,12,14,2,7,11,4,8,9"
14411,commdev-image-keyboard-response,517,957491,learnblock2,412.19999998807907,img/planet4_left.png,4,Community 3,NA,FALSE,j,f,NA,NA,NA,1,6,"3,5,1,10,15,6,13,12,14,2,7,11,4,8,9"
14411,commdev-image-keyboard-response,518,958742,learnblock2,776.3000000119209,img/planet9_right.png,9,Community 3,NA,TRUE,j,j,NA,NA,NA,1,6,"3,5,1,10,15,6,13,12,14,2,7,11,4,8,9"
14411,commdev-image-keyboard-response,519,959994,learnblock2,593.3000000119209,img/planet8_left.png,8,Community 3,NA,TRUE,f,f,NA,NA,NA,1,6,"3,5,1,10,15,6,13,12,14,2,7,11,4,8,9"
14411,commdev-image-keyboard-response,520,961245,learnblock2,503.9000000357628,img/planet4_left.png,4,Community 3,NA,TRUE,f,f,NA,NA,NA,1,6,"3,5,1,10,15,6,13,12,14,2,7,11,4,8,9"
14411,commdev-image-keyboard-response,521,962497,learnblock2,522.5,img/planet9_left.png,9,Community 3,NA,TRUE,f,f,NA,NA,NA,1,6,"3,5,1,10,15,6,13,12,14,2,7,11,4,8,9"
14411,commdev-image-keyboard-response,522,963749,learnblock2,463.4000000357628,img/planet4_left.png,4,Community 3,NA,TRUE,f,f,NA,NA,NA,1,6,"3,5,1,10,15,6,13,12,14,2,7,11,4,8,9"
14411,commdev-image-keyboard-response,523,965001,learnblock2,674,img/planet8_left.png,8,Community 3,NA,TRUE,f,f,NA,NA,NA,1,6,"3,5,1,10,15,6,13,12,14,2,7,11,4,8,9"
14411,commdev-image-keyboard-response,524,966266,learnblock2,693.5999999642372,img/planet9_right.png,9,Community 3,NA,TRUE,j,j,NA,NA,NA,1,6,"3,5,1,10,15,6,13,12,14,2,7,11,4,8,9"
14411,commdev-image-keyboard-response,525,967518,learnblock2,531.5999999642372,img/planet4_right.png,4,Community 3,NA,TRUE,j,j,NA,NA,NA,1,6,"3,5,1,10,15,6,13,12,14,2,7,11,4,8,9"
14411,commdev-image-keyboard-response,526,968776,learnblock2,627.8000000119209,img/planet11_right.png,11,Community 3,NA,TRUE,j,j,NA,NA,NA,1,6,"3,5,1,10,15,6,13,12,14,2,7,11,4,8,9"
14411,commdev-image-keyboard-response,527,970028,learnblock2,551.8999999761581,img/planet8_right.png,8,Community 3,NA,TRUE,j,j,NA,NA,NA,1,6,"3,5,1,10,15,6,13,12,14,2,7,11,4,8,9"
14411,commdev-image-keyboard-response,528,971280,learnblock2,468.69999998807907,img/planet9_right.png,9,Community 3,NA,TRUE,j,j,NA,NA,NA,1,6,"3,5,1,10,15,6,13,12,14,2,7,11,4,8,9"
14411,commdev-image-keyboard-response,529,972531,learnblock2,534.6999999880791,img/planet8_right.png,8,Community 3,NA,TRUE,j,j,NA,NA,NA,1,6,"3,5,1,10,15,6,13,12,14,2,7,11,4,8,9"
14411,commdev-image-keyboard-response,530,973783,learnblock2,652.6999999880791,img/planet7_right.png,7,Community 3,NA,TRUE,j,j,NA,NA,NA,1,6,"3,5,1,10,15,6,13,12,14,2,7,11,4,8,9"
14411,commdev-image-keyboard-response,531,975034,learnblock2,692.9000000357628,img/planet8_left.png,8,Community 3,NA,TRUE,f,f,NA,NA,NA,1,6,"3,5,1,10,15,6,13,12,14,2,7,11,4,8,9"
14411,commdev-image-keyboard-response,532,976285,learnblock2,601.6000000238419,img/planet7_left.png,7,Community 3,NA,TRUE,f,f,NA,NA,NA,1,6,"3,5,1,10,15,6,13,12,14,2,7,11,4,8,9"
14411,commdev-image-keyboard-response,533,977537,learnblock2,717.2000000476837,img/planet15_right.png,15,Community 1,NA,TRUE,j,j,NA,NA,NA,1,6,"3,5,1,10,15,6,13,12,14,2,7,11,4,8,9"
14411,commdev-image-keyboard-response,534,978788,learnblock2,785.6999999880791,img/planet3_left.png,3,Community 1,NA,TRUE,f,f,NA,NA,NA,1,6,"3,5,1,10,15,6,13,12,14,2,7,11,4,8,9"
14411,commdev-image-keyboard-response,535,980040,learnblock2,571.1000000238419,img/planet15_right.png,15,Community 1,NA,TRUE,j,j,NA,NA,NA,1,6,"3,5,1,10,15,6,13,12,14,2,7,11,4,8,9"
14411,commdev-image-keyboard-response,536,981292,learnblock2,529.4000000357628,img/planet1_left.png,1,Community 1,NA,TRUE,f,f,NA,NA,NA,1,6,"3,5,1,10,15,6,13,12,14,2,7,11,4,8,9"
14411,commdev-image-keyboard-response,537,982543,learnblock2,703,img/planet3_left.png,3,Community 1,NA,TRUE,f,f,NA,NA,NA,1,6,"3,5,1,10,15,6,13,12,14,2,7,11,4,8,9"
14411,commdev-image-keyboard-response,538,983795,learnblock2,625.5,img/planet15_right.png,15,Community 1,NA,TRUE,j,j,NA,NA,NA,1,6,"3,5,1,10,15,6,13,12,14,2,7,11,4,8,9"
14411,commdev-image-keyboard-response,539,985047,learnblock2,734.1999999880791,img/planet3_left.png,3,Community 1,NA,TRUE,f,f,NA,NA,NA,1,6,"3,5,1,10,15,6,13,12,14,2,7,11,4,8,9"
14411,commdev-image-keyboard-response,540,986299,learnblock2,526.8000000119209,img/planet5_right.png,5,Community 1,NA,TRUE,j,j,NA,NA,NA,1,6,"3,5,1,10,15,6,13,12,14,2,7,11,4,8,9"
14411,commdev-image-keyboard-response,541,987550,learnblock2,590.6000000238419,img/planet3_left.png,3,Community 1,NA,TRUE,f,f,NA,NA,NA,1,6,"3,5,1,10,15,6,13,12,14,2,7,11,4,8,9"
14411,commdev-image-keyboard-response,542,988813,learnblock2,716,img/planet10_right.png,10,Community 1,NA,TRUE,j,j,NA,NA,NA,1,6,"3,5,1,10,15,6,13,12,14,2,7,11,4,8,9"
14411,commdev-image-keyboard-response,543,990064,learnblock2,850.3999999761581,img/planet5_left.png,5,Community 1,NA,TRUE,f,f,NA,NA,NA,1,6,"3,5,1,10,15,6,13,12,14,2,7,11,4,8,9"
14411,commdev-image-keyboard-response,544,991316,learnblock2,700.6999999880791,img/planet15_right.png,15,Community 1,NA,TRUE,j,j,NA,NA,NA,1,6,"3,5,1,10,15,6,13,12,14,2,7,11,4,8,9"
14411,commdev-image-keyboard-response,545,992568,learnblock2,720.4000000357628,img/planet7_left.png,7,Community 3,NA,TRUE,f,f,NA,NA,NA,1,6,"3,5,1,10,15,6,13,12,14,2,7,11,4,8,9"
14411,commdev-image-keyboard-response,546,993820,learnblock2,695.2000000476837,img/planet9_left.png,9,Community 3,NA,TRUE,f,f,NA,NA,NA,1,6,"3,5,1,10,15,6,13,12,14,2,7,11,4,8,9"
14411,commdev-image-keyboard-response,547,995072,learnblock2,691.5,img/planet11_right.png,11,Community 3,NA,TRUE,j,j,NA,NA,NA,1,6,"3,5,1,10,15,6,13,12,14,2,7,11,4,8,9"
14411,commdev-image-keyboard-response,548,996324,learnblock2,600.8999999761581,img/planet12_left.png,12,Community 2,NA,FALSE,j,f,NA,NA,NA,1,6,"3,5,1,10,15,6,13,12,14,2,7,11,4,8,9"
14411,commdev-image-keyboard-response,549,997575,learnblock2,927.8999999761581,img/planet2_left.png,2,Community 2,NA,FALSE,j,f,NA,NA,NA,1,6,"3,5,1,10,15,6,13,12,14,2,7,11,4,8,9"
14411,commdev-image-keyboard-response,550,998827,learnblock2,697.1999999880791,img/planet12_left.png,12,Community 2,NA,TRUE,f,f,NA,NA,NA,1,6,"3,5,1,10,15,6,13,12,14,2,7,11,4,8,9"
14411,commdev-image-keyboard-response,551,1000079,learnblock2,538.0999999642372,img/planet14_right.png,14,Community 2,NA,TRUE,j,j,NA,NA,NA,1,6,"3,5,1,10,15,6,13,12,14,2,7,11,4,8,9"
14411,commdev-image-keyboard-response,552,1001330,learnblock2,887.6999999880791,img/planet6_left.png,6,Community 2,NA,TRUE,f,f,NA,NA,NA,1,6,"3,5,1,10,15,6,13,12,14,2,7,11,4,8,9"
14411,commdev-image-keyboard-response,553,1002582,learnblock2,604.6999999880791,img/planet14_right.png,14,Community 2,NA,TRUE,j,j,NA,NA,NA,1,6,"3,5,1,10,15,6,13,12,14,2,7,11,4,8,9"
14411,commdev-image-keyboard-response,554,1003847,learnblock2,662.6999999880791,img/planet6_right.png,6,Community 2,NA,TRUE,j,j,NA,NA,NA,1,6,"3,5,1,10,15,6,13,12,14,2,7,11,4,8,9"
14411,commdev-image-keyboard-response,555,1005099,learnblock2,575.1999999880791,img/planet2_right.png,2,Community 2,NA,TRUE,j,j,NA,NA,NA,1,6,"3,5,1,10,15,6,13,12,14,2,7,11,4,8,9"
14411,commdev-image-keyboard-response,556,1006351,learnblock2,548.7999999523163,img/planet14_right.png,14,Community 2,NA,TRUE,j,j,NA,NA,NA,1,6,"3,5,1,10,15,6,13,12,14,2,7,11,4,8,9"
14411,commdev-image-keyboard-response,557,1007603,learnblock2,499,img/planet2_left.png,2,Community 2,NA,TRUE,f,f,NA,NA,NA,1,6,"3,5,1,10,15,6,13,12,14,2,7,11,4,8,9"
14411,commdev-image-keyboard-response,558,1008854,learnblock2,675,img/planet6_right.png,6,Community 2,NA,TRUE,j,j,NA,NA,NA,1,6,"3,5,1,10,15,6,13,12,14,2,7,11,4,8,9"
14411,commdev-image-keyboard-response,559,1010105,learnblock2,492,img/planet13_right.png,13,Community 2,NA,TRUE,j,j,NA,NA,NA,1,6,"3,5,1,10,15,6,13,12,14,2,7,11,4,8,9"
14411,commdev-image-keyboard-response,560,1011356,learnblock2,488.39999997615814,img/planet12_right.png,12,Community 2,NA,TRUE,j,j,NA,NA,NA,1,6,"3,5,1,10,15,6,13,12,14,2,7,11,4,8,9"
14411,commdev-image-keyboard-response,561,1012607,learnblock2,585.6000000238419,img/planet13_right.png,13,Community 2,NA,TRUE,j,j,NA,NA,NA,1,6,"3,5,1,10,15,6,13,12,14,2,7,11,4,8,9"
14411,commdev-image-keyboard-response,562,1013859,learnblock2,510.30000001192093,img/planet6_right.png,6,Community 2,NA,TRUE,j,j,NA,NA,NA,1,6,"3,5,1,10,15,6,13,12,14,2,7,11,4,8,9"
14411,commdev-image-keyboard-response,563,1015110,learnblock2,535.1999999880791,img/planet14_left.png,14,Community 2,NA,TRUE,f,f,NA,NA,NA,1,6,"3,5,1,10,15,6,13,12,14,2,7,11,4,8,9"
14411,commdev-image-keyboard-response,564,1016362,learnblock2,536.8999999761581,img/planet12_right.png,12,Community 2,NA,TRUE,j,j,NA,NA,NA,1,6,"3,5,1,10,15,6,13,12,14,2,7,11,4,8,9"
14411,commdev-image-keyboard-response,565,1017614,learnblock2,723.6000000238419,img/planet11_left.png,11,Community 3,NA,TRUE,f,f,NA,NA,NA,1,6,"3,5,1,10,15,6,13,12,14,2,7,11,4,8,9"
14411,commdev-image-keyboard-response,566,1018866,learnblock2,669.5,img/planet9_left.png,9,Community 3,NA,TRUE,f,f,NA,NA,NA,1,6,"3,5,1,10,15,6,13,12,14,2,7,11,4,8,9"
14411,commdev-image-keyboard-response,567,1020118,learnblock2,469.30000001192093,img/planet11_left.png,11,Community 3,NA,TRUE,f,f,NA,NA,NA,1,6,"3,5,1,10,15,6,13,12,14,2,7,11,4,8,9"
14411,commdev-image-keyboard-response,568,1021369,learnblock2,605.4000000357628,img/planet12_right.png,12,Community 2,NA,TRUE,j,j,NA,NA,NA,1,6,"3,5,1,10,15,6,13,12,14,2,7,11,4,8,9"
14411,commdev-image-keyboard-response,569,1022620,learnblock2,588.1999999880791,img/planet14_right.png,14,Community 2,NA,TRUE,j,j,NA,NA,NA,1,6,"3,5,1,10,15,6,13,12,14,2,7,11,4,8,9"
14411,commdev-image-keyboard-response,570,1023872,learnblock2,519.5,img/planet12_right.png,12,Community 2,NA,TRUE,j,j,NA,NA,NA,1,6,"3,5,1,10,15,6,13,12,14,2,7,11,4,8,9"
14411,commdev-image-keyboard-response,571,1025124,learnblock2,599.0999999642372,img/planet13_left.png,13,Community 2,NA,TRUE,f,f,NA,NA,NA,1,6,"3,5,1,10,15,6,13,12,14,2,7,11,4,8,9"
14411,commdev-image-keyboard-response,572,1026377,learnblock2,686.8000000119209,img/planet2_left.png,2,Community 2,NA,TRUE,f,f,NA,NA,NA,1,6,"3,5,1,10,15,6,13,12,14,2,7,11,4,8,9"
14411,commdev-image-keyboard-response,573,1027629,learnblock2,543.6999999880791,img/planet13_left.png,13,Community 2,NA,TRUE,f,f,NA,NA,NA,1,6,"3,5,1,10,15,6,13,12,14,2,7,11,4,8,9"
14411,commdev-image-keyboard-response,574,1028880,learnblock2,479.7000000476837,img/planet14_right.png,14,Community 2,NA,TRUE,j,j,NA,NA,NA,1,6,"3,5,1,10,15,6,13,12,14,2,7,11,4,8,9"
14411,commdev-image-keyboard-response,575,1030132,learnblock2,576.6999999880791,img/planet2_left.png,2,Community 2,NA,TRUE,f,f,NA,NA,NA,1,6,"3,5,1,10,15,6,13,12,14,2,7,11,4,8,9"
14411,commdev-image-keyboard-response,576,1031384,learnblock2,565.4000000357628,img/planet12_right.png,12,Community 2,NA,TRUE,j,j,NA,NA,NA,1,6,"3,5,1,10,15,6,13,12,14,2,7,11,4,8,9"
14411,commdev-image-keyboard-response,577,1032635,learnblock2,521.1000000238419,img/planet13_right.png,13,Community 2,NA,TRUE,j,j,NA,NA,NA,1,6,"3,5,1,10,15,6,13,12,14,2,7,11,4,8,9"
14411,commdev-image-keyboard-response,578,1033887,learnblock2,791.6000000238419,img/planet14_left.png,14,Community 2,NA,TRUE,f,f,NA,NA,NA,1,6,"3,5,1,10,15,6,13,12,14,2,7,11,4,8,9"
14411,commdev-image-keyboard-response,579,1035139,learnblock2,700.8000000119209,img/planet6_left.png,6,Community 2,NA,TRUE,f,f,NA,NA,NA,1,6,"3,5,1,10,15,6,13,12,14,2,7,11,4,8,9"
14411,commdev-image-keyboard-response,580,1036390,learnblock2,525.3999999761581,img/planet10_left.png,10,Community 1,NA,TRUE,f,f,NA,NA,NA,1,6,"3,5,1,10,15,6,13,12,14,2,7,11,4,8,9"
14411,commdev-image-keyboard-response,581,1037642,learnblock2,734.6000000238419,img/planet5_left.png,5,Community 1,NA,TRUE,f,f,NA,NA,NA,1,6,"3,5,1,10,15,6,13,12,14,2,7,11,4,8,9"
14411,commdev-image-keyboard-response,582,1038893,learnblock2,818.2999999523163,img/planet3_left.png,3,Community 1,NA,TRUE,f,f,NA,NA,NA,1,6,"3,5,1,10,15,6,13,12,14,2,7,11,4,8,9"
14411,commdev-image-keyboard-response,583,1040160,learnblock2,681.3000000119209,img/planet1_right.png,1,Community 1,NA,TRUE,j,j,NA,NA,NA,1,6,"3,5,1,10,15,6,13,12,14,2,7,11,4,8,9"
14411,commdev-image-keyboard-response,584,1041411,learnblock2,649.8999999761581,img/planet3_right.png,3,Community 1,NA,TRUE,j,j,NA,NA,NA,1,6,"3,5,1,10,15,6,13,12,14,2,7,11,4,8,9"
14411,commdev-image-keyboard-response,585,1042663,learnblock2,583.6000000238419,img/planet15_right.png,15,Community 1,NA,TRUE,j,j,NA,NA,NA,1,6,"3,5,1,10,15,6,13,12,14,2,7,11,4,8,9"
14411,commdev-image-keyboard-response,586,1043915,learnblock2,483.2999999523163,img/planet5_right.png,5,Community 1,NA,TRUE,j,j,NA,NA,NA,1,6,"3,5,1,10,15,6,13,12,14,2,7,11,4,8,9"
14411,commdev-image-keyboard-response,587,1045167,learnblock2,415.5,img/planet10_left.png,10,Community 1,NA,FALSE,j,f,NA,NA,NA,1,6,"3,5,1,10,15,6,13,12,14,2,7,11,4,8,9"
