subject_id,trial_type,trial_index,time_elapsed,block,rt,stimulus,planet,community,response,correct,key_press,learning_correct_response,parse,init_locations,final_locations,browser_interactions,num_comp,planet_map
14615,commdev-instructions,7,30981,NA,1180.5,"<p>In this game, you will be shown a 3x3 grid of patterns.</p> <p>The last one in the bottom right-hand corner, <strong>will be missing:</strong></p> <div style='width: 700px;'><div style='float: top;'><img style='width: 200px;' src='practice/p1_M1.png'></img><p class='small'>You need to select<strong> which of the four possible patterns </strong>along the bottom<strong> fits into the gap:</strong></p></div><div style='float: top;'><img style='width: 300px;' src='practice/p1_T1.png'></img></div><br>",NA,NA,NA,NA,NA,NA,NA,NA,NA,5,6,"4,15,13,5,10,7,1,2,11,3,12,8,14,6,9"
14615,commdev-instructions,8,50777,NA,1196.8999999761581,"<p>Try to be as fast and as accurate as you can be.</p> <p>If you cannot solve the puzzle then you should guess - you will not be penalised for an incorrect answer.</p> <p>The task contains a shuffled mix of easy, medium and hard puzzles.</p> <p>You will have <strong>30 seconds</strong> to complete each puzzle.</p><br>",NA,NA,NA,NA,NA,NA,NA,NA,NA,5,6,"4,15,13,5,10,7,1,2,11,3,12,8,14,6,9"
14615,commdev-instructions,15,85912,NA,5299.899999976158,<p><strong>Success!</strong></p> <p>You seem to be getting the hang of this...</p> <p>Let's move on to the real trials.</p><br>,NA,NA,NA,NA,NA,NA,NA,NA,NA,5,6,"4,15,13,5,10,7,1,2,11,3,12,8,14,6,9"
14615,commdev-instructions,77,581423,NA,2749,"<p>In this game, you are a scientist on board a space shuttle. </p><p> On each mission, you will visit planets all across the universe.</p><img src=""img/controlroom.jpg"" width=300vw>",NA,NA,NA,NA,NA,NA,NA,NA,NA,5,6,"4,15,13,5,10,7,1,2,11,3,12,8,14,6,9"
14615,commdev-instructions,78,584385,NA,890.6000000238419,"<p>Here are a few planets you might see:</p><img src=""img/practice1.png"" width=200vw><img src=""img/practice2.png"" width=200vw><img src=""img/practice3.png"" width=200vw>",NA,NA,NA,NA,NA,NA,NA,NA,NA,5,6,"4,15,13,5,10,7,1,2,11,3,12,8,14,6,9"
14615,commdev-instructions,79,592970,NA,1174.2000000476837,"<p>Your job as a scientist is to record which direction the winds are moving on each planet.</p><p>There are two types of wind directions:</p><img src=""img/practice1_left.png"" width=200vw><img src=""img/practice1_right.png"" width=200vw>",NA,NA,NA,NA,NA,NA,NA,NA,NA,5,6,"4,15,13,5,10,7,1,2,11,3,12,8,14,6,9"
14615,commdev-instructions,80,601739,NA,3881.7000000476837,"<p>If the winds are moving this way, press the letter <strong>F</strong> on the keyboard as fast as you can.</p><img src=""img/leftwind.png"" width=250vw>",NA,NA,NA,NA,NA,NA,NA,NA,NA,5,6,"4,15,13,5,10,7,1,2,11,3,12,8,14,6,9"
14615,commdev-instructions,81,607916,NA,1668.7000000476837,"<p>If the winds are moving this way, press the letter <strong>J</strong> on the keyboard as fast as you can.</p><img src=""img/rightwind.png"" width=350vw>",NA,NA,NA,NA,NA,NA,NA,NA,NA,5,6,"4,15,13,5,10,7,1,2,11,3,12,8,14,6,9"
14615,commdev-instructions,82,613737,NA,1399.2000000476837,<p>You will have 1 second to respond. Try to respond before the time runs out!,NA,NA,NA,NA,NA,NA,NA,NA,NA,5,6,"4,15,13,5,10,7,1,2,11,3,12,8,14,6,9"
14615,commdev-instructions,83,620119,NA,942,<p>The planets you will visit will look different from each other.</p><p>You should respond <strong>only</strong> based on wind direction.,NA,NA,NA,NA,NA,NA,NA,NA,NA,5,6,"4,15,13,5,10,7,1,2,11,3,12,8,14,6,9"
14615,commdev-instructions,84,626773,NA,1474.2999999523163,"<p> Ready to start the practice round? </p><p> Remember, press <strong>F</strong> or <strong>J</strong> depending on the wind direction.<br><img src=""img/categorize_planet_example.png""",NA,NA,NA,NA,NA,NA,NA,NA,NA,5,6,"4,15,13,5,10,7,1,2,11,3,12,8,14,6,9"
14615,commdev-instructions,96,681347,NA,1453.6000000238419,"<p>Great, now try a short practice mission. </p><p> This time, you will have 1 second to respond and you won't know whether you pressed the right or wrong key for each planet.</p>",NA,NA,NA,NA,NA,NA,NA,NA,NA,5,6,"4,15,13,5,10,7,1,2,11,3,12,8,14,6,9"
14615,commdev-image-keyboard-response,97,682711,practice,830.4000000953674,img/practice3_right.png,NA,Number not found in mappings,NA,TRUE,j,j,NA,NA,NA,5,6,"4,15,13,5,10,7,1,2,11,3,12,8,14,6,9"
14615,commdev-image-keyboard-response,98,683973,practice,1228.8999999761581,img/practice2_right.png,NA,Number not found in mappings,NA,TRUE,j,j,NA,NA,NA,5,6,"4,15,13,5,10,7,1,2,11,3,12,8,14,6,9"
14615,commdev-image-keyboard-response,99,685226,practice,918.1999999284744,img/practice4_right.png,NA,Number not found in mappings,NA,TRUE,j,j,NA,NA,NA,5,6,"4,15,13,5,10,7,1,2,11,3,12,8,14,6,9"
14615,commdev-image-keyboard-response,100,686480,practice,691.2000000476837,img/practice3_right.png,NA,Number not found in mappings,NA,TRUE,j,j,NA,NA,NA,5,6,"4,15,13,5,10,7,1,2,11,3,12,8,14,6,9"
14615,commdev-image-keyboard-response,101,687746,practice,716.6999999284744,img/practice4_right.png,NA,Number not found in mappings,NA,TRUE,j,j,NA,NA,NA,5,6,"4,15,13,5,10,7,1,2,11,3,12,8,14,6,9"
14615,commdev-image-keyboard-response,102,689002,practice,740.5999999046326,img/practice2_left.png,NA,Number not found in mappings,NA,TRUE,f,f,NA,NA,NA,5,6,"4,15,13,5,10,7,1,2,11,3,12,8,14,6,9"
14615,commdev-image-keyboard-response,103,690256,practice,788.7999999523163,img/practice3_left.png,NA,Number not found in mappings,NA,TRUE,f,f,NA,NA,NA,5,6,"4,15,13,5,10,7,1,2,11,3,12,8,14,6,9"
14615,commdev-image-keyboard-response,104,691515,practice,652.5999999046326,img/practice4_left.png,NA,Number not found in mappings,NA,TRUE,f,f,NA,NA,NA,5,6,"4,15,13,5,10,7,1,2,11,3,12,8,14,6,9"
14615,commdev-instructions,105,702248,NA,1173.8999999761581,"<p>Great job with the practice round.</p><p>During real missions, you won't know whether you pressed the right or wrong key for each planet.</p><p>But between missions, we will tell you how you did overall.</p>",NA,NA,NA,NA,NA,NA,NA,NA,NA,5,6,"4,15,13,5,10,7,1,2,11,3,12,8,14,6,9"
14615,commdev-instructions,106,711718,NA,1223.8999999761581,<p>Try your best! You will be paid a bonus based on how many correct responses you make!</p><p>Responses that are too slow will not count toward your bonus.</p>,NA,NA,NA,NA,NA,NA,NA,NA,NA,5,6,"4,15,13,5,10,7,1,2,11,3,12,8,14,6,9"
14615,commdev-instructions,107,719863,NA,1926.7999999523163,"<p>You are almost ready to start the real game.</p><p> First, we are going to ask you some questions about how the game works.</p>",NA,NA,NA,NA,NA,NA,NA,NA,NA,5,6,"4,15,13,5,10,7,1,2,11,3,12,8,14,6,9"
14615,commdev-instructions,116,807517,NA,1735.3999999761581,"<p> Nice work! It is now time to start the real game.<p></p>You will go on two missions to record wind directions of different planets.<p></p>Each one will take about 5 minutes. You will get to take a break between missions.<p><p> Remember, press <strong>F</strong> or <strong>J</strong> depending on the wind direction. Good luck!<br><img src=""img/categorize_planet_example.png""",NA,NA,NA,NA,NA,NA,NA,NA,NA,5,6,"4,15,13,5,10,7,1,2,11,3,12,8,14,6,9"
14615,commdev-image-keyboard-response,118,811835,learnblock1,null,img/planet15_left.png,15,Community 1,NA,FALSE,null,f,NA,NA,NA,5,6,"4,15,13,5,10,7,1,2,11,3,12,8,14,6,9"
14615,commdev-image-keyboard-response,119,813100,learnblock1,4.699999928474426,img/planet13_right.png,13,Community 1,NA,FALSE,f,j,NA,NA,NA,5,6,"4,15,13,5,10,7,1,2,11,3,12,8,14,6,9"
14615,commdev-image-keyboard-response,120,814368,learnblock1,1051.6000000238419,img/planet4_left.png,4,Community 1,NA,TRUE,f,f,NA,NA,NA,5,6,"4,15,13,5,10,7,1,2,11,3,12,8,14,6,9"
14615,commdev-image-keyboard-response,121,815625,learnblock1,864.1999999284744,img/planet10_right.png,10,Community 1,NA,TRUE,j,j,NA,NA,NA,5,6,"4,15,13,5,10,7,1,2,11,3,12,8,14,6,9"
14615,commdev-image-keyboard-response,122,816879,learnblock1,1121.3000000715256,img/planet13_right.png,13,Community 1,NA,TRUE,j,j,NA,NA,NA,5,6,"4,15,13,5,10,7,1,2,11,3,12,8,14,6,9"
14615,commdev-image-keyboard-response,123,818143,learnblock1,1050.7000000476837,img/planet10_right.png,10,Community 1,NA,TRUE,j,j,NA,NA,NA,5,6,"4,15,13,5,10,7,1,2,11,3,12,8,14,6,9"
14615,commdev-image-keyboard-response,124,819399,learnblock1,1084.1000000238419,img/planet12_right.png,12,Community 3,NA,TRUE,j,j,NA,NA,NA,5,6,"4,15,13,5,10,7,1,2,11,3,12,8,14,6,9"
14615,commdev-image-keyboard-response,125,820658,learnblock1,920.1000000238419,img/planet10_left.png,10,Community 1,NA,TRUE,f,f,NA,NA,NA,5,6,"4,15,13,5,10,7,1,2,11,3,12,8,14,6,9"
14615,commdev-image-keyboard-response,126,821911,learnblock1,null,img/planet4_left.png,4,Community 1,NA,FALSE,null,f,NA,NA,NA,5,6,"4,15,13,5,10,7,1,2,11,3,12,8,14,6,9"
14615,commdev-image-keyboard-response,127,823168,learnblock1,204.30000007152557,img/planet15_right.png,15,Community 1,NA,FALSE,f,j,NA,NA,NA,5,6,"4,15,13,5,10,7,1,2,11,3,12,8,14,6,9"
14615,commdev-image-keyboard-response,128,824423,learnblock1,1154.8999999761581,img/planet5_left.png,5,Community 1,NA,TRUE,f,f,NA,NA,NA,5,6,"4,15,13,5,10,7,1,2,11,3,12,8,14,6,9"
14615,commdev-image-keyboard-response,129,825685,learnblock1,995.3000000715256,img/planet4_right.png,4,Community 1,NA,TRUE,j,j,NA,NA,NA,5,6,"4,15,13,5,10,7,1,2,11,3,12,8,14,6,9"
14615,commdev-image-keyboard-response,130,826944,learnblock1,null,img/planet15_left.png,15,Community 1,NA,FALSE,null,f,NA,NA,NA,5,6,"4,15,13,5,10,7,1,2,11,3,12,8,14,6,9"
14615,commdev-image-keyboard-response,131,828200,learnblock1,144.5,img/planet5_left.png,5,Community 1,NA,TRUE,f,f,NA,NA,NA,5,6,"4,15,13,5,10,7,1,2,11,3,12,8,14,6,9"
14615,commdev-image-keyboard-response,132,829456,learnblock1,80.60000002384186,img/planet4_left.png,4,Community 1,NA,TRUE,f,f,NA,NA,NA,5,6,"4,15,13,5,10,7,1,2,11,3,12,8,14,6,9"
14615,commdev-image-keyboard-response,133,830710,learnblock1,835.8999999761581,img/planet15_left.png,15,Community 1,NA,TRUE,f,f,NA,NA,NA,5,6,"4,15,13,5,10,7,1,2,11,3,12,8,14,6,9"
14615,commdev-image-keyboard-response,134,831971,learnblock1,887.1000000238419,img/planet5_left.png,5,Community 1,NA,TRUE,f,f,NA,NA,NA,5,6,"4,15,13,5,10,7,1,2,11,3,12,8,14,6,9"
14615,commdev-image-keyboard-response,135,833231,learnblock1,826,img/planet4_left.png,4,Community 1,NA,TRUE,f,f,NA,NA,NA,5,6,"4,15,13,5,10,7,1,2,11,3,12,8,14,6,9"
14615,commdev-image-keyboard-response,136,834487,learnblock1,683.2999999523163,img/planet10_right.png,10,Community 1,NA,TRUE,j,j,NA,NA,NA,5,6,"4,15,13,5,10,7,1,2,11,3,12,8,14,6,9"
14615,commdev-image-keyboard-response,137,835748,learnblock1,651.6000000238419,img/planet15_left.png,15,Community 1,NA,TRUE,f,f,NA,NA,NA,5,6,"4,15,13,5,10,7,1,2,11,3,12,8,14,6,9"
14615,commdev-image-keyboard-response,138,837015,learnblock1,727.6000000238419,img/planet13_left.png,13,Community 1,NA,TRUE,f,f,NA,NA,NA,5,6,"4,15,13,5,10,7,1,2,11,3,12,8,14,6,9"
14615,commdev-image-keyboard-response,139,838268,learnblock1,698.5,img/planet5_right.png,5,Community 1,NA,TRUE,j,j,NA,NA,NA,5,6,"4,15,13,5,10,7,1,2,11,3,12,8,14,6,9"
14615,commdev-image-keyboard-response,140,839522,learnblock1,null,img/planet7_left.png,7,Community 2,NA,FALSE,null,f,NA,NA,NA,5,6,"4,15,13,5,10,7,1,2,11,3,12,8,14,6,9"
14615,commdev-image-keyboard-response,141,840774,learnblock1,206.5,img/planet11_right.png,11,Community 2,NA,FALSE,f,j,NA,NA,NA,5,6,"4,15,13,5,10,7,1,2,11,3,12,8,14,6,9"
14615,commdev-image-keyboard-response,142,842040,learnblock1,857.2999999523163,img/planet3_left.png,3,Community 2,NA,TRUE,f,f,NA,NA,NA,5,6,"4,15,13,5,10,7,1,2,11,3,12,8,14,6,9"
14615,commdev-image-keyboard-response,143,843307,learnblock1,802.8999999761581,img/planet1_left.png,1,Community 2,NA,TRUE,f,f,NA,NA,NA,5,6,"4,15,13,5,10,7,1,2,11,3,12,8,14,6,9"
14615,commdev-image-keyboard-response,144,844562,learnblock1,1125,img/planet7_left.png,7,Community 2,NA,FALSE,j,f,NA,NA,NA,5,6,"4,15,13,5,10,7,1,2,11,3,12,8,14,6,9"
14615,commdev-image-keyboard-response,145,845820,learnblock1,845.5,img/planet5_right.png,5,Community 1,NA,TRUE,j,j,NA,NA,NA,5,6,"4,15,13,5,10,7,1,2,11,3,12,8,14,6,9"
14615,commdev-image-keyboard-response,146,847085,learnblock1,951.8999999761581,img/planet13_right.png,13,Community 1,NA,TRUE,j,j,NA,NA,NA,5,6,"4,15,13,5,10,7,1,2,11,3,12,8,14,6,9"
14615,commdev-image-keyboard-response,147,848338,learnblock1,789.5999999046326,img/planet10_left.png,10,Community 1,NA,TRUE,f,f,NA,NA,NA,5,6,"4,15,13,5,10,7,1,2,11,3,12,8,14,6,9"
14615,commdev-image-keyboard-response,148,849599,learnblock1,693.5,img/planet13_right.png,13,Community 1,NA,TRUE,j,j,NA,NA,NA,5,6,"4,15,13,5,10,7,1,2,11,3,12,8,14,6,9"
14615,commdev-image-keyboard-response,149,850853,learnblock1,675.6000000238419,img/planet15_left.png,15,Community 1,NA,TRUE,f,f,NA,NA,NA,5,6,"4,15,13,5,10,7,1,2,11,3,12,8,14,6,9"
14615,commdev-image-keyboard-response,150,852120,learnblock1,752.7000000476837,img/planet13_right.png,13,Community 1,NA,TRUE,j,j,NA,NA,NA,5,6,"4,15,13,5,10,7,1,2,11,3,12,8,14,6,9"
14615,commdev-image-keyboard-response,151,853373,learnblock1,630.5,img/planet10_left.png,10,Community 1,NA,TRUE,f,f,NA,NA,NA,5,6,"4,15,13,5,10,7,1,2,11,3,12,8,14,6,9"
14615,commdev-image-keyboard-response,152,854637,learnblock1,646,img/planet13_right.png,13,Community 1,NA,TRUE,j,j,NA,NA,NA,5,6,"4,15,13,5,10,7,1,2,11,3,12,8,14,6,9"
14615,commdev-image-keyboard-response,153,855889,learnblock1,809.2999999523163,img/planet15_left.png,15,Community 1,NA,TRUE,f,f,NA,NA,NA,5,6,"4,15,13,5,10,7,1,2,11,3,12,8,14,6,9"
14615,commdev-image-keyboard-response,154,857141,learnblock1,799.6000000238419,img/planet5_left.png,5,Community 1,NA,TRUE,f,f,NA,NA,NA,5,6,"4,15,13,5,10,7,1,2,11,3,12,8,14,6,9"
14615,commdev-image-keyboard-response,155,858396,learnblock1,714.7000000476837,img/planet4_right.png,4,Community 1,NA,TRUE,j,j,NA,NA,NA,5,6,"4,15,13,5,10,7,1,2,11,3,12,8,14,6,9"
14615,commdev-image-keyboard-response,156,859649,learnblock1,736.7000000476837,img/planet15_left.png,15,Community 1,NA,TRUE,f,f,NA,NA,NA,5,6,"4,15,13,5,10,7,1,2,11,3,12,8,14,6,9"
14615,commdev-image-keyboard-response,157,860914,learnblock1,668.5,img/planet13_left.png,13,Community 1,NA,TRUE,f,f,NA,NA,NA,5,6,"4,15,13,5,10,7,1,2,11,3,12,8,14,6,9"
14615,commdev-image-keyboard-response,158,862178,learnblock1,599.5,img/planet4_right.png,4,Community 1,NA,TRUE,j,j,NA,NA,NA,5,6,"4,15,13,5,10,7,1,2,11,3,12,8,14,6,9"
14615,commdev-image-keyboard-response,159,863445,learnblock1,767.5,img/planet15_right.png,15,Community 1,NA,TRUE,j,j,NA,NA,NA,5,6,"4,15,13,5,10,7,1,2,11,3,12,8,14,6,9"
14615,commdev-image-keyboard-response,160,864698,learnblock1,700.8999999761581,img/planet4_left.png,4,Community 1,NA,TRUE,f,f,NA,NA,NA,5,6,"4,15,13,5,10,7,1,2,11,3,12,8,14,6,9"
14615,commdev-image-keyboard-response,161,865960,learnblock1,919.4000000953674,img/planet13_left.png,13,Community 1,NA,TRUE,f,f,NA,NA,NA,5,6,"4,15,13,5,10,7,1,2,11,3,12,8,14,6,9"
14615,commdev-image-keyboard-response,162,867215,learnblock1,798.5,img/planet4_right.png,4,Community 1,NA,TRUE,j,j,NA,NA,NA,5,6,"4,15,13,5,10,7,1,2,11,3,12,8,14,6,9"
14615,commdev-image-keyboard-response,163,868482,learnblock1,684.1000000238419,img/planet15_left.png,15,Community 1,NA,TRUE,f,f,NA,NA,NA,5,6,"4,15,13,5,10,7,1,2,11,3,12,8,14,6,9"
14615,commdev-image-keyboard-response,164,869735,learnblock1,684,img/planet4_left.png,4,Community 1,NA,TRUE,f,f,NA,NA,NA,5,6,"4,15,13,5,10,7,1,2,11,3,12,8,14,6,9"
14615,commdev-image-keyboard-response,165,870989,learnblock1,605.3000000715256,img/planet15_right.png,15,Community 1,NA,TRUE,j,j,NA,NA,NA,5,6,"4,15,13,5,10,7,1,2,11,3,12,8,14,6,9"
14615,commdev-image-keyboard-response,166,872242,learnblock1,676.3999999761581,img/planet13_right.png,13,Community 1,NA,TRUE,j,j,NA,NA,NA,5,6,"4,15,13,5,10,7,1,2,11,3,12,8,14,6,9"
14615,commdev-image-keyboard-response,167,873496,learnblock1,614.8999999761581,img/planet10_right.png,10,Community 1,NA,TRUE,j,j,NA,NA,NA,5,6,"4,15,13,5,10,7,1,2,11,3,12,8,14,6,9"
14615,commdev-image-keyboard-response,168,874750,learnblock1,798.7999999523163,img/planet15_right.png,15,Community 1,NA,TRUE,j,j,NA,NA,NA,5,6,"4,15,13,5,10,7,1,2,11,3,12,8,14,6,9"
14615,commdev-image-keyboard-response,169,876017,learnblock1,655,img/planet4_right.png,4,Community 1,NA,TRUE,j,j,NA,NA,NA,5,6,"4,15,13,5,10,7,1,2,11,3,12,8,14,6,9"
14615,commdev-image-keyboard-response,170,877271,learnblock1,662.5999999046326,img/planet15_left.png,15,Community 1,NA,TRUE,f,f,NA,NA,NA,5,6,"4,15,13,5,10,7,1,2,11,3,12,8,14,6,9"
14615,commdev-image-keyboard-response,171,878524,learnblock1,547.7000000476837,img/planet10_right.png,10,Community 1,NA,TRUE,j,j,NA,NA,NA,5,6,"4,15,13,5,10,7,1,2,11,3,12,8,14,6,9"
14615,commdev-image-keyboard-response,172,879781,learnblock1,553.5999999046326,img/planet4_right.png,4,Community 1,NA,TRUE,j,j,NA,NA,NA,5,6,"4,15,13,5,10,7,1,2,11,3,12,8,14,6,9"
14615,commdev-image-keyboard-response,173,881038,learnblock1,709.1000000238419,img/planet13_left.png,13,Community 1,NA,TRUE,f,f,NA,NA,NA,5,6,"4,15,13,5,10,7,1,2,11,3,12,8,14,6,9"
14615,commdev-image-keyboard-response,174,882302,learnblock1,781,img/planet5_left.png,5,Community 1,NA,TRUE,f,f,NA,NA,NA,5,6,"4,15,13,5,10,7,1,2,11,3,12,8,14,6,9"
14615,commdev-image-keyboard-response,175,883555,learnblock1,740.2999999523163,img/planet15_right.png,15,Community 1,NA,TRUE,j,j,NA,NA,NA,5,6,"4,15,13,5,10,7,1,2,11,3,12,8,14,6,9"
14615,commdev-image-keyboard-response,176,884821,learnblock1,745.6000000238419,img/planet5_right.png,5,Community 1,NA,TRUE,j,j,NA,NA,NA,5,6,"4,15,13,5,10,7,1,2,11,3,12,8,14,6,9"
14615,commdev-image-keyboard-response,177,886076,learnblock1,986.7000000476837,img/planet7_left.png,7,Community 2,NA,TRUE,f,f,NA,NA,NA,5,6,"4,15,13,5,10,7,1,2,11,3,12,8,14,6,9"
14615,commdev-image-keyboard-response,178,887328,learnblock1,1007.1000000238419,img/planet11_left.png,11,Community 2,NA,TRUE,f,f,NA,NA,NA,5,6,"4,15,13,5,10,7,1,2,11,3,12,8,14,6,9"
14615,commdev-image-keyboard-response,179,888593,learnblock1,915.6000000238419,img/planet3_left.png,3,Community 2,NA,TRUE,f,f,NA,NA,NA,5,6,"4,15,13,5,10,7,1,2,11,3,12,8,14,6,9"
14615,commdev-image-keyboard-response,180,889858,learnblock1,819.2999999523163,img/planet2_left.png,2,Community 2,NA,TRUE,f,f,NA,NA,NA,5,6,"4,15,13,5,10,7,1,2,11,3,12,8,14,6,9"
14615,commdev-image-keyboard-response,181,891112,learnblock1,724.1000000238419,img/planet8_left.png,8,Community 3,NA,TRUE,f,f,NA,NA,NA,5,6,"4,15,13,5,10,7,1,2,11,3,12,8,14,6,9"
14615,commdev-image-keyboard-response,182,892378,learnblock1,728.5,img/planet14_left.png,14,Community 3,NA,TRUE,f,f,NA,NA,NA,5,6,"4,15,13,5,10,7,1,2,11,3,12,8,14,6,9"
14615,commdev-image-keyboard-response,183,893645,learnblock1,984.3999999761581,img/planet8_right.png,8,Community 3,NA,TRUE,j,j,NA,NA,NA,5,6,"4,15,13,5,10,7,1,2,11,3,12,8,14,6,9"
14615,commdev-image-keyboard-response,184,894901,learnblock1,779.0999999046326,img/planet2_left.png,2,Community 2,NA,TRUE,f,f,NA,NA,NA,5,6,"4,15,13,5,10,7,1,2,11,3,12,8,14,6,9"
14615,commdev-image-keyboard-response,185,896154,learnblock1,829.5,img/planet3_right.png,3,Community 2,NA,TRUE,j,j,NA,NA,NA,5,6,"4,15,13,5,10,7,1,2,11,3,12,8,14,6,9"
14615,commdev-image-keyboard-response,186,897413,learnblock1,751.3999999761581,img/planet2_left.png,2,Community 2,NA,TRUE,f,f,NA,NA,NA,5,6,"4,15,13,5,10,7,1,2,11,3,12,8,14,6,9"
14615,commdev-image-keyboard-response,187,898666,learnblock1,780.8000000715256,img/planet11_right.png,11,Community 2,NA,TRUE,j,j,NA,NA,NA,5,6,"4,15,13,5,10,7,1,2,11,3,12,8,14,6,9"
14615,commdev-image-keyboard-response,188,899922,learnblock1,874.7000000476837,img/planet7_right.png,7,Community 2,NA,TRUE,j,j,NA,NA,NA,5,6,"4,15,13,5,10,7,1,2,11,3,12,8,14,6,9"
14615,commdev-image-keyboard-response,189,901178,learnblock1,817.8999999761581,img/planet5_right.png,5,Community 1,NA,TRUE,j,j,NA,NA,NA,5,6,"4,15,13,5,10,7,1,2,11,3,12,8,14,6,9"
14615,commdev-image-keyboard-response,190,902430,learnblock1,703.1000000238419,img/planet4_left.png,4,Community 1,NA,TRUE,f,f,NA,NA,NA,5,6,"4,15,13,5,10,7,1,2,11,3,12,8,14,6,9"
14615,commdev-image-keyboard-response,191,903693,learnblock1,736.5,img/planet5_left.png,5,Community 1,NA,TRUE,f,f,NA,NA,NA,5,6,"4,15,13,5,10,7,1,2,11,3,12,8,14,6,9"
14615,commdev-image-keyboard-response,192,904960,learnblock1,943.5,img/planet15_right.png,15,Community 1,NA,TRUE,j,j,NA,NA,NA,5,6,"4,15,13,5,10,7,1,2,11,3,12,8,14,6,9"
14615,commdev-image-keyboard-response,193,906226,learnblock1,869.3999999761581,img/planet13_left.png,13,Community 1,NA,TRUE,f,f,NA,NA,NA,5,6,"4,15,13,5,10,7,1,2,11,3,12,8,14,6,9"
14615,commdev-image-keyboard-response,194,907478,learnblock1,701,img/planet4_left.png,4,Community 1,NA,TRUE,f,f,NA,NA,NA,5,6,"4,15,13,5,10,7,1,2,11,3,12,8,14,6,9"
14615,commdev-image-keyboard-response,195,908741,learnblock1,676.8000000715256,img/planet5_left.png,5,Community 1,NA,TRUE,f,f,NA,NA,NA,5,6,"4,15,13,5,10,7,1,2,11,3,12,8,14,6,9"
14615,commdev-image-keyboard-response,196,909997,learnblock1,667,img/planet4_right.png,4,Community 1,NA,TRUE,j,j,NA,NA,NA,5,6,"4,15,13,5,10,7,1,2,11,3,12,8,14,6,9"
14615,commdev-image-keyboard-response,197,911263,learnblock1,765.8999999761581,img/planet5_left.png,5,Community 1,NA,TRUE,f,f,NA,NA,NA,5,6,"4,15,13,5,10,7,1,2,11,3,12,8,14,6,9"
14615,commdev-image-keyboard-response,198,912517,learnblock1,954.5,img/planet4_left.png,4,Community 1,NA,TRUE,f,f,NA,NA,NA,5,6,"4,15,13,5,10,7,1,2,11,3,12,8,14,6,9"
14615,commdev-image-keyboard-response,199,913776,learnblock1,814,img/planet15_left.png,15,Community 1,NA,TRUE,f,f,NA,NA,NA,5,6,"4,15,13,5,10,7,1,2,11,3,12,8,14,6,9"
14615,commdev-image-keyboard-response,200,915040,learnblock1,734.1000000238419,img/planet10_left.png,10,Community 1,NA,TRUE,f,f,NA,NA,NA,5,6,"4,15,13,5,10,7,1,2,11,3,12,8,14,6,9"
14615,commdev-image-keyboard-response,201,916298,learnblock1,632.5,img/planet13_right.png,13,Community 1,NA,TRUE,j,j,NA,NA,NA,5,6,"4,15,13,5,10,7,1,2,11,3,12,8,14,6,9"
14615,commdev-image-keyboard-response,202,917565,learnblock1,668,img/planet10_left.png,10,Community 1,NA,TRUE,f,f,NA,NA,NA,5,6,"4,15,13,5,10,7,1,2,11,3,12,8,14,6,9"
14615,commdev-image-keyboard-response,203,918818,learnblock1,974.3999999761581,img/planet12_left.png,12,Community 3,NA,TRUE,f,f,NA,NA,NA,5,6,"4,15,13,5,10,7,1,2,11,3,12,8,14,6,9"
14615,commdev-image-keyboard-response,204,920074,learnblock1,802.2000000476837,img/planet14_right.png,14,Community 3,NA,TRUE,j,j,NA,NA,NA,5,6,"4,15,13,5,10,7,1,2,11,3,12,8,14,6,9"
14615,commdev-image-keyboard-response,205,921340,learnblock1,1006.8000000715256,img/planet6_right.png,6,Community 3,NA,TRUE,j,j,NA,NA,NA,5,6,"4,15,13,5,10,7,1,2,11,3,12,8,14,6,9"
14615,commdev-image-keyboard-response,206,922593,learnblock1,951.7000000476837,img/planet12_left.png,12,Community 3,NA,TRUE,f,f,NA,NA,NA,5,6,"4,15,13,5,10,7,1,2,11,3,12,8,14,6,9"
14615,commdev-image-keyboard-response,207,923858,learnblock1,818.8000000715256,img/planet10_left.png,10,Community 1,NA,TRUE,f,f,NA,NA,NA,5,6,"4,15,13,5,10,7,1,2,11,3,12,8,14,6,9"
14615,commdev-image-keyboard-response,208,925113,learnblock1,725.2999999523163,img/planet13_right.png,13,Community 1,NA,TRUE,j,j,NA,NA,NA,5,6,"4,15,13,5,10,7,1,2,11,3,12,8,14,6,9"
14615,commdev-image-keyboard-response,209,926366,learnblock1,911.3999999761581,img/planet4_right.png,4,Community 1,NA,TRUE,j,j,NA,NA,NA,5,6,"4,15,13,5,10,7,1,2,11,3,12,8,14,6,9"
14615,commdev-image-keyboard-response,210,927622,learnblock1,736.5999999046326,img/planet15_left.png,15,Community 1,NA,TRUE,f,f,NA,NA,NA,5,6,"4,15,13,5,10,7,1,2,11,3,12,8,14,6,9"
14615,commdev-image-keyboard-response,211,928875,learnblock1,699.1000000238419,img/planet4_right.png,4,Community 1,NA,TRUE,j,j,NA,NA,NA,5,6,"4,15,13,5,10,7,1,2,11,3,12,8,14,6,9"
14615,commdev-image-keyboard-response,212,930131,learnblock1,654.2000000476837,img/planet13_right.png,13,Community 1,NA,TRUE,j,j,NA,NA,NA,5,6,"4,15,13,5,10,7,1,2,11,3,12,8,14,6,9"
14615,commdev-image-keyboard-response,213,931389,learnblock1,778.2000000476837,img/planet5_right.png,5,Community 1,NA,TRUE,j,j,NA,NA,NA,5,6,"4,15,13,5,10,7,1,2,11,3,12,8,14,6,9"
14615,commdev-image-keyboard-response,214,932642,learnblock1,543.1000000238419,img/planet13_left.png,13,Community 1,NA,TRUE,f,f,NA,NA,NA,5,6,"4,15,13,5,10,7,1,2,11,3,12,8,14,6,9"
14615,commdev-image-keyboard-response,215,933909,learnblock1,618.6999999284744,img/planet10_left.png,10,Community 1,NA,TRUE,f,f,NA,NA,NA,5,6,"4,15,13,5,10,7,1,2,11,3,12,8,14,6,9"
14615,commdev-image-keyboard-response,216,935176,learnblock1,713.8000000715256,img/planet12_left.png,12,Community 3,NA,TRUE,f,f,NA,NA,NA,5,6,"4,15,13,5,10,7,1,2,11,3,12,8,14,6,9"
14615,commdev-image-keyboard-response,217,936443,learnblock1,740.8999999761581,img/planet6_left.png,6,Community 3,NA,TRUE,f,f,NA,NA,NA,5,6,"4,15,13,5,10,7,1,2,11,3,12,8,14,6,9"
14615,commdev-image-keyboard-response,218,937703,learnblock1,744,img/planet12_right.png,12,Community 3,NA,TRUE,j,j,NA,NA,NA,5,6,"4,15,13,5,10,7,1,2,11,3,12,8,14,6,9"
14615,commdev-image-keyboard-response,219,938957,learnblock1,766.7000000476837,img/planet9_left.png,9,Community 3,NA,TRUE,f,f,NA,NA,NA,5,6,"4,15,13,5,10,7,1,2,11,3,12,8,14,6,9"
14615,commdev-image-keyboard-response,220,940222,learnblock1,823.1000000238419,img/planet6_right.png,6,Community 3,NA,TRUE,j,j,NA,NA,NA,5,6,"4,15,13,5,10,7,1,2,11,3,12,8,14,6,9"
14615,commdev-image-keyboard-response,221,941476,learnblock1,647.8999999761581,img/planet9_left.png,9,Community 3,NA,TRUE,f,f,NA,NA,NA,5,6,"4,15,13,5,10,7,1,2,11,3,12,8,14,6,9"
14615,commdev-image-keyboard-response,222,942733,learnblock1,732.6999999284744,img/planet14_left.png,14,Community 3,NA,TRUE,f,f,NA,NA,NA,5,6,"4,15,13,5,10,7,1,2,11,3,12,8,14,6,9"
14615,commdev-image-keyboard-response,223,943987,learnblock1,647.2000000476837,img/planet9_left.png,9,Community 3,NA,TRUE,f,f,NA,NA,NA,5,6,"4,15,13,5,10,7,1,2,11,3,12,8,14,6,9"
14615,commdev-image-keyboard-response,224,945247,learnblock1,519.1000000238419,img/planet14_left.png,14,Community 3,NA,TRUE,f,f,NA,NA,NA,5,6,"4,15,13,5,10,7,1,2,11,3,12,8,14,6,9"
14615,commdev-image-keyboard-response,225,946501,learnblock1,null,img/planet8_left.png,8,Community 3,NA,FALSE,null,f,NA,NA,NA,5,6,"4,15,13,5,10,7,1,2,11,3,12,8,14,6,9"
14615,commdev-image-keyboard-response,226,947765,learnblock1,40.90000009536743,img/planet2_left.png,2,Community 2,NA,TRUE,f,f,NA,NA,NA,5,6,"4,15,13,5,10,7,1,2,11,3,12,8,14,6,9"
14615,commdev-image-keyboard-response,227,949031,learnblock1,1020.5,img/planet11_right.png,11,Community 2,NA,TRUE,j,j,NA,NA,NA,5,6,"4,15,13,5,10,7,1,2,11,3,12,8,14,6,9"
14615,commdev-image-keyboard-response,228,950285,learnblock1,1038.3000000715256,img/planet3_left.png,3,Community 2,NA,TRUE,f,f,NA,NA,NA,5,6,"4,15,13,5,10,7,1,2,11,3,12,8,14,6,9"
14615,commdev-image-keyboard-response,229,951536,learnblock1,972.2000000476837,img/planet11_right.png,11,Community 2,NA,TRUE,j,j,NA,NA,NA,5,6,"4,15,13,5,10,7,1,2,11,3,12,8,14,6,9"
14615,commdev-image-keyboard-response,230,952794,learnblock1,998,img/planet7_right.png,7,Community 2,NA,TRUE,j,j,NA,NA,NA,5,6,"4,15,13,5,10,7,1,2,11,3,12,8,14,6,9"
14615,commdev-image-keyboard-response,231,954050,learnblock1,1026.8999999761581,img/planet3_left.png,3,Community 2,NA,TRUE,f,f,NA,NA,NA,5,6,"4,15,13,5,10,7,1,2,11,3,12,8,14,6,9"
14615,commdev-image-keyboard-response,232,955307,learnblock1,940.1000000238419,img/planet7_right.png,7,Community 2,NA,TRUE,j,j,NA,NA,NA,5,6,"4,15,13,5,10,7,1,2,11,3,12,8,14,6,9"
14615,commdev-image-keyboard-response,233,956564,learnblock1,856,img/planet1_right.png,1,Community 2,NA,TRUE,j,j,NA,NA,NA,5,6,"4,15,13,5,10,7,1,2,11,3,12,8,14,6,9"
14615,commdev-image-keyboard-response,234,957817,learnblock1,929,img/planet7_right.png,7,Community 2,NA,TRUE,j,j,NA,NA,NA,5,6,"4,15,13,5,10,7,1,2,11,3,12,8,14,6,9"
14615,commdev-image-keyboard-response,235,959084,learnblock1,923.8999999761581,img/planet5_right.png,5,Community 1,NA,TRUE,j,j,NA,NA,NA,5,6,"4,15,13,5,10,7,1,2,11,3,12,8,14,6,9"
14615,commdev-image-keyboard-response,236,960340,learnblock1,955.7000000476837,img/planet15_right.png,15,Community 1,NA,TRUE,j,j,NA,NA,NA,5,6,"4,15,13,5,10,7,1,2,11,3,12,8,14,6,9"
14615,commdev-image-keyboard-response,237,961593,learnblock1,726.7000000476837,img/planet13_left.png,13,Community 1,NA,TRUE,f,f,NA,NA,NA,5,6,"4,15,13,5,10,7,1,2,11,3,12,8,14,6,9"
14615,commdev-image-keyboard-response,238,962845,learnblock1,693.0999999046326,img/planet4_right.png,4,Community 1,NA,TRUE,j,j,NA,NA,NA,5,6,"4,15,13,5,10,7,1,2,11,3,12,8,14,6,9"
14615,commdev-image-keyboard-response,239,964104,learnblock1,643.2999999523163,img/planet5_left.png,5,Community 1,NA,TRUE,f,f,NA,NA,NA,5,6,"4,15,13,5,10,7,1,2,11,3,12,8,14,6,9"
14615,commdev-image-keyboard-response,240,965367,learnblock1,1151.7999999523163,img/planet7_left.png,7,Community 2,NA,TRUE,f,f,NA,NA,NA,5,6,"4,15,13,5,10,7,1,2,11,3,12,8,14,6,9"
14615,commdev-image-keyboard-response,241,966633,learnblock1,836,img/planet3_left.png,3,Community 2,NA,TRUE,f,f,NA,NA,NA,5,6,"4,15,13,5,10,7,1,2,11,3,12,8,14,6,9"
14615,commdev-image-keyboard-response,242,967891,learnblock1,885.8000000715256,img/planet11_right.png,11,Community 2,NA,TRUE,j,j,NA,NA,NA,5,6,"4,15,13,5,10,7,1,2,11,3,12,8,14,6,9"
14615,commdev-image-keyboard-response,243,969148,learnblock1,696.4000000953674,img/planet2_left.png,2,Community 2,NA,TRUE,f,f,NA,NA,NA,5,6,"4,15,13,5,10,7,1,2,11,3,12,8,14,6,9"
14615,commdev-image-keyboard-response,244,970406,learnblock1,752.3999999761581,img/planet1_right.png,1,Community 2,NA,TRUE,j,j,NA,NA,NA,5,6,"4,15,13,5,10,7,1,2,11,3,12,8,14,6,9"
14615,commdev-image-keyboard-response,245,971672,learnblock1,905.1999999284744,img/planet7_right.png,7,Community 2,NA,TRUE,j,j,NA,NA,NA,5,6,"4,15,13,5,10,7,1,2,11,3,12,8,14,6,9"
14615,commdev-image-keyboard-response,246,972932,learnblock1,726.5999999046326,img/planet3_left.png,3,Community 2,NA,TRUE,f,f,NA,NA,NA,5,6,"4,15,13,5,10,7,1,2,11,3,12,8,14,6,9"
14615,commdev-image-keyboard-response,247,974188,learnblock1,702.1999999284744,img/planet11_right.png,11,Community 2,NA,TRUE,j,j,NA,NA,NA,5,6,"4,15,13,5,10,7,1,2,11,3,12,8,14,6,9"
14615,commdev-image-keyboard-response,248,975444,learnblock1,885.0999999046326,img/planet2_right.png,2,Community 2,NA,TRUE,j,j,NA,NA,NA,5,6,"4,15,13,5,10,7,1,2,11,3,12,8,14,6,9"
14615,commdev-image-keyboard-response,249,976710,learnblock1,664.7000000476837,img/planet1_left.png,1,Community 2,NA,TRUE,f,f,NA,NA,NA,5,6,"4,15,13,5,10,7,1,2,11,3,12,8,14,6,9"
14615,commdev-image-keyboard-response,250,977970,learnblock1,677.8999999761581,img/planet2_left.png,2,Community 2,NA,TRUE,f,f,NA,NA,NA,5,6,"4,15,13,5,10,7,1,2,11,3,12,8,14,6,9"
14615,commdev-image-keyboard-response,251,979230,learnblock1,756.5,img/planet3_right.png,3,Community 2,NA,TRUE,j,j,NA,NA,NA,5,6,"4,15,13,5,10,7,1,2,11,3,12,8,14,6,9"
14615,commdev-image-keyboard-response,252,980491,learnblock1,884.2999999523163,img/planet2_right.png,2,Community 2,NA,TRUE,j,j,NA,NA,NA,5,6,"4,15,13,5,10,7,1,2,11,3,12,8,14,6,9"
14615,commdev-image-keyboard-response,253,981755,learnblock1,871.1000000238419,img/planet1_left.png,1,Community 2,NA,TRUE,f,f,NA,NA,NA,5,6,"4,15,13,5,10,7,1,2,11,3,12,8,14,6,9"
14615,commdev-image-keyboard-response,254,983022,learnblock1,806.3999999761581,img/planet7_left.png,7,Community 2,NA,TRUE,f,f,NA,NA,NA,5,6,"4,15,13,5,10,7,1,2,11,3,12,8,14,6,9"
14615,commdev-image-keyboard-response,255,984273,learnblock1,730.7000000476837,img/planet5_right.png,5,Community 1,NA,TRUE,j,j,NA,NA,NA,5,6,"4,15,13,5,10,7,1,2,11,3,12,8,14,6,9"
14615,commdev-image-keyboard-response,256,985530,learnblock1,674.6000000238419,img/planet15_left.png,15,Community 1,NA,TRUE,f,f,NA,NA,NA,5,6,"4,15,13,5,10,7,1,2,11,3,12,8,14,6,9"
14615,commdev-image-keyboard-response,257,986784,learnblock1,634.6000000238419,img/planet4_left.png,4,Community 1,NA,TRUE,f,f,NA,NA,NA,5,6,"4,15,13,5,10,7,1,2,11,3,12,8,14,6,9"
14615,commdev-image-keyboard-response,258,988039,learnblock1,632.6999999284744,img/planet5_left.png,5,Community 1,NA,TRUE,f,f,NA,NA,NA,5,6,"4,15,13,5,10,7,1,2,11,3,12,8,14,6,9"
14615,commdev-image-keyboard-response,259,989296,learnblock1,949.6000000238419,img/planet7_left.png,7,Community 2,NA,TRUE,f,f,NA,NA,NA,5,6,"4,15,13,5,10,7,1,2,11,3,12,8,14,6,9"
14615,commdev-image-keyboard-response,260,990557,learnblock1,791.8999999761581,img/planet5_right.png,5,Community 1,NA,TRUE,j,j,NA,NA,NA,5,6,"4,15,13,5,10,7,1,2,11,3,12,8,14,6,9"
14615,commdev-image-keyboard-response,261,991817,learnblock1,668.8999999761581,img/planet7_left.png,7,Community 2,NA,TRUE,f,f,NA,NA,NA,5,6,"4,15,13,5,10,7,1,2,11,3,12,8,14,6,9"
14615,commdev-image-keyboard-response,262,993071,learnblock1,730.3999999761581,img/planet3_left.png,3,Community 2,NA,TRUE,f,f,NA,NA,NA,5,6,"4,15,13,5,10,7,1,2,11,3,12,8,14,6,9"
14615,commdev-image-keyboard-response,263,994333,learnblock1,641.1000000238419,img/planet11_left.png,11,Community 2,NA,TRUE,f,f,NA,NA,NA,5,6,"4,15,13,5,10,7,1,2,11,3,12,8,14,6,9"
14615,commdev-image-keyboard-response,264,995598,learnblock1,639.7000000476837,img/planet1_left.png,1,Community 2,NA,TRUE,f,f,NA,NA,NA,5,6,"4,15,13,5,10,7,1,2,11,3,12,8,14,6,9"
14615,commdev-image-keyboard-response,265,996861,learnblock1,634.3999999761581,img/planet2_left.png,2,Community 2,NA,TRUE,f,f,NA,NA,NA,5,6,"4,15,13,5,10,7,1,2,11,3,12,8,14,6,9"
14615,commdev-image-keyboard-response,266,998126,learnblock1,693.5,img/planet11_left.png,11,Community 2,NA,TRUE,f,f,NA,NA,NA,5,6,"4,15,13,5,10,7,1,2,11,3,12,8,14,6,9"
14615,commdev-image-keyboard-response,267,999379,learnblock1,629.2999999523163,img/planet7_right.png,7,Community 2,NA,TRUE,j,j,NA,NA,NA,5,6,"4,15,13,5,10,7,1,2,11,3,12,8,14,6,9"
14615,commdev-image-keyboard-response,268,1000637,learnblock1,769.5,img/planet11_right.png,11,Community 2,NA,TRUE,j,j,NA,NA,NA,5,6,"4,15,13,5,10,7,1,2,11,3,12,8,14,6,9"
14615,commdev-image-keyboard-response,269,1001899,learnblock1,560.5,img/planet2_left.png,2,Community 2,NA,TRUE,f,f,NA,NA,NA,5,6,"4,15,13,5,10,7,1,2,11,3,12,8,14,6,9"
14615,commdev-image-keyboard-response,270,1003150,learnblock1,982.9000000953674,img/planet3_right.png,3,Community 2,NA,TRUE,j,j,NA,NA,NA,5,6,"4,15,13,5,10,7,1,2,11,3,12,8,14,6,9"
14615,commdev-image-keyboard-response,271,1004412,learnblock1,922.2999999523163,img/planet2_left.png,2,Community 2,NA,TRUE,f,f,NA,NA,NA,5,6,"4,15,13,5,10,7,1,2,11,3,12,8,14,6,9"
14615,commdev-image-keyboard-response,272,1005673,learnblock1,892.3999999761581,img/planet3_right.png,3,Community 2,NA,TRUE,j,j,NA,NA,NA,5,6,"4,15,13,5,10,7,1,2,11,3,12,8,14,6,9"
14615,commdev-image-keyboard-response,273,1006936,learnblock1,null,img/planet2_right.png,2,Community 2,NA,FALSE,null,j,NA,NA,NA,5,6,"4,15,13,5,10,7,1,2,11,3,12,8,14,6,9"
14615,commdev-image-keyboard-response,274,1008191,learnblock1,855.2000000476837,img/planet1_right.png,1,Community 2,NA,TRUE,j,j,NA,NA,NA,5,6,"4,15,13,5,10,7,1,2,11,3,12,8,14,6,9"
14615,commdev-image-keyboard-response,275,1009454,learnblock1,655.6000000238419,img/planet2_left.png,2,Community 2,NA,TRUE,f,f,NA,NA,NA,5,6,"4,15,13,5,10,7,1,2,11,3,12,8,14,6,9"
14615,commdev-image-keyboard-response,276,1010713,learnblock1,813.5,img/planet11_right.png,11,Community 2,NA,TRUE,j,j,NA,NA,NA,5,6,"4,15,13,5,10,7,1,2,11,3,12,8,14,6,9"
14615,commdev-image-keyboard-response,277,1011975,learnblock1,980.0999999046326,img/planet7_right.png,7,Community 2,NA,TRUE,j,j,NA,NA,NA,5,6,"4,15,13,5,10,7,1,2,11,3,12,8,14,6,9"
14615,commdev-image-keyboard-response,278,1013232,learnblock1,925.8000000715256,img/planet5_right.png,5,Community 1,NA,TRUE,j,j,NA,NA,NA,5,6,"4,15,13,5,10,7,1,2,11,3,12,8,14,6,9"
14615,commdev-image-keyboard-response,279,1014491,learnblock1,912.3999999761581,img/planet4_left.png,4,Community 1,NA,TRUE,f,f,NA,NA,NA,5,6,"4,15,13,5,10,7,1,2,11,3,12,8,14,6,9"
14615,commdev-image-keyboard-response,280,1015752,learnblock1,852.5,img/planet15_left.png,15,Community 1,NA,TRUE,f,f,NA,NA,NA,5,6,"4,15,13,5,10,7,1,2,11,3,12,8,14,6,9"
14615,commdev-image-keyboard-response,281,1017009,learnblock1,760.3000000715256,img/planet5_right.png,5,Community 1,NA,TRUE,j,j,NA,NA,NA,5,6,"4,15,13,5,10,7,1,2,11,3,12,8,14,6,9"
14615,commdev-image-keyboard-response,282,1018270,learnblock1,819.2000000476837,img/planet7_right.png,7,Community 2,NA,TRUE,j,j,NA,NA,NA,5,6,"4,15,13,5,10,7,1,2,11,3,12,8,14,6,9"
14615,commdev-image-keyboard-response,283,1019532,learnblock1,758.7000000476837,img/planet1_right.png,1,Community 2,NA,TRUE,j,j,NA,NA,NA,5,6,"4,15,13,5,10,7,1,2,11,3,12,8,14,6,9"
14615,commdev-image-keyboard-response,284,1020790,learnblock1,655.6000000238419,img/planet11_left.png,11,Community 2,NA,TRUE,f,f,NA,NA,NA,5,6,"4,15,13,5,10,7,1,2,11,3,12,8,14,6,9"
14615,commdev-image-keyboard-response,285,1022049,learnblock1,642.2000000476837,img/planet1_right.png,1,Community 2,NA,TRUE,j,j,NA,NA,NA,5,6,"4,15,13,5,10,7,1,2,11,3,12,8,14,6,9"
14615,commdev-image-keyboard-response,286,1023301,learnblock1,519.2000000476837,img/planet2_left.png,2,Community 2,NA,TRUE,f,f,NA,NA,NA,5,6,"4,15,13,5,10,7,1,2,11,3,12,8,14,6,9"
14615,commdev-image-keyboard-response,287,1024555,learnblock1,484.5,img/planet11_left.png,11,Community 2,NA,TRUE,f,f,NA,NA,NA,5,6,"4,15,13,5,10,7,1,2,11,3,12,8,14,6,9"
14615,commdev-image-keyboard-response,288,1025819,learnblock1,469.10000002384186,img/planet1_left.png,1,Community 2,NA,TRUE,f,f,NA,NA,NA,5,6,"4,15,13,5,10,7,1,2,11,3,12,8,14,6,9"
14615,commdev-image-keyboard-response,289,1027086,learnblock1,643.5,img/planet7_right.png,7,Community 2,NA,TRUE,j,j,NA,NA,NA,5,6,"4,15,13,5,10,7,1,2,11,3,12,8,14,6,9"
14615,commdev-image-keyboard-response,290,1028347,learnblock1,603.8999999761581,img/planet1_right.png,1,Community 2,NA,TRUE,j,j,NA,NA,NA,5,6,"4,15,13,5,10,7,1,2,11,3,12,8,14,6,9"
14615,commdev-image-keyboard-response,291,1029610,learnblock1,721.8000000715256,img/planet3_right.png,3,Community 2,NA,TRUE,j,j,NA,NA,NA,5,6,"4,15,13,5,10,7,1,2,11,3,12,8,14,6,9"
14615,commdev-image-keyboard-response,292,1030875,learnblock1,116,img/planet11_left.png,11,Community 2,NA,FALSE,j,f,NA,NA,NA,5,6,"4,15,13,5,10,7,1,2,11,3,12,8,14,6,9"
14615,commdev-image-keyboard-response,293,1032139,learnblock1,1226.5,img/planet2_left.png,2,Community 2,NA,TRUE,f,f,NA,NA,NA,5,6,"4,15,13,5,10,7,1,2,11,3,12,8,14,6,9"
14615,commdev-image-keyboard-response,294,1033404,learnblock1,725.6999999284744,img/planet1_left.png,1,Community 2,NA,TRUE,f,f,NA,NA,NA,5,6,"4,15,13,5,10,7,1,2,11,3,12,8,14,6,9"
14615,commdev-image-keyboard-response,295,1034670,learnblock1,783.1999999284744,img/planet7_right.png,7,Community 2,NA,TRUE,j,j,NA,NA,NA,5,6,"4,15,13,5,10,7,1,2,11,3,12,8,14,6,9"
14615,commdev-image-keyboard-response,296,1035936,learnblock1,746,img/planet3_left.png,3,Community 2,NA,TRUE,f,f,NA,NA,NA,5,6,"4,15,13,5,10,7,1,2,11,3,12,8,14,6,9"
14615,commdev-image-keyboard-response,297,1037187,learnblock1,1025.3999999761581,img/planet7_right.png,7,Community 2,NA,TRUE,j,j,NA,NA,NA,5,6,"4,15,13,5,10,7,1,2,11,3,12,8,14,6,9"
14615,commdev-image-keyboard-response,298,1038449,learnblock1,776.7999999523163,img/planet11_left.png,11,Community 2,NA,TRUE,f,f,NA,NA,NA,5,6,"4,15,13,5,10,7,1,2,11,3,12,8,14,6,9"
14615,commdev-image-keyboard-response,299,1039708,learnblock1,764.8000000715256,img/planet3_right.png,3,Community 2,NA,TRUE,j,j,NA,NA,NA,5,6,"4,15,13,5,10,7,1,2,11,3,12,8,14,6,9"
14615,commdev-image-keyboard-response,300,1040965,learnblock1,698.8999999761581,img/planet2_right.png,2,Community 2,NA,FALSE,f,j,NA,NA,NA,5,6,"4,15,13,5,10,7,1,2,11,3,12,8,14,6,9"
14615,commdev-image-keyboard-response,301,1042229,learnblock1,1020.6999999284744,img/planet8_left.png,8,Community 3,NA,TRUE,f,f,NA,NA,NA,5,6,"4,15,13,5,10,7,1,2,11,3,12,8,14,6,9"
14615,commdev-image-keyboard-response,302,1043493,learnblock1,998.2999999523163,img/planet2_right.png,2,Community 2,NA,TRUE,j,j,NA,NA,NA,5,6,"4,15,13,5,10,7,1,2,11,3,12,8,14,6,9"
14615,commdev-image-keyboard-response,303,1044755,learnblock1,966.1000000238419,img/planet8_left.png,8,Community 3,NA,TRUE,f,f,NA,NA,NA,5,6,"4,15,13,5,10,7,1,2,11,3,12,8,14,6,9"
14615,commdev-image-keyboard-response,304,1046011,learnblock1,817.3999999761581,img/planet9_left.png,9,Community 3,NA,TRUE,f,f,NA,NA,NA,5,6,"4,15,13,5,10,7,1,2,11,3,12,8,14,6,9"
14615,commdev-image-keyboard-response,305,1047276,learnblock1,967.1000000238419,img/planet12_left.png,12,Community 3,NA,TRUE,f,f,NA,NA,NA,5,6,"4,15,13,5,10,7,1,2,11,3,12,8,14,6,9"
14615,commdev-image-keyboard-response,306,1048537,learnblock1,780.8999999761581,img/planet10_right.png,10,Community 1,NA,TRUE,j,j,NA,NA,NA,5,6,"4,15,13,5,10,7,1,2,11,3,12,8,14,6,9"
14615,commdev-image-keyboard-response,307,1049801,learnblock1,727,img/planet15_right.png,15,Community 1,NA,TRUE,j,j,NA,NA,NA,5,6,"4,15,13,5,10,7,1,2,11,3,12,8,14,6,9"
14615,commdev-image-keyboard-response,308,1051067,learnblock1,700.6000000238419,img/planet10_left.png,10,Community 1,NA,TRUE,f,f,NA,NA,NA,5,6,"4,15,13,5,10,7,1,2,11,3,12,8,14,6,9"
14615,commdev-image-keyboard-response,309,1052330,learnblock1,658.7999999523163,img/planet13_right.png,13,Community 1,NA,TRUE,j,j,NA,NA,NA,5,6,"4,15,13,5,10,7,1,2,11,3,12,8,14,6,9"
14615,commdev-image-keyboard-response,310,1053593,learnblock1,680,img/planet5_left.png,5,Community 1,NA,TRUE,f,f,NA,NA,NA,5,6,"4,15,13,5,10,7,1,2,11,3,12,8,14,6,9"
14615,commdev-image-keyboard-response,311,1054844,learnblock1,747.8999999761581,img/planet15_right.png,15,Community 1,NA,TRUE,j,j,NA,NA,NA,5,6,"4,15,13,5,10,7,1,2,11,3,12,8,14,6,9"
14615,commdev-image-keyboard-response,312,1056099,learnblock1,701.5,img/planet13_right.png,13,Community 1,NA,TRUE,j,j,NA,NA,NA,5,6,"4,15,13,5,10,7,1,2,11,3,12,8,14,6,9"
14615,commdev-image-keyboard-response,313,1057355,learnblock1,637.3999999761581,img/planet15_right.png,15,Community 1,NA,TRUE,j,j,NA,NA,NA,5,6,"4,15,13,5,10,7,1,2,11,3,12,8,14,6,9"
14615,commdev-image-keyboard-response,314,1058621,learnblock1,784.8999999761581,img/planet13_right.png,13,Community 1,NA,TRUE,j,j,NA,NA,NA,5,6,"4,15,13,5,10,7,1,2,11,3,12,8,14,6,9"
14615,commdev-image-keyboard-response,315,1059879,learnblock1,707.5,img/planet15_right.png,15,Community 1,NA,TRUE,j,j,NA,NA,NA,5,6,"4,15,13,5,10,7,1,2,11,3,12,8,14,6,9"
14615,commdev-image-keyboard-response,316,1061146,learnblock1,643.5,img/planet13_left.png,13,Community 1,NA,TRUE,f,f,NA,NA,NA,5,6,"4,15,13,5,10,7,1,2,11,3,12,8,14,6,9"
14615,commdev-image-keyboard-response,317,1062410,learnblock1,735.2999999523163,img/planet15_left.png,15,Community 1,NA,TRUE,f,f,NA,NA,NA,5,6,"4,15,13,5,10,7,1,2,11,3,12,8,14,6,9"
14615,commdev-image-keyboard-response,318,1063664,learnblock1,808.7000000476837,img/planet13_right.png,13,Community 1,NA,TRUE,j,j,NA,NA,NA,5,6,"4,15,13,5,10,7,1,2,11,3,12,8,14,6,9"
14615,commdev-image-keyboard-response,319,1064931,learnblock1,496.7999999523163,img/planet10_left.png,10,Community 1,NA,TRUE,f,f,NA,NA,NA,5,6,"4,15,13,5,10,7,1,2,11,3,12,8,14,6,9"
14615,commdev-image-keyboard-response,320,1066192,learnblock1,727.2000000476837,img/planet15_right.png,15,Community 1,NA,TRUE,j,j,NA,NA,NA,5,6,"4,15,13,5,10,7,1,2,11,3,12,8,14,6,9"
14615,commdev-image-keyboard-response,321,1067444,learnblock1,871,img/planet13_right.png,13,Community 1,NA,FALSE,f,j,NA,NA,NA,5,6,"4,15,13,5,10,7,1,2,11,3,12,8,14,6,9"
14615,commdev-image-keyboard-response,322,1068699,learnblock1,936.7000000476837,img/planet10_right.png,10,Community 1,NA,TRUE,j,j,NA,NA,NA,5,6,"4,15,13,5,10,7,1,2,11,3,12,8,14,6,9"
14615,commdev-image-keyboard-response,323,1069964,learnblock1,907.1000000238419,img/planet13_left.png,13,Community 1,NA,TRUE,f,f,NA,NA,NA,5,6,"4,15,13,5,10,7,1,2,11,3,12,8,14,6,9"
14615,commdev-image-keyboard-response,324,1071230,learnblock1,984.7999999523163,img/planet5_right.png,5,Community 1,NA,TRUE,j,j,NA,NA,NA,5,6,"4,15,13,5,10,7,1,2,11,3,12,8,14,6,9"
14615,commdev-image-keyboard-response,325,1072494,learnblock1,941.3999999761581,img/planet13_left.png,13,Community 1,NA,TRUE,f,f,NA,NA,NA,5,6,"4,15,13,5,10,7,1,2,11,3,12,8,14,6,9"
14615,commdev-image-keyboard-response,326,1073749,learnblock1,796,img/planet5_left.png,5,Community 1,NA,TRUE,f,f,NA,NA,NA,5,6,"4,15,13,5,10,7,1,2,11,3,12,8,14,6,9"
14615,commdev-image-keyboard-response,327,1075016,learnblock1,859.8999999761581,img/planet4_left.png,4,Community 1,NA,TRUE,f,f,NA,NA,NA,5,6,"4,15,13,5,10,7,1,2,11,3,12,8,14,6,9"
14615,commdev-image-keyboard-response,328,1076273,learnblock1,808.4000000953674,img/planet15_left.png,15,Community 1,NA,TRUE,f,f,NA,NA,NA,5,6,"4,15,13,5,10,7,1,2,11,3,12,8,14,6,9"
14615,commdev-image-keyboard-response,329,1077527,learnblock1,776.5,img/planet13_left.png,13,Community 1,NA,TRUE,f,f,NA,NA,NA,5,6,"4,15,13,5,10,7,1,2,11,3,12,8,14,6,9"
14615,commdev-image-keyboard-response,330,1078794,learnblock1,793.7000000476837,img/planet10_left.png,10,Community 1,NA,TRUE,f,f,NA,NA,NA,5,6,"4,15,13,5,10,7,1,2,11,3,12,8,14,6,9"
14615,commdev-image-keyboard-response,331,1080059,learnblock1,872.7999999523163,img/planet12_left.png,12,Community 3,NA,TRUE,f,f,NA,NA,NA,5,6,"4,15,13,5,10,7,1,2,11,3,12,8,14,6,9"
14615,commdev-image-keyboard-response,332,1081321,learnblock1,796.5,img/planet6_right.png,6,Community 3,NA,TRUE,j,j,NA,NA,NA,5,6,"4,15,13,5,10,7,1,2,11,3,12,8,14,6,9"
14615,commdev-image-keyboard-response,333,1082583,learnblock1,null,img/planet8_right.png,8,Community 3,NA,FALSE,null,j,NA,NA,NA,5,6,"4,15,13,5,10,7,1,2,11,3,12,8,14,6,9"
14615,commdev-image-keyboard-response,334,1083841,learnblock1,923.8999999761581,img/planet9_left.png,9,Community 3,NA,TRUE,f,f,NA,NA,NA,5,6,"4,15,13,5,10,7,1,2,11,3,12,8,14,6,9"
14615,commdev-image-keyboard-response,335,1085094,learnblock1,966.3999999761581,img/planet8_right.png,8,Community 3,NA,TRUE,j,j,NA,NA,NA,5,6,"4,15,13,5,10,7,1,2,11,3,12,8,14,6,9"
14615,commdev-image-keyboard-response,336,1086349,learnblock1,845.3999999761581,img/planet2_left.png,2,Community 2,NA,TRUE,f,f,NA,NA,NA,5,6,"4,15,13,5,10,7,1,2,11,3,12,8,14,6,9"
14615,commdev-image-keyboard-response,337,1087608,learnblock1,813,img/planet11_right.png,11,Community 2,NA,TRUE,j,j,NA,NA,NA,5,6,"4,15,13,5,10,7,1,2,11,3,12,8,14,6,9"
14615,commdev-image-keyboard-response,338,1088871,learnblock1,1228.8000000715256,img/planet2_left.png,2,Community 2,NA,TRUE,f,f,NA,NA,NA,5,6,"4,15,13,5,10,7,1,2,11,3,12,8,14,6,9"
14615,commdev-image-keyboard-response,339,1090128,learnblock1,740.2999999523163,img/planet1_right.png,1,Community 2,NA,TRUE,j,j,NA,NA,NA,5,6,"4,15,13,5,10,7,1,2,11,3,12,8,14,6,9"
14615,commdev-image-keyboard-response,340,1091384,learnblock1,846.5,img/planet11_left.png,11,Community 2,NA,TRUE,f,f,NA,NA,NA,5,6,"4,15,13,5,10,7,1,2,11,3,12,8,14,6,9"
14615,commdev-image-keyboard-response,341,1092651,learnblock1,914.2999999523163,img/planet7_left.png,7,Community 2,NA,FALSE,j,f,NA,NA,NA,5,6,"4,15,13,5,10,7,1,2,11,3,12,8,14,6,9"
14615,commdev-image-keyboard-response,342,1093918,learnblock1,1064.1000000238419,img/planet3_right.png,3,Community 2,NA,TRUE,j,j,NA,NA,NA,5,6,"4,15,13,5,10,7,1,2,11,3,12,8,14,6,9"
14615,commdev-image-keyboard-response,343,1095170,learnblock1,1000.3000000715256,img/planet7_right.png,7,Community 2,NA,TRUE,j,j,NA,NA,NA,5,6,"4,15,13,5,10,7,1,2,11,3,12,8,14,6,9"
14615,commdev-image-keyboard-response,344,1096422,learnblock1,912.8000000715256,img/planet3_right.png,3,Community 2,NA,TRUE,j,j,NA,NA,NA,5,6,"4,15,13,5,10,7,1,2,11,3,12,8,14,6,9"
14615,commdev-image-keyboard-response,345,1097690,learnblock1,720.6999999284744,img/planet1_left.png,1,Community 2,NA,TRUE,f,f,NA,NA,NA,5,6,"4,15,13,5,10,7,1,2,11,3,12,8,14,6,9"
14615,commdev-image-keyboard-response,346,1098942,learnblock1,953,img/planet7_right.png,7,Community 2,NA,FALSE,f,j,NA,NA,NA,5,6,"4,15,13,5,10,7,1,2,11,3,12,8,14,6,9"
14615,commdev-image-keyboard-response,347,1100205,learnblock1,949.7999999523163,img/planet5_left.png,5,Community 1,NA,TRUE,f,f,NA,NA,NA,5,6,"4,15,13,5,10,7,1,2,11,3,12,8,14,6,9"
14615,commdev-image-keyboard-response,348,1101468,learnblock1,706.6000000238419,img/planet13_left.png,13,Community 1,NA,TRUE,f,f,NA,NA,NA,5,6,"4,15,13,5,10,7,1,2,11,3,12,8,14,6,9"
14615,commdev-image-keyboard-response,349,1102723,learnblock1,666.9000000953674,img/planet10_right.png,10,Community 1,NA,TRUE,j,j,NA,NA,NA,5,6,"4,15,13,5,10,7,1,2,11,3,12,8,14,6,9"
14615,commdev-image-keyboard-response,350,1103985,learnblock1,905.6999999284744,img/planet4_left.png,4,Community 1,NA,TRUE,f,f,NA,NA,NA,5,6,"4,15,13,5,10,7,1,2,11,3,12,8,14,6,9"
14615,commdev-image-keyboard-response,351,1105239,learnblock1,735.2999999523163,img/planet5_right.png,5,Community 1,NA,TRUE,j,j,NA,NA,NA,5,6,"4,15,13,5,10,7,1,2,11,3,12,8,14,6,9"
14615,commdev-image-keyboard-response,352,1106493,learnblock1,629,img/planet15_left.png,15,Community 1,NA,TRUE,f,f,NA,NA,NA,5,6,"4,15,13,5,10,7,1,2,11,3,12,8,14,6,9"
14615,commdev-image-keyboard-response,353,1107758,learnblock1,717.5,img/planet4_left.png,4,Community 1,NA,TRUE,f,f,NA,NA,NA,5,6,"4,15,13,5,10,7,1,2,11,3,12,8,14,6,9"
14615,commdev-image-keyboard-response,354,1109023,learnblock1,562.3000000715256,img/planet10_right.png,10,Community 1,NA,TRUE,j,j,NA,NA,NA,5,6,"4,15,13,5,10,7,1,2,11,3,12,8,14,6,9"
14615,commdev-image-keyboard-response,355,1110279,learnblock1,695.3000000715256,img/planet13_left.png,13,Community 1,NA,TRUE,f,f,NA,NA,NA,5,6,"4,15,13,5,10,7,1,2,11,3,12,8,14,6,9"
14615,commdev-image-keyboard-response,356,1111544,learnblock1,702.7999999523163,img/planet15_right.png,15,Community 1,NA,TRUE,j,j,NA,NA,NA,5,6,"4,15,13,5,10,7,1,2,11,3,12,8,14,6,9"
14615,commdev-image-keyboard-response,357,1112799,learnblock1,854.3999999761581,img/planet10_right.png,10,Community 1,NA,TRUE,j,j,NA,NA,NA,5,6,"4,15,13,5,10,7,1,2,11,3,12,8,14,6,9"
14615,commdev-image-keyboard-response,358,1114055,learnblock1,881.6999999284744,img/planet15_left.png,15,Community 1,NA,TRUE,f,f,NA,NA,NA,5,6,"4,15,13,5,10,7,1,2,11,3,12,8,14,6,9"
14615,commdev-image-keyboard-response,359,1115309,learnblock1,685.6000000238419,img/planet4_right.png,4,Community 1,NA,TRUE,j,j,NA,NA,NA,5,6,"4,15,13,5,10,7,1,2,11,3,12,8,14,6,9"
14615,commdev-image-keyboard-response,360,1116564,learnblock1,663.8000000715256,img/planet5_right.png,5,Community 1,NA,TRUE,j,j,NA,NA,NA,5,6,"4,15,13,5,10,7,1,2,11,3,12,8,14,6,9"
14615,commdev-image-keyboard-response,361,1117820,learnblock1,907.0999999046326,img/planet7_right.png,7,Community 2,NA,TRUE,j,j,NA,NA,NA,5,6,"4,15,13,5,10,7,1,2,11,3,12,8,14,6,9"
14615,commdev-image-keyboard-response,362,1119084,learnblock1,738.1000000238419,img/planet11_left.png,11,Community 2,NA,TRUE,f,f,NA,NA,NA,5,6,"4,15,13,5,10,7,1,2,11,3,12,8,14,6,9"
14615,commdev-image-keyboard-response,363,1120341,learnblock1,1001.0999999046326,img/planet3_left.png,3,Community 2,NA,TRUE,f,f,NA,NA,NA,5,6,"4,15,13,5,10,7,1,2,11,3,12,8,14,6,9"
14615,commdev-image-keyboard-response,364,1121600,learnblock1,995.9000000953674,img/planet2_left.png,2,Community 2,NA,TRUE,f,f,NA,NA,NA,5,6,"4,15,13,5,10,7,1,2,11,3,12,8,14,6,9"
14615,commdev-image-keyboard-response,365,1122853,learnblock1,832.5,img/planet8_left.png,8,Community 3,NA,TRUE,f,f,NA,NA,NA,5,6,"4,15,13,5,10,7,1,2,11,3,12,8,14,6,9"
14615,commdev-image-keyboard-response,366,1124106,learnblock1,694.5,img/planet9_right.png,9,Community 3,NA,TRUE,j,j,NA,NA,NA,5,6,"4,15,13,5,10,7,1,2,11,3,12,8,14,6,9"
14615,commdev-image-keyboard-response,367,1125374,learnblock1,810.2000000476837,img/planet8_left.png,8,Community 3,NA,TRUE,f,f,NA,NA,NA,5,6,"4,15,13,5,10,7,1,2,11,3,12,8,14,6,9"
14615,commdev-image-keyboard-response,368,1126627,learnblock1,822.1000000238419,img/planet6_left.png,6,Community 3,NA,TRUE,f,f,NA,NA,NA,5,6,"4,15,13,5,10,7,1,2,11,3,12,8,14,6,9"
14615,commdev-image-keyboard-response,369,1127879,learnblock1,893,img/planet12_right.png,12,Community 3,NA,TRUE,j,j,NA,NA,NA,5,6,"4,15,13,5,10,7,1,2,11,3,12,8,14,6,9"
14615,commdev-image-keyboard-response,370,1129143,learnblock1,791.6000000238419,img/planet9_left.png,9,Community 3,NA,TRUE,f,f,NA,NA,NA,5,6,"4,15,13,5,10,7,1,2,11,3,12,8,14,6,9"
14615,commdev-image-keyboard-response,371,1130409,learnblock1,790.8000000715256,img/planet12_left.png,12,Community 3,NA,TRUE,f,f,NA,NA,NA,5,6,"4,15,13,5,10,7,1,2,11,3,12,8,14,6,9"
14615,commdev-image-keyboard-response,372,1131664,learnblock1,644.8999999761581,img/planet6_right.png,6,Community 3,NA,TRUE,j,j,NA,NA,NA,5,6,"4,15,13,5,10,7,1,2,11,3,12,8,14,6,9"
14615,commdev-image-keyboard-response,373,1132915,learnblock1,782.6000000238419,img/planet8_left.png,8,Community 3,NA,TRUE,f,f,NA,NA,NA,5,6,"4,15,13,5,10,7,1,2,11,3,12,8,14,6,9"
14615,commdev-image-keyboard-response,374,1134169,learnblock1,785.2000000476837,img/planet6_right.png,6,Community 3,NA,TRUE,j,j,NA,NA,NA,5,6,"4,15,13,5,10,7,1,2,11,3,12,8,14,6,9"
14615,commdev-image-keyboard-response,375,1135435,learnblock1,592.8999999761581,img/planet9_left.png,9,Community 3,NA,TRUE,f,f,NA,NA,NA,5,6,"4,15,13,5,10,7,1,2,11,3,12,8,14,6,9"
14615,commdev-image-keyboard-response,376,1136692,learnblock1,707.1000000238419,img/planet6_right.png,6,Community 3,NA,TRUE,j,j,NA,NA,NA,5,6,"4,15,13,5,10,7,1,2,11,3,12,8,14,6,9"
14615,commdev-image-keyboard-response,377,1137948,learnblock1,764.3999999761581,img/planet8_left.png,8,Community 3,NA,TRUE,f,f,NA,NA,NA,5,6,"4,15,13,5,10,7,1,2,11,3,12,8,14,6,9"
14615,commdev-image-keyboard-response,378,1139212,learnblock1,768.3000000715256,img/planet9_right.png,9,Community 3,NA,TRUE,j,j,NA,NA,NA,5,6,"4,15,13,5,10,7,1,2,11,3,12,8,14,6,9"
14615,commdev-image-keyboard-response,379,1140466,learnblock1,745.6000000238419,img/planet14_left.png,14,Community 3,NA,TRUE,f,f,NA,NA,NA,5,6,"4,15,13,5,10,7,1,2,11,3,12,8,14,6,9"
14615,commdev-image-keyboard-response,380,1141722,learnblock1,null,img/planet12_left.png,12,Community 3,NA,FALSE,null,f,NA,NA,NA,5,6,"4,15,13,5,10,7,1,2,11,3,12,8,14,6,9"
14615,commdev-image-keyboard-response,381,1142976,learnblock1,73.29999995231628,img/planet6_left.png,6,Community 3,NA,TRUE,f,f,NA,NA,NA,5,6,"4,15,13,5,10,7,1,2,11,3,12,8,14,6,9"
14615,commdev-image-keyboard-response,382,1144231,learnblock1,936.1000000238419,img/planet14_left.png,14,Community 3,NA,TRUE,f,f,NA,NA,NA,5,6,"4,15,13,5,10,7,1,2,11,3,12,8,14,6,9"
14615,commdev-image-keyboard-response,383,1145496,learnblock1,951.6000000238419,img/planet12_left.png,12,Community 3,NA,TRUE,f,f,NA,NA,NA,5,6,"4,15,13,5,10,7,1,2,11,3,12,8,14,6,9"
14615,commdev-image-keyboard-response,384,1146750,learnblock1,837,img/planet9_left.png,9,Community 3,NA,TRUE,f,f,NA,NA,NA,5,6,"4,15,13,5,10,7,1,2,11,3,12,8,14,6,9"
14615,commdev-image-keyboard-response,385,1148013,learnblock1,674.2000000476837,img/planet12_left.png,12,Community 3,NA,TRUE,f,f,NA,NA,NA,5,6,"4,15,13,5,10,7,1,2,11,3,12,8,14,6,9"
14615,commdev-image-keyboard-response,386,1149268,learnblock1,604.1000000238419,img/planet10_right.png,10,Community 1,NA,TRUE,j,j,NA,NA,NA,5,6,"4,15,13,5,10,7,1,2,11,3,12,8,14,6,9"
14615,commdev-image-keyboard-response,387,1150535,learnblock1,519.2999999523163,img/planet12_left.png,12,Community 3,NA,TRUE,f,f,NA,NA,NA,5,6,"4,15,13,5,10,7,1,2,11,3,12,8,14,6,9"
14615,commdev-image-keyboard-response,388,1151787,learnblock1,705.7000000476837,img/planet6_right.png,6,Community 3,NA,TRUE,j,j,NA,NA,NA,5,6,"4,15,13,5,10,7,1,2,11,3,12,8,14,6,9"
14615,commdev-image-keyboard-response,389,1153044,learnblock1,746.5,img/planet9_right.png,9,Community 3,NA,TRUE,j,j,NA,NA,NA,5,6,"4,15,13,5,10,7,1,2,11,3,12,8,14,6,9"
14615,commdev-image-keyboard-response,390,1154296,learnblock1,837.2000000476837,img/planet14_left.png,14,Community 3,NA,TRUE,f,f,NA,NA,NA,5,6,"4,15,13,5,10,7,1,2,11,3,12,8,14,6,9"
14615,commdev-image-keyboard-response,391,1155561,learnblock1,698.3999999761581,img/planet6_right.png,6,Community 3,NA,TRUE,j,j,NA,NA,NA,5,6,"4,15,13,5,10,7,1,2,11,3,12,8,14,6,9"
14615,commdev-image-keyboard-response,392,1156827,learnblock1,1032.2999999523163,img/planet14_left.png,14,Community 3,NA,TRUE,f,f,NA,NA,NA,5,6,"4,15,13,5,10,7,1,2,11,3,12,8,14,6,9"
14615,commdev-image-keyboard-response,393,1158092,learnblock1,669.2999999523163,img/planet6_left.png,6,Community 3,NA,FALSE,j,f,NA,NA,NA,5,6,"4,15,13,5,10,7,1,2,11,3,12,8,14,6,9"
14615,commdev-image-keyboard-response,394,1159345,learnblock1,717.9000000953674,img/planet9_left.png,9,Community 3,NA,TRUE,f,f,NA,NA,NA,5,6,"4,15,13,5,10,7,1,2,11,3,12,8,14,6,9"
14615,commdev-image-keyboard-response,395,1160598,learnblock1,856.1999999284744,img/planet6_left.png,6,Community 3,NA,TRUE,f,f,NA,NA,NA,5,6,"4,15,13,5,10,7,1,2,11,3,12,8,14,6,9"
14615,commdev-image-keyboard-response,396,1161853,learnblock1,728.8999999761581,img/planet9_right.png,9,Community 3,NA,TRUE,j,j,NA,NA,NA,5,6,"4,15,13,5,10,7,1,2,11,3,12,8,14,6,9"
14615,commdev-image-keyboard-response,397,1163119,learnblock1,754.8999999761581,img/planet12_left.png,12,Community 3,NA,TRUE,f,f,NA,NA,NA,5,6,"4,15,13,5,10,7,1,2,11,3,12,8,14,6,9"
14615,commdev-image-keyboard-response,398,1164373,learnblock1,865.5,img/planet10_right.png,10,Community 1,NA,TRUE,j,j,NA,NA,NA,5,6,"4,15,13,5,10,7,1,2,11,3,12,8,14,6,9"
14615,commdev-image-keyboard-response,399,1165640,learnblock1,777.7000000476837,img/planet12_left.png,12,Community 3,NA,TRUE,f,f,NA,NA,NA,5,6,"4,15,13,5,10,7,1,2,11,3,12,8,14,6,9"
14615,commdev-image-keyboard-response,400,1166893,learnblock1,722.4000000953674,img/planet6_left.png,6,Community 3,NA,TRUE,f,f,NA,NA,NA,5,6,"4,15,13,5,10,7,1,2,11,3,12,8,14,6,9"
14615,commdev-image-keyboard-response,401,1168147,learnblock1,920.6000000238419,img/planet12_left.png,12,Community 3,NA,TRUE,f,f,NA,NA,NA,5,6,"4,15,13,5,10,7,1,2,11,3,12,8,14,6,9"
14615,commdev-image-keyboard-response,402,1169400,learnblock1,698.3999999761581,img/planet6_left.png,6,Community 3,NA,TRUE,f,f,NA,NA,NA,5,6,"4,15,13,5,10,7,1,2,11,3,12,8,14,6,9"
14615,commdev-image-keyboard-response,403,1170654,learnblock1,565.3999999761581,img/planet9_left.png,9,Community 3,NA,TRUE,f,f,NA,NA,NA,5,6,"4,15,13,5,10,7,1,2,11,3,12,8,14,6,9"
14615,commdev-image-keyboard-response,404,1171921,learnblock1,588.3999999761581,img/planet8_left.png,8,Community 3,NA,TRUE,f,f,NA,NA,NA,5,6,"4,15,13,5,10,7,1,2,11,3,12,8,14,6,9"
14615,commdev-image-keyboard-response,405,1173179,learnblock1,553.1000000238419,img/planet9_right.png,9,Community 3,NA,FALSE,f,j,NA,NA,NA,5,6,"4,15,13,5,10,7,1,2,11,3,12,8,14,6,9"
14615,commdev-image-keyboard-response,406,1174445,learnblock1,1057.5,img/planet12_left.png,12,Community 3,NA,TRUE,f,f,NA,NA,NA,5,6,"4,15,13,5,10,7,1,2,11,3,12,8,14,6,9"
14615,commdev-image-keyboard-response,407,1175713,learnblock1,735.2999999523163,img/planet14_right.png,14,Community 3,NA,TRUE,j,j,NA,NA,NA,5,6,"4,15,13,5,10,7,1,2,11,3,12,8,14,6,9"
14615,commdev-image-keyboard-response,408,1176978,learnblock1,1041,img/planet6_right.png,6,Community 3,NA,TRUE,j,j,NA,NA,NA,5,6,"4,15,13,5,10,7,1,2,11,3,12,8,14,6,9"
14615,commdev-image-keyboard-response,409,1178232,learnblock1,670.6000000238419,img/planet12_right.png,12,Community 3,NA,TRUE,j,j,NA,NA,NA,5,6,"4,15,13,5,10,7,1,2,11,3,12,8,14,6,9"
14615,commdev-image-keyboard-response,410,1179485,learnblock1,566.6000000238419,img/planet10_right.png,10,Community 1,NA,TRUE,j,j,NA,NA,NA,5,6,"4,15,13,5,10,7,1,2,11,3,12,8,14,6,9"
14615,commdev-image-keyboard-response,411,1180738,learnblock1,747.7999999523163,img/planet4_left.png,4,Community 1,NA,TRUE,f,f,NA,NA,NA,5,6,"4,15,13,5,10,7,1,2,11,3,12,8,14,6,9"
14615,commdev-image-keyboard-response,412,1181991,learnblock1,683.5999999046326,img/planet5_left.png,5,Community 1,NA,TRUE,f,f,NA,NA,NA,5,6,"4,15,13,5,10,7,1,2,11,3,12,8,14,6,9"
14615,commdev-image-keyboard-response,413,1183256,learnblock1,614,img/planet7_right.png,7,Community 2,NA,TRUE,j,j,NA,NA,NA,5,6,"4,15,13,5,10,7,1,2,11,3,12,8,14,6,9"
14615,commdev-image-keyboard-response,414,1184522,learnblock1,926,img/planet1_left.png,1,Community 2,NA,TRUE,f,f,NA,NA,NA,5,6,"4,15,13,5,10,7,1,2,11,3,12,8,14,6,9"
14615,commdev-image-keyboard-response,415,1185778,learnblock1,692,img/planet11_left.png,11,Community 2,NA,TRUE,f,f,NA,NA,NA,5,6,"4,15,13,5,10,7,1,2,11,3,12,8,14,6,9"
14615,commdev-image-keyboard-response,416,1187046,learnblock1,680.1999999284744,img/planet2_left.png,2,Community 2,NA,TRUE,f,f,NA,NA,NA,5,6,"4,15,13,5,10,7,1,2,11,3,12,8,14,6,9"
14615,commdev-image-keyboard-response,417,1188300,learnblock1,579.2000000476837,img/planet3_right.png,3,Community 2,NA,TRUE,j,j,NA,NA,NA,5,6,"4,15,13,5,10,7,1,2,11,3,12,8,14,6,9"
14615,commdev-image-keyboard-response,421,1290683,learnblock2,787.8000000715256,img/planet3_left.png,3,Community 2,NA,TRUE,f,f,NA,NA,NA,5,6,"4,15,13,5,10,7,1,2,11,3,12,8,14,6,9"
14615,commdev-image-keyboard-response,422,1291949,learnblock2,534.2000000476837,img/planet2_left.png,2,Community 2,NA,TRUE,f,f,NA,NA,NA,5,6,"4,15,13,5,10,7,1,2,11,3,12,8,14,6,9"
14615,commdev-image-keyboard-response,423,1293205,learnblock2,547,img/planet8_right.png,8,Community 3,NA,TRUE,j,j,NA,NA,NA,5,6,"4,15,13,5,10,7,1,2,11,3,12,8,14,6,9"
14615,commdev-image-keyboard-response,424,1294458,learnblock2,615.8999999761581,img/planet6_left.png,6,Community 3,NA,TRUE,f,f,NA,NA,NA,5,6,"4,15,13,5,10,7,1,2,11,3,12,8,14,6,9"
14615,commdev-image-keyboard-response,425,1295721,learnblock2,645.2999999523163,img/planet12_right.png,12,Community 3,NA,TRUE,j,j,NA,NA,NA,5,6,"4,15,13,5,10,7,1,2,11,3,12,8,14,6,9"
14615,commdev-image-keyboard-response,426,1296973,learnblock2,608.7000000476837,img/planet6_right.png,6,Community 3,NA,TRUE,j,j,NA,NA,NA,5,6,"4,15,13,5,10,7,1,2,11,3,12,8,14,6,9"
14615,commdev-image-keyboard-response,427,1298239,learnblock2,578.6000000238419,img/planet9_right.png,9,Community 3,NA,TRUE,j,j,NA,NA,NA,5,6,"4,15,13,5,10,7,1,2,11,3,12,8,14,6,9"
14615,commdev-image-keyboard-response,428,1299506,learnblock2,728.5999999046326,img/planet6_left.png,6,Community 3,NA,TRUE,f,f,NA,NA,NA,5,6,"4,15,13,5,10,7,1,2,11,3,12,8,14,6,9"
14615,commdev-image-keyboard-response,429,1300762,learnblock2,744.6000000238419,img/planet14_left.png,14,Community 3,NA,TRUE,f,f,NA,NA,NA,5,6,"4,15,13,5,10,7,1,2,11,3,12,8,14,6,9"
14615,commdev-image-keyboard-response,430,1302028,learnblock2,691.3999999761581,img/planet8_right.png,8,Community 3,NA,TRUE,j,j,NA,NA,NA,5,6,"4,15,13,5,10,7,1,2,11,3,12,8,14,6,9"
14615,commdev-image-keyboard-response,431,1303283,learnblock2,622.7000000476837,img/planet2_left.png,2,Community 2,NA,TRUE,f,f,NA,NA,NA,5,6,"4,15,13,5,10,7,1,2,11,3,12,8,14,6,9"
14615,commdev-image-keyboard-response,432,1304550,learnblock2,600.7000000476837,img/planet11_right.png,11,Community 2,NA,TRUE,j,j,NA,NA,NA,5,6,"4,15,13,5,10,7,1,2,11,3,12,8,14,6,9"
14615,commdev-image-keyboard-response,433,1305816,learnblock2,601.2000000476837,img/planet2_left.png,2,Community 2,NA,TRUE,f,f,NA,NA,NA,5,6,"4,15,13,5,10,7,1,2,11,3,12,8,14,6,9"
14615,commdev-image-keyboard-response,434,1307073,learnblock2,578.5,img/planet11_left.png,11,Community 2,NA,TRUE,f,f,NA,NA,NA,5,6,"4,15,13,5,10,7,1,2,11,3,12,8,14,6,9"
14615,commdev-image-keyboard-response,435,1308330,learnblock2,554.7000000476837,img/planet7_right.png,7,Community 2,NA,TRUE,j,j,NA,NA,NA,5,6,"4,15,13,5,10,7,1,2,11,3,12,8,14,6,9"
14615,commdev-image-keyboard-response,436,1309583,learnblock2,514.7999999523163,img/planet11_right.png,11,Community 2,NA,TRUE,j,j,NA,NA,NA,5,6,"4,15,13,5,10,7,1,2,11,3,12,8,14,6,9"
14615,commdev-image-keyboard-response,437,1310835,learnblock2,594.1000000238419,img/planet1_left.png,1,Community 2,NA,TRUE,f,f,NA,NA,NA,5,6,"4,15,13,5,10,7,1,2,11,3,12,8,14,6,9"
14615,commdev-image-keyboard-response,438,1312088,learnblock2,490.39999997615814,img/planet11_left.png,11,Community 2,NA,TRUE,f,f,NA,NA,NA,5,6,"4,15,13,5,10,7,1,2,11,3,12,8,14,6,9"
14615,commdev-image-keyboard-response,439,1313346,learnblock2,429.3000000715256,img/planet2_left.png,2,Community 2,NA,TRUE,f,f,NA,NA,NA,5,6,"4,15,13,5,10,7,1,2,11,3,12,8,14,6,9"
14615,commdev-image-keyboard-response,440,1314600,learnblock2,663.6999999284744,img/planet3_right.png,3,Community 2,NA,TRUE,j,j,NA,NA,NA,5,6,"4,15,13,5,10,7,1,2,11,3,12,8,14,6,9"
14615,commdev-image-keyboard-response,441,1315853,learnblock2,588.9000000953674,img/planet11_left.png,11,Community 2,NA,TRUE,f,f,NA,NA,NA,5,6,"4,15,13,5,10,7,1,2,11,3,12,8,14,6,9"
14615,commdev-image-keyboard-response,442,1317108,learnblock2,624.6999999284744,img/planet3_right.png,3,Community 2,NA,TRUE,j,j,NA,NA,NA,5,6,"4,15,13,5,10,7,1,2,11,3,12,8,14,6,9"
14615,commdev-image-keyboard-response,443,1318362,learnblock2,677.5,img/planet11_right.png,11,Community 2,NA,TRUE,j,j,NA,NA,NA,5,6,"4,15,13,5,10,7,1,2,11,3,12,8,14,6,9"
14615,commdev-image-keyboard-response,444,1319625,learnblock2,802.6000000238419,img/planet3_right.png,3,Community 2,NA,TRUE,j,j,NA,NA,NA,5,6,"4,15,13,5,10,7,1,2,11,3,12,8,14,6,9"
14615,commdev-image-keyboard-response,445,1320884,learnblock2,756.5,img/planet1_right.png,1,Community 2,NA,TRUE,j,j,NA,NA,NA,5,6,"4,15,13,5,10,7,1,2,11,3,12,8,14,6,9"
14615,commdev-image-keyboard-response,446,1322150,learnblock2,936.7000000476837,img/planet3_left.png,3,Community 2,NA,TRUE,f,f,NA,NA,NA,5,6,"4,15,13,5,10,7,1,2,11,3,12,8,14,6,9"
14615,commdev-image-keyboard-response,447,1323416,learnblock2,663.2000000476837,img/planet2_right.png,2,Community 2,NA,TRUE,j,j,NA,NA,NA,5,6,"4,15,13,5,10,7,1,2,11,3,12,8,14,6,9"
14615,commdev-image-keyboard-response,448,1324678,learnblock2,796.7999999523163,img/planet11_right.png,11,Community 2,NA,TRUE,j,j,NA,NA,NA,5,6,"4,15,13,5,10,7,1,2,11,3,12,8,14,6,9"
14615,commdev-image-keyboard-response,449,1325941,learnblock2,692.1000000238419,img/planet1_left.png,1,Community 2,NA,TRUE,f,f,NA,NA,NA,5,6,"4,15,13,5,10,7,1,2,11,3,12,8,14,6,9"
14615,commdev-image-keyboard-response,450,1327195,learnblock2,710.1999999284744,img/planet7_right.png,7,Community 2,NA,TRUE,j,j,NA,NA,NA,5,6,"4,15,13,5,10,7,1,2,11,3,12,8,14,6,9"
14615,commdev-image-keyboard-response,451,1328463,learnblock2,690.1999999284744,img/planet1_left.png,1,Community 2,NA,TRUE,f,f,NA,NA,NA,5,6,"4,15,13,5,10,7,1,2,11,3,12,8,14,6,9"
14615,commdev-image-keyboard-response,452,1329717,learnblock2,671.2000000476837,img/planet3_right.png,3,Community 2,NA,TRUE,j,j,NA,NA,NA,5,6,"4,15,13,5,10,7,1,2,11,3,12,8,14,6,9"
14615,commdev-image-keyboard-response,453,1330974,learnblock2,722.3000000715256,img/planet2_left.png,2,Community 2,NA,TRUE,f,f,NA,NA,NA,5,6,"4,15,13,5,10,7,1,2,11,3,12,8,14,6,9"
14615,commdev-image-keyboard-response,454,1332234,learnblock2,788.1000000238419,img/planet3_right.png,3,Community 2,NA,TRUE,j,j,NA,NA,NA,5,6,"4,15,13,5,10,7,1,2,11,3,12,8,14,6,9"
14615,commdev-image-keyboard-response,455,1333487,learnblock2,951.8999999761581,img/planet1_right.png,1,Community 2,NA,TRUE,j,j,NA,NA,NA,5,6,"4,15,13,5,10,7,1,2,11,3,12,8,14,6,9"
14615,commdev-image-keyboard-response,456,1334751,learnblock2,836.6000000238419,img/planet3_left.png,3,Community 2,NA,TRUE,f,f,NA,NA,NA,5,6,"4,15,13,5,10,7,1,2,11,3,12,8,14,6,9"
14615,commdev-image-keyboard-response,457,1336006,learnblock2,639.7000000476837,img/planet7_right.png,7,Community 2,NA,TRUE,j,j,NA,NA,NA,5,6,"4,15,13,5,10,7,1,2,11,3,12,8,14,6,9"
14615,commdev-image-keyboard-response,458,1337272,learnblock2,642.2000000476837,img/planet5_right.png,5,Community 1,NA,TRUE,j,j,NA,NA,NA,5,6,"4,15,13,5,10,7,1,2,11,3,12,8,14,6,9"
14615,commdev-image-keyboard-response,459,1338539,learnblock2,610.6000000238419,img/planet15_left.png,15,Community 1,NA,TRUE,f,f,NA,NA,NA,5,6,"4,15,13,5,10,7,1,2,11,3,12,8,14,6,9"
14615,commdev-image-keyboard-response,460,1339805,learnblock2,643.6999999284744,img/planet10_left.png,10,Community 1,NA,TRUE,f,f,NA,NA,NA,5,6,"4,15,13,5,10,7,1,2,11,3,12,8,14,6,9"
14615,commdev-image-keyboard-response,461,1341058,learnblock2,688.2999999523163,img/planet15_right.png,15,Community 1,NA,TRUE,j,j,NA,NA,NA,5,6,"4,15,13,5,10,7,1,2,11,3,12,8,14,6,9"
14615,commdev-image-keyboard-response,462,1342326,learnblock2,725.8999999761581,img/planet10_right.png,10,Community 1,NA,TRUE,j,j,NA,NA,NA,5,6,"4,15,13,5,10,7,1,2,11,3,12,8,14,6,9"
14615,commdev-image-keyboard-response,463,1343578,learnblock2,630.7000000476837,img/planet13_right.png,13,Community 1,NA,TRUE,j,j,NA,NA,NA,5,6,"4,15,13,5,10,7,1,2,11,3,12,8,14,6,9"
14615,commdev-image-keyboard-response,464,1344830,learnblock2,786.7000000476837,img/planet4_right.png,4,Community 1,NA,TRUE,j,j,NA,NA,NA,5,6,"4,15,13,5,10,7,1,2,11,3,12,8,14,6,9"
14615,commdev-image-keyboard-response,465,1346084,learnblock2,572.5,img/planet15_left.png,15,Community 1,NA,TRUE,f,f,NA,NA,NA,5,6,"4,15,13,5,10,7,1,2,11,3,12,8,14,6,9"
14615,commdev-image-keyboard-response,466,1347350,learnblock2,718.5,img/planet13_left.png,13,Community 1,NA,TRUE,f,f,NA,NA,NA,5,6,"4,15,13,5,10,7,1,2,11,3,12,8,14,6,9"
14615,commdev-image-keyboard-response,467,1348618,learnblock2,652.8999999761581,img/planet15_right.png,15,Community 1,NA,TRUE,j,j,NA,NA,NA,5,6,"4,15,13,5,10,7,1,2,11,3,12,8,14,6,9"
14615,commdev-image-keyboard-response,468,1349870,learnblock2,613.8999999761581,img/planet10_right.png,10,Community 1,NA,TRUE,j,j,NA,NA,NA,5,6,"4,15,13,5,10,7,1,2,11,3,12,8,14,6,9"
14615,commdev-image-keyboard-response,469,1351126,learnblock2,596.6000000238419,img/planet13_right.png,13,Community 1,NA,TRUE,j,j,NA,NA,NA,5,6,"4,15,13,5,10,7,1,2,11,3,12,8,14,6,9"
14615,commdev-image-keyboard-response,470,1352392,learnblock2,769.1000000238419,img/planet5_right.png,5,Community 1,NA,TRUE,j,j,NA,NA,NA,5,6,"4,15,13,5,10,7,1,2,11,3,12,8,14,6,9"
14615,commdev-image-keyboard-response,471,1353658,learnblock2,707.7999999523163,img/planet4_left.png,4,Community 1,NA,TRUE,f,f,NA,NA,NA,5,6,"4,15,13,5,10,7,1,2,11,3,12,8,14,6,9"
14615,commdev-image-keyboard-response,472,1354914,learnblock2,628.2999999523163,img/planet15_left.png,15,Community 1,NA,TRUE,f,f,NA,NA,NA,5,6,"4,15,13,5,10,7,1,2,11,3,12,8,14,6,9"
14615,commdev-image-keyboard-response,473,1356175,learnblock2,573.8999999761581,img/planet4_left.png,4,Community 1,NA,TRUE,f,f,NA,NA,NA,5,6,"4,15,13,5,10,7,1,2,11,3,12,8,14,6,9"
14615,commdev-image-keyboard-response,474,1357433,learnblock2,597.0999999046326,img/planet15_right.png,15,Community 1,NA,TRUE,j,j,NA,NA,NA,5,6,"4,15,13,5,10,7,1,2,11,3,12,8,14,6,9"
14615,commdev-image-keyboard-response,475,1358701,learnblock2,563.6000000238419,img/planet13_right.png,13,Community 1,NA,TRUE,j,j,NA,NA,NA,5,6,"4,15,13,5,10,7,1,2,11,3,12,8,14,6,9"
14615,commdev-image-keyboard-response,476,1359965,learnblock2,673,img/planet5_left.png,5,Community 1,NA,TRUE,f,f,NA,NA,NA,5,6,"4,15,13,5,10,7,1,2,11,3,12,8,14,6,9"
14615,commdev-image-keyboard-response,477,1361220,learnblock2,561.7000000476837,img/planet13_left.png,13,Community 1,NA,TRUE,f,f,NA,NA,NA,5,6,"4,15,13,5,10,7,1,2,11,3,12,8,14,6,9"
14615,commdev-image-keyboard-response,478,1362487,learnblock2,594.3999999761581,img/planet4_left.png,4,Community 1,NA,TRUE,f,f,NA,NA,NA,5,6,"4,15,13,5,10,7,1,2,11,3,12,8,14,6,9"
14615,commdev-image-keyboard-response,479,1363753,learnblock2,574.2000000476837,img/planet10_right.png,10,Community 1,NA,TRUE,j,j,NA,NA,NA,5,6,"4,15,13,5,10,7,1,2,11,3,12,8,14,6,9"
14615,commdev-image-keyboard-response,480,1365008,learnblock2,568.8999999761581,img/planet13_left.png,13,Community 1,NA,TRUE,f,f,NA,NA,NA,5,6,"4,15,13,5,10,7,1,2,11,3,12,8,14,6,9"
14615,commdev-image-keyboard-response,481,1366261,learnblock2,576.9000000953674,img/planet10_left.png,10,Community 1,NA,TRUE,f,f,NA,NA,NA,5,6,"4,15,13,5,10,7,1,2,11,3,12,8,14,6,9"
14615,commdev-image-keyboard-response,482,1367514,learnblock2,602.3999999761581,img/planet15_right.png,15,Community 1,NA,TRUE,j,j,NA,NA,NA,5,6,"4,15,13,5,10,7,1,2,11,3,12,8,14,6,9"
14615,commdev-image-keyboard-response,483,1368781,learnblock2,552.7000000476837,img/planet4_left.png,4,Community 1,NA,TRUE,f,f,NA,NA,NA,5,6,"4,15,13,5,10,7,1,2,11,3,12,8,14,6,9"
14615,commdev-image-keyboard-response,484,1370034,learnblock2,603.9000000953674,img/planet5_left.png,5,Community 1,NA,TRUE,f,f,NA,NA,NA,5,6,"4,15,13,5,10,7,1,2,11,3,12,8,14,6,9"
14615,commdev-image-keyboard-response,485,1371292,learnblock2,624.1000000238419,img/planet7_right.png,7,Community 2,NA,TRUE,j,j,NA,NA,NA,5,6,"4,15,13,5,10,7,1,2,11,3,12,8,14,6,9"
14615,commdev-image-keyboard-response,486,1372557,learnblock2,713.3999999761581,img/planet3_right.png,3,Community 2,NA,TRUE,j,j,NA,NA,NA,5,6,"4,15,13,5,10,7,1,2,11,3,12,8,14,6,9"
14615,commdev-image-keyboard-response,487,1373809,learnblock2,574.7000000476837,img/planet1_left.png,1,Community 2,NA,TRUE,f,f,NA,NA,NA,5,6,"4,15,13,5,10,7,1,2,11,3,12,8,14,6,9"
14615,commdev-image-keyboard-response,488,1375066,learnblock2,590.2999999523163,img/planet7_right.png,7,Community 2,NA,TRUE,j,j,NA,NA,NA,5,6,"4,15,13,5,10,7,1,2,11,3,12,8,14,6,9"
14615,commdev-image-keyboard-response,489,1376329,learnblock2,645.6999999284744,img/planet1_right.png,1,Community 2,NA,TRUE,j,j,NA,NA,NA,5,6,"4,15,13,5,10,7,1,2,11,3,12,8,14,6,9"
14615,commdev-image-keyboard-response,490,1377589,learnblock2,607.1000000238419,img/planet3_left.png,3,Community 2,NA,TRUE,f,f,NA,NA,NA,5,6,"4,15,13,5,10,7,1,2,11,3,12,8,14,6,9"
14615,commdev-image-keyboard-response,491,1378854,learnblock2,568.2000000476837,img/planet11_right.png,11,Community 2,NA,TRUE,j,j,NA,NA,NA,5,6,"4,15,13,5,10,7,1,2,11,3,12,8,14,6,9"
14615,commdev-image-keyboard-response,492,1380118,learnblock2,652.3999999761581,img/planet2_right.png,2,Community 2,NA,TRUE,j,j,NA,NA,NA,5,6,"4,15,13,5,10,7,1,2,11,3,12,8,14,6,9"
14615,commdev-image-keyboard-response,493,1381375,learnblock2,583.7000000476837,img/planet11_left.png,11,Community 2,NA,TRUE,f,f,NA,NA,NA,5,6,"4,15,13,5,10,7,1,2,11,3,12,8,14,6,9"
14615,commdev-image-keyboard-response,494,1382632,learnblock2,699.1000000238419,img/planet3_left.png,3,Community 2,NA,FALSE,j,f,NA,NA,NA,5,6,"4,15,13,5,10,7,1,2,11,3,12,8,14,6,9"
14615,commdev-image-keyboard-response,495,1383890,learnblock2,1187.5,img/planet7_left.png,7,Community 2,NA,TRUE,f,f,NA,NA,NA,5,6,"4,15,13,5,10,7,1,2,11,3,12,8,14,6,9"
14615,commdev-image-keyboard-response,496,1385151,learnblock2,687.6000000238419,img/planet1_right.png,1,Community 2,NA,TRUE,j,j,NA,NA,NA,5,6,"4,15,13,5,10,7,1,2,11,3,12,8,14,6,9"
14615,commdev-image-keyboard-response,497,1386412,learnblock2,634.3999999761581,img/planet2_right.png,2,Community 2,NA,TRUE,j,j,NA,NA,NA,5,6,"4,15,13,5,10,7,1,2,11,3,12,8,14,6,9"
14615,commdev-image-keyboard-response,498,1387678,learnblock2,810.2000000476837,img/planet8_right.png,8,Community 3,NA,TRUE,j,j,NA,NA,NA,5,6,"4,15,13,5,10,7,1,2,11,3,12,8,14,6,9"
14615,commdev-image-keyboard-response,499,1388931,learnblock2,721.6000000238419,img/planet9_right.png,9,Community 3,NA,TRUE,j,j,NA,NA,NA,5,6,"4,15,13,5,10,7,1,2,11,3,12,8,14,6,9"
14615,commdev-image-keyboard-response,500,1390199,learnblock2,717.5999999046326,img/planet12_right.png,12,Community 3,NA,TRUE,j,j,NA,NA,NA,5,6,"4,15,13,5,10,7,1,2,11,3,12,8,14,6,9"
14615,commdev-image-keyboard-response,501,1391464,learnblock2,751,img/planet6_right.png,6,Community 3,NA,TRUE,j,j,NA,NA,NA,5,6,"4,15,13,5,10,7,1,2,11,3,12,8,14,6,9"
14615,commdev-image-keyboard-response,502,1392722,learnblock2,741.1999999284744,img/planet14_right.png,14,Community 3,NA,TRUE,j,j,NA,NA,NA,5,6,"4,15,13,5,10,7,1,2,11,3,12,8,14,6,9"
14615,commdev-image-keyboard-response,503,1393974,learnblock2,819.6999999284744,img/planet8_right.png,8,Community 3,NA,TRUE,j,j,NA,NA,NA,5,6,"4,15,13,5,10,7,1,2,11,3,12,8,14,6,9"
14615,commdev-image-keyboard-response,504,1395242,learnblock2,734.0999999046326,img/planet2_right.png,2,Community 2,NA,TRUE,j,j,NA,NA,NA,5,6,"4,15,13,5,10,7,1,2,11,3,12,8,14,6,9"
14615,commdev-image-keyboard-response,505,1396509,learnblock2,1001.1000000238419,img/planet8_right.png,8,Community 3,NA,TRUE,j,j,NA,NA,NA,5,6,"4,15,13,5,10,7,1,2,11,3,12,8,14,6,9"
14615,commdev-image-keyboard-response,506,1397776,learnblock2,825,img/planet2_left.png,2,Community 2,NA,TRUE,f,f,NA,NA,NA,5,6,"4,15,13,5,10,7,1,2,11,3,12,8,14,6,9"
14615,commdev-image-keyboard-response,507,1399033,learnblock2,1042.5,img/planet8_left.png,8,Community 3,NA,TRUE,f,f,NA,NA,NA,5,6,"4,15,13,5,10,7,1,2,11,3,12,8,14,6,9"
14615,commdev-image-keyboard-response,508,1400286,learnblock2,836.5,img/planet9_right.png,9,Community 3,NA,TRUE,j,j,NA,NA,NA,5,6,"4,15,13,5,10,7,1,2,11,3,12,8,14,6,9"
14615,commdev-image-keyboard-response,509,1401550,learnblock2,770.1999999284744,img/planet12_right.png,12,Community 3,NA,TRUE,j,j,NA,NA,NA,5,6,"4,15,13,5,10,7,1,2,11,3,12,8,14,6,9"
14615,commdev-image-keyboard-response,510,1402805,learnblock2,1068,img/planet14_right.png,14,Community 3,NA,TRUE,j,j,NA,NA,NA,5,6,"4,15,13,5,10,7,1,2,11,3,12,8,14,6,9"
14615,commdev-image-keyboard-response,511,1404071,learnblock2,576.7000000476837,img/planet9_left.png,9,Community 3,NA,TRUE,f,f,NA,NA,NA,5,6,"4,15,13,5,10,7,1,2,11,3,12,8,14,6,9"
14615,commdev-image-keyboard-response,512,1405339,learnblock2,586.7999999523163,img/planet14_left.png,14,Community 3,NA,TRUE,f,f,NA,NA,NA,5,6,"4,15,13,5,10,7,1,2,11,3,12,8,14,6,9"
14615,commdev-image-keyboard-response,513,1406594,learnblock2,1028.3999999761581,img/planet8_left.png,8,Community 3,NA,TRUE,f,f,NA,NA,NA,5,6,"4,15,13,5,10,7,1,2,11,3,12,8,14,6,9"
14615,commdev-image-keyboard-response,514,1407861,learnblock2,691.7000000476837,img/planet2_right.png,2,Community 2,NA,TRUE,j,j,NA,NA,NA,5,6,"4,15,13,5,10,7,1,2,11,3,12,8,14,6,9"
14615,commdev-image-keyboard-response,515,1409114,learnblock2,652.1999999284744,img/planet3_right.png,3,Community 2,NA,TRUE,j,j,NA,NA,NA,5,6,"4,15,13,5,10,7,1,2,11,3,12,8,14,6,9"
14615,commdev-image-keyboard-response,516,1410371,learnblock2,643.2999999523163,img/planet7_left.png,7,Community 2,NA,TRUE,f,f,NA,NA,NA,5,6,"4,15,13,5,10,7,1,2,11,3,12,8,14,6,9"
14615,commdev-image-keyboard-response,517,1411626,learnblock2,720,img/planet3_left.png,3,Community 2,NA,TRUE,f,f,NA,NA,NA,5,6,"4,15,13,5,10,7,1,2,11,3,12,8,14,6,9"
14615,commdev-image-keyboard-response,518,1412879,learnblock2,815.1000000238419,img/planet7_right.png,7,Community 2,NA,TRUE,j,j,NA,NA,NA,5,6,"4,15,13,5,10,7,1,2,11,3,12,8,14,6,9"
14615,commdev-image-keyboard-response,519,1414135,learnblock2,733.2000000476837,img/planet1_left.png,1,Community 2,NA,TRUE,f,f,NA,NA,NA,5,6,"4,15,13,5,10,7,1,2,11,3,12,8,14,6,9"
14615,commdev-image-keyboard-response,520,1415399,learnblock2,731.2999999523163,img/planet11_right.png,11,Community 2,NA,TRUE,j,j,NA,NA,NA,5,6,"4,15,13,5,10,7,1,2,11,3,12,8,14,6,9"
14615,commdev-image-keyboard-response,521,1416658,learnblock2,725.5,img/planet1_left.png,1,Community 2,NA,TRUE,f,f,NA,NA,NA,5,6,"4,15,13,5,10,7,1,2,11,3,12,8,14,6,9"
14615,commdev-image-keyboard-response,522,1417913,learnblock2,884.7000000476837,img/planet11_right.png,11,Community 2,NA,TRUE,j,j,NA,NA,NA,5,6,"4,15,13,5,10,7,1,2,11,3,12,8,14,6,9"
14615,commdev-image-keyboard-response,523,1419169,learnblock2,723,img/planet2_right.png,2,Community 2,NA,TRUE,j,j,NA,NA,NA,5,6,"4,15,13,5,10,7,1,2,11,3,12,8,14,6,9"
14615,commdev-image-keyboard-response,524,1420435,learnblock2,708.1999999284744,img/planet3_left.png,3,Community 2,NA,TRUE,f,f,NA,NA,NA,5,6,"4,15,13,5,10,7,1,2,11,3,12,8,14,6,9"
14615,commdev-image-keyboard-response,525,1421691,learnblock2,630.5,img/planet7_right.png,7,Community 2,NA,FALSE,f,j,NA,NA,NA,5,6,"4,15,13,5,10,7,1,2,11,3,12,8,14,6,9"
14615,commdev-image-keyboard-response,526,1422956,learnblock2,649.6000000238419,img/planet5_left.png,5,Community 1,NA,TRUE,f,f,NA,NA,NA,5,6,"4,15,13,5,10,7,1,2,11,3,12,8,14,6,9"
14615,commdev-image-keyboard-response,527,1424212,learnblock2,719.1000000238419,img/planet7_right.png,7,Community 2,NA,TRUE,j,j,NA,NA,NA,5,6,"4,15,13,5,10,7,1,2,11,3,12,8,14,6,9"
14615,commdev-image-keyboard-response,528,1425471,learnblock2,749.7999999523163,img/planet11_left.png,11,Community 2,NA,TRUE,f,f,NA,NA,NA,5,6,"4,15,13,5,10,7,1,2,11,3,12,8,14,6,9"
14615,commdev-image-keyboard-response,529,1426736,learnblock2,837.3999999761581,img/planet2_left.png,2,Community 2,NA,TRUE,f,f,NA,NA,NA,5,6,"4,15,13,5,10,7,1,2,11,3,12,8,14,6,9"
14615,commdev-image-keyboard-response,530,1427992,learnblock2,862.6000000238419,img/planet1_left.png,1,Community 2,NA,TRUE,f,f,NA,NA,NA,5,6,"4,15,13,5,10,7,1,2,11,3,12,8,14,6,9"
14615,commdev-image-keyboard-response,531,1429258,learnblock2,675.0999999046326,img/planet3_right.png,3,Community 2,NA,TRUE,j,j,NA,NA,NA,5,6,"4,15,13,5,10,7,1,2,11,3,12,8,14,6,9"
14615,commdev-image-keyboard-response,532,1430525,learnblock2,736.1000000238419,img/planet11_right.png,11,Community 2,NA,TRUE,j,j,NA,NA,NA,5,6,"4,15,13,5,10,7,1,2,11,3,12,8,14,6,9"
14615,commdev-image-keyboard-response,533,1431779,learnblock2,724.8999999761581,img/planet3_right.png,3,Community 2,NA,TRUE,j,j,NA,NA,NA,5,6,"4,15,13,5,10,7,1,2,11,3,12,8,14,6,9"
14615,commdev-image-keyboard-response,534,1433033,learnblock2,700.2000000476837,img/planet11_right.png,11,Community 2,NA,TRUE,j,j,NA,NA,NA,5,6,"4,15,13,5,10,7,1,2,11,3,12,8,14,6,9"
14615,commdev-image-keyboard-response,535,1434288,learnblock2,553.5999999046326,img/planet2_left.png,2,Community 2,NA,TRUE,f,f,NA,NA,NA,5,6,"4,15,13,5,10,7,1,2,11,3,12,8,14,6,9"
14615,commdev-image-keyboard-response,536,1435542,learnblock2,613.5999999046326,img/planet11_right.png,11,Community 2,NA,TRUE,j,j,NA,NA,NA,5,6,"4,15,13,5,10,7,1,2,11,3,12,8,14,6,9"
14615,commdev-image-keyboard-response,537,1436807,learnblock2,659.8000000715256,img/planet3_left.png,3,Community 2,NA,FALSE,j,f,NA,NA,NA,5,6,"4,15,13,5,10,7,1,2,11,3,12,8,14,6,9"
14615,commdev-image-keyboard-response,538,1438069,learnblock2,835.1000000238419,img/planet2_right.png,2,Community 2,NA,TRUE,j,j,NA,NA,NA,5,6,"4,15,13,5,10,7,1,2,11,3,12,8,14,6,9"
14615,commdev-image-keyboard-response,539,1439324,learnblock2,1178.3999999761581,img/planet8_right.png,8,Community 3,NA,TRUE,j,j,NA,NA,NA,5,6,"4,15,13,5,10,7,1,2,11,3,12,8,14,6,9"
14615,commdev-image-keyboard-response,540,1440577,learnblock2,790.8999999761581,img/planet9_right.png,9,Community 3,NA,TRUE,j,j,NA,NA,NA,5,6,"4,15,13,5,10,7,1,2,11,3,12,8,14,6,9"
14615,commdev-image-keyboard-response,541,1441844,learnblock2,931.3999999761581,img/planet14_left.png,14,Community 3,NA,TRUE,f,f,NA,NA,NA,5,6,"4,15,13,5,10,7,1,2,11,3,12,8,14,6,9"
14615,commdev-image-keyboard-response,542,1443111,learnblock2,944.3000000715256,img/planet9_right.png,9,Community 3,NA,TRUE,j,j,NA,NA,NA,5,6,"4,15,13,5,10,7,1,2,11,3,12,8,14,6,9"
14615,commdev-image-keyboard-response,543,1444369,learnblock2,850.1000000238419,img/planet8_right.png,8,Community 3,NA,TRUE,j,j,NA,NA,NA,5,6,"4,15,13,5,10,7,1,2,11,3,12,8,14,6,9"
14615,commdev-image-keyboard-response,544,1445627,learnblock2,651.8999999761581,img/planet2_left.png,2,Community 2,NA,TRUE,f,f,NA,NA,NA,5,6,"4,15,13,5,10,7,1,2,11,3,12,8,14,6,9"
14615,commdev-image-keyboard-response,545,1446892,learnblock2,636.5,img/planet3_right.png,3,Community 2,NA,TRUE,j,j,NA,NA,NA,5,6,"4,15,13,5,10,7,1,2,11,3,12,8,14,6,9"
14615,commdev-image-keyboard-response,546,1448146,learnblock2,615.3999999761581,img/planet11_left.png,11,Community 2,NA,TRUE,f,f,NA,NA,NA,5,6,"4,15,13,5,10,7,1,2,11,3,12,8,14,6,9"
14615,commdev-image-keyboard-response,547,1449413,learnblock2,679.4000000953674,img/planet7_right.png,7,Community 2,NA,TRUE,j,j,NA,NA,NA,5,6,"4,15,13,5,10,7,1,2,11,3,12,8,14,6,9"
14615,commdev-image-keyboard-response,548,1450669,learnblock2,641.6000000238419,img/planet5_right.png,5,Community 1,NA,TRUE,j,j,NA,NA,NA,5,6,"4,15,13,5,10,7,1,2,11,3,12,8,14,6,9"
14615,commdev-image-keyboard-response,549,1451933,learnblock2,658.2999999523163,img/planet13_right.png,13,Community 1,NA,TRUE,j,j,NA,NA,NA,5,6,"4,15,13,5,10,7,1,2,11,3,12,8,14,6,9"
14615,commdev-image-keyboard-response,550,1453201,learnblock2,648.1999999284744,img/planet4_left.png,4,Community 1,NA,TRUE,f,f,NA,NA,NA,5,6,"4,15,13,5,10,7,1,2,11,3,12,8,14,6,9"
14615,commdev-image-keyboard-response,551,1454455,learnblock2,661.2000000476837,img/planet13_right.png,13,Community 1,NA,TRUE,j,j,NA,NA,NA,5,6,"4,15,13,5,10,7,1,2,11,3,12,8,14,6,9"
14615,commdev-image-keyboard-response,552,1455709,learnblock2,593,img/planet5_right.png,5,Community 1,NA,TRUE,j,j,NA,NA,NA,5,6,"4,15,13,5,10,7,1,2,11,3,12,8,14,6,9"
14615,commdev-image-keyboard-response,553,1456976,learnblock2,662.1000000238419,img/planet7_right.png,7,Community 2,NA,TRUE,j,j,NA,NA,NA,5,6,"4,15,13,5,10,7,1,2,11,3,12,8,14,6,9"
14615,commdev-image-keyboard-response,554,1458227,learnblock2,771.1000000238419,img/planet11_right.png,11,Community 2,NA,TRUE,j,j,NA,NA,NA,5,6,"4,15,13,5,10,7,1,2,11,3,12,8,14,6,9"
14615,commdev-image-keyboard-response,555,1459494,learnblock2,665.8999999761581,img/planet2_right.png,2,Community 2,NA,TRUE,j,j,NA,NA,NA,5,6,"4,15,13,5,10,7,1,2,11,3,12,8,14,6,9"
14615,commdev-image-keyboard-response,556,1460761,learnblock2,622.6000000238419,img/planet11_right.png,11,Community 2,NA,TRUE,j,j,NA,NA,NA,5,6,"4,15,13,5,10,7,1,2,11,3,12,8,14,6,9"
14615,commdev-image-keyboard-response,557,1462015,learnblock2,703.3999999761581,img/planet7_left.png,7,Community 2,NA,TRUE,f,f,NA,NA,NA,5,6,"4,15,13,5,10,7,1,2,11,3,12,8,14,6,9"
14615,commdev-image-keyboard-response,558,1463280,learnblock2,628.2000000476837,img/planet1_left.png,1,Community 2,NA,TRUE,f,f,NA,NA,NA,5,6,"4,15,13,5,10,7,1,2,11,3,12,8,14,6,9"
14615,commdev-image-keyboard-response,559,1464543,learnblock2,592.9000000953674,img/planet2_left.png,2,Community 2,NA,TRUE,f,f,NA,NA,NA,5,6,"4,15,13,5,10,7,1,2,11,3,12,8,14,6,9"
14615,commdev-image-keyboard-response,560,1465795,learnblock2,773.7999999523163,img/planet8_left.png,8,Community 3,NA,TRUE,f,f,NA,NA,NA,5,6,"4,15,13,5,10,7,1,2,11,3,12,8,14,6,9"
14615,commdev-image-keyboard-response,561,1467058,learnblock2,706,img/planet14_right.png,14,Community 3,NA,TRUE,j,j,NA,NA,NA,5,6,"4,15,13,5,10,7,1,2,11,3,12,8,14,6,9"
14615,commdev-image-keyboard-response,562,1468325,learnblock2,652.3999999761581,img/planet9_left.png,9,Community 3,NA,TRUE,f,f,NA,NA,NA,5,6,"4,15,13,5,10,7,1,2,11,3,12,8,14,6,9"
14615,commdev-image-keyboard-response,563,1469591,learnblock2,712.2999999523163,img/planet8_left.png,8,Community 3,NA,TRUE,f,f,NA,NA,NA,5,6,"4,15,13,5,10,7,1,2,11,3,12,8,14,6,9"
14615,commdev-image-keyboard-response,564,1470844,learnblock2,652,img/planet6_right.png,6,Community 3,NA,TRUE,j,j,NA,NA,NA,5,6,"4,15,13,5,10,7,1,2,11,3,12,8,14,6,9"
14615,commdev-image-keyboard-response,565,1472110,learnblock2,633.1000000238419,img/planet9_right.png,9,Community 3,NA,TRUE,j,j,NA,NA,NA,5,6,"4,15,13,5,10,7,1,2,11,3,12,8,14,6,9"
14615,commdev-image-keyboard-response,566,1473371,learnblock2,724.6000000238419,img/planet12_left.png,12,Community 3,NA,TRUE,f,f,NA,NA,NA,5,6,"4,15,13,5,10,7,1,2,11,3,12,8,14,6,9"
14615,commdev-image-keyboard-response,567,1474635,learnblock2,609.5,img/planet10_right.png,10,Community 1,NA,TRUE,j,j,NA,NA,NA,5,6,"4,15,13,5,10,7,1,2,11,3,12,8,14,6,9"
14615,commdev-image-keyboard-response,568,1475901,learnblock2,633.1000000238419,img/planet13_left.png,13,Community 1,NA,TRUE,f,f,NA,NA,NA,5,6,"4,15,13,5,10,7,1,2,11,3,12,8,14,6,9"
14615,commdev-image-keyboard-response,569,1477154,learnblock2,642,img/planet4_right.png,4,Community 1,NA,TRUE,j,j,NA,NA,NA,5,6,"4,15,13,5,10,7,1,2,11,3,12,8,14,6,9"
14615,commdev-image-keyboard-response,570,1478409,learnblock2,572.2999999523163,img/planet10_right.png,10,Community 1,NA,TRUE,j,j,NA,NA,NA,5,6,"4,15,13,5,10,7,1,2,11,3,12,8,14,6,9"
14615,commdev-image-keyboard-response,571,1479666,learnblock2,571.8999999761581,img/planet4_right.png,4,Community 1,NA,TRUE,j,j,NA,NA,NA,5,6,"4,15,13,5,10,7,1,2,11,3,12,8,14,6,9"
14615,commdev-image-keyboard-response,572,1480931,learnblock2,485.8000000715256,img/planet5_left.png,5,Community 1,NA,FALSE,j,f,NA,NA,NA,5,6,"4,15,13,5,10,7,1,2,11,3,12,8,14,6,9"
14615,commdev-image-keyboard-response,573,1482184,learnblock2,979.1999999284744,img/planet15_right.png,15,Community 1,NA,TRUE,j,j,NA,NA,NA,5,6,"4,15,13,5,10,7,1,2,11,3,12,8,14,6,9"
14615,commdev-image-keyboard-response,574,1483444,learnblock2,948.1000000238419,img/planet4_right.png,4,Community 1,NA,TRUE,j,j,NA,NA,NA,5,6,"4,15,13,5,10,7,1,2,11,3,12,8,14,6,9"
14615,commdev-image-keyboard-response,575,1484697,learnblock2,758,img/planet5_left.png,5,Community 1,NA,TRUE,f,f,NA,NA,NA,5,6,"4,15,13,5,10,7,1,2,11,3,12,8,14,6,9"
14615,commdev-image-keyboard-response,576,1485959,learnblock2,866.2999999523163,img/planet15_right.png,15,Community 1,NA,FALSE,f,j,NA,NA,NA,5,6,"4,15,13,5,10,7,1,2,11,3,12,8,14,6,9"
14615,commdev-image-keyboard-response,577,1487225,learnblock2,749.5,img/planet4_right.png,4,Community 1,NA,TRUE,j,j,NA,NA,NA,5,6,"4,15,13,5,10,7,1,2,11,3,12,8,14,6,9"
14615,commdev-image-keyboard-response,578,1488480,learnblock2,866,img/planet10_left.png,10,Community 1,NA,TRUE,f,f,NA,NA,NA,5,6,"4,15,13,5,10,7,1,2,11,3,12,8,14,6,9"
14615,commdev-image-keyboard-response,579,1489746,learnblock2,845.5,img/planet4_right.png,4,Community 1,NA,TRUE,j,j,NA,NA,NA,5,6,"4,15,13,5,10,7,1,2,11,3,12,8,14,6,9"
14615,commdev-image-keyboard-response,580,1491009,learnblock2,761,img/planet15_right.png,15,Community 1,NA,TRUE,j,j,NA,NA,NA,5,6,"4,15,13,5,10,7,1,2,11,3,12,8,14,6,9"
14615,commdev-image-keyboard-response,581,1492266,learnblock2,674,img/planet4_left.png,4,Community 1,NA,TRUE,f,f,NA,NA,NA,5,6,"4,15,13,5,10,7,1,2,11,3,12,8,14,6,9"
14615,commdev-image-keyboard-response,582,1493533,learnblock2,658.8000000715256,img/planet5_left.png,5,Community 1,NA,TRUE,f,f,NA,NA,NA,5,6,"4,15,13,5,10,7,1,2,11,3,12,8,14,6,9"
14615,commdev-image-keyboard-response,583,1494800,learnblock2,621,img/planet13_left.png,13,Community 1,NA,TRUE,f,f,NA,NA,NA,5,6,"4,15,13,5,10,7,1,2,11,3,12,8,14,6,9"
14615,commdev-image-keyboard-response,584,1496066,learnblock2,591.9000000953674,img/planet15_left.png,15,Community 1,NA,TRUE,f,f,NA,NA,NA,5,6,"4,15,13,5,10,7,1,2,11,3,12,8,14,6,9"
14615,commdev-image-keyboard-response,585,1497332,learnblock2,590.2999999523163,img/planet5_left.png,5,Community 1,NA,TRUE,f,f,NA,NA,NA,5,6,"4,15,13,5,10,7,1,2,11,3,12,8,14,6,9"
14615,commdev-image-keyboard-response,586,1498586,learnblock2,671.1000000238419,img/planet4_left.png,4,Community 1,NA,TRUE,f,f,NA,NA,NA,5,6,"4,15,13,5,10,7,1,2,11,3,12,8,14,6,9"
14615,commdev-image-keyboard-response,587,1499845,learnblock2,590.2000000476837,img/planet13_left.png,13,Community 1,NA,TRUE,f,f,NA,NA,NA,5,6,"4,15,13,5,10,7,1,2,11,3,12,8,14,6,9"
14615,commdev-image-keyboard-response,588,1501098,learnblock2,586.8999999761581,img/planet5_left.png,5,Community 1,NA,TRUE,f,f,NA,NA,NA,5,6,"4,15,13,5,10,7,1,2,11,3,12,8,14,6,9"
14615,commdev-image-keyboard-response,589,1502353,learnblock2,787.6000000238419,img/planet7_left.png,7,Community 2,NA,TRUE,f,f,NA,NA,NA,5,6,"4,15,13,5,10,7,1,2,11,3,12,8,14,6,9"
14615,commdev-image-keyboard-response,590,1503620,learnblock2,722,img/planet11_left.png,11,Community 2,NA,TRUE,f,f,NA,NA,NA,5,6,"4,15,13,5,10,7,1,2,11,3,12,8,14,6,9"
14615,commdev-image-keyboard-response,591,1504885,learnblock2,581.6000000238419,img/planet1_left.png,1,Community 2,NA,TRUE,f,f,NA,NA,NA,5,6,"4,15,13,5,10,7,1,2,11,3,12,8,14,6,9"
14615,commdev-image-keyboard-response,592,1506142,learnblock2,502.39999997615814,img/planet2_left.png,2,Community 2,NA,TRUE,f,f,NA,NA,NA,5,6,"4,15,13,5,10,7,1,2,11,3,12,8,14,6,9"
14615,commdev-image-keyboard-response,593,1507398,learnblock2,451.5,img/planet11_left.png,11,Community 2,NA,TRUE,f,f,NA,NA,NA,5,6,"4,15,13,5,10,7,1,2,11,3,12,8,14,6,9"
14615,commdev-image-keyboard-response,594,1508664,learnblock2,571,img/planet3_left.png,3,Community 2,NA,FALSE,j,f,NA,NA,NA,5,6,"4,15,13,5,10,7,1,2,11,3,12,8,14,6,9"
14615,commdev-image-keyboard-response,595,1509931,learnblock2,1121.3999999761581,img/planet11_left.png,11,Community 2,NA,TRUE,f,f,NA,NA,NA,5,6,"4,15,13,5,10,7,1,2,11,3,12,8,14,6,9"
14615,commdev-image-keyboard-response,596,1511188,learnblock2,711.3999999761581,img/planet3_right.png,3,Community 2,NA,TRUE,j,j,NA,NA,NA,5,6,"4,15,13,5,10,7,1,2,11,3,12,8,14,6,9"
14615,commdev-image-keyboard-response,597,1512440,learnblock2,827.5,img/planet2_right.png,2,Community 2,NA,TRUE,j,j,NA,NA,NA,5,6,"4,15,13,5,10,7,1,2,11,3,12,8,14,6,9"
14615,commdev-image-keyboard-response,598,1513696,learnblock2,711.8999999761581,img/planet1_right.png,1,Community 2,NA,TRUE,j,j,NA,NA,NA,5,6,"4,15,13,5,10,7,1,2,11,3,12,8,14,6,9"
14615,commdev-image-keyboard-response,599,1514950,learnblock2,716.3000000715256,img/planet11_left.png,11,Community 2,NA,TRUE,f,f,NA,NA,NA,5,6,"4,15,13,5,10,7,1,2,11,3,12,8,14,6,9"
14615,commdev-image-keyboard-response,600,1516217,learnblock2,843.2999999523163,img/planet3_left.png,3,Community 2,NA,TRUE,f,f,NA,NA,NA,5,6,"4,15,13,5,10,7,1,2,11,3,12,8,14,6,9"
14615,commdev-image-keyboard-response,601,1517475,learnblock2,723.3999999761581,img/planet11_left.png,11,Community 2,NA,TRUE,f,f,NA,NA,NA,5,6,"4,15,13,5,10,7,1,2,11,3,12,8,14,6,9"
14615,commdev-image-keyboard-response,602,1518730,learnblock2,728.3999999761581,img/planet3_right.png,3,Community 2,NA,TRUE,j,j,NA,NA,NA,5,6,"4,15,13,5,10,7,1,2,11,3,12,8,14,6,9"
14615,commdev-image-keyboard-response,603,1519998,learnblock2,648.5999999046326,img/planet7_left.png,7,Community 2,NA,TRUE,f,f,NA,NA,NA,5,6,"4,15,13,5,10,7,1,2,11,3,12,8,14,6,9"
14615,commdev-image-keyboard-response,604,1521263,learnblock2,744.8999999761581,img/planet11_right.png,11,Community 2,NA,TRUE,j,j,NA,NA,NA,5,6,"4,15,13,5,10,7,1,2,11,3,12,8,14,6,9"
14615,commdev-image-keyboard-response,605,1522530,learnblock2,714,img/planet2_right.png,2,Community 2,NA,TRUE,j,j,NA,NA,NA,5,6,"4,15,13,5,10,7,1,2,11,3,12,8,14,6,9"
14615,commdev-image-keyboard-response,606,1523792,learnblock2,699.1000000238419,img/planet1_right.png,1,Community 2,NA,TRUE,j,j,NA,NA,NA,5,6,"4,15,13,5,10,7,1,2,11,3,12,8,14,6,9"
14615,commdev-image-keyboard-response,607,1525052,learnblock2,728,img/planet3_right.png,3,Community 2,NA,TRUE,j,j,NA,NA,NA,5,6,"4,15,13,5,10,7,1,2,11,3,12,8,14,6,9"
14615,commdev-image-keyboard-response,608,1526306,learnblock2,615.8999999761581,img/planet2_left.png,2,Community 2,NA,TRUE,f,f,NA,NA,NA,5,6,"4,15,13,5,10,7,1,2,11,3,12,8,14,6,9"
14615,commdev-image-keyboard-response,609,1527563,learnblock2,717.7999999523163,img/planet11_left.png,11,Community 2,NA,TRUE,f,f,NA,NA,NA,5,6,"4,15,13,5,10,7,1,2,11,3,12,8,14,6,9"
14615,commdev-image-keyboard-response,610,1528829,learnblock2,747.5,img/planet2_left.png,2,Community 2,NA,TRUE,f,f,NA,NA,NA,5,6,"4,15,13,5,10,7,1,2,11,3,12,8,14,6,9"
14615,commdev-image-keyboard-response,611,1530090,learnblock2,946.7999999523163,img/planet3_left.png,3,Community 2,NA,TRUE,f,f,NA,NA,NA,5,6,"4,15,13,5,10,7,1,2,11,3,12,8,14,6,9"
14615,commdev-image-keyboard-response,612,1531353,learnblock2,884.5,img/planet1_left.png,1,Community 2,NA,TRUE,f,f,NA,NA,NA,5,6,"4,15,13,5,10,7,1,2,11,3,12,8,14,6,9"
14615,commdev-image-keyboard-response,613,1532606,learnblock2,672,img/planet7_left.png,7,Community 2,NA,TRUE,f,f,NA,NA,NA,5,6,"4,15,13,5,10,7,1,2,11,3,12,8,14,6,9"
14615,commdev-image-keyboard-response,614,1533864,learnblock2,569.7000000476837,img/planet5_left.png,5,Community 1,NA,TRUE,f,f,NA,NA,NA,5,6,"4,15,13,5,10,7,1,2,11,3,12,8,14,6,9"
14615,commdev-image-keyboard-response,615,1535117,learnblock2,487.5,img/planet15_left.png,15,Community 1,NA,TRUE,f,f,NA,NA,NA,5,6,"4,15,13,5,10,7,1,2,11,3,12,8,14,6,9"
14615,commdev-image-keyboard-response,616,1536378,learnblock2,409.2000000476837,img/planet5_right.png,5,Community 1,NA,FALSE,f,j,NA,NA,NA,5,6,"4,15,13,5,10,7,1,2,11,3,12,8,14,6,9"
14615,commdev-image-keyboard-response,617,1537636,learnblock2,974.7999999523163,img/planet13_right.png,13,Community 1,NA,TRUE,j,j,NA,NA,NA,5,6,"4,15,13,5,10,7,1,2,11,3,12,8,14,6,9"
14615,commdev-image-keyboard-response,618,1538892,learnblock2,880.1999999284744,img/planet4_right.png,4,Community 1,NA,TRUE,j,j,NA,NA,NA,5,6,"4,15,13,5,10,7,1,2,11,3,12,8,14,6,9"
14615,commdev-image-keyboard-response,619,1540146,learnblock2,736.3000000715256,img/planet13_right.png,13,Community 1,NA,TRUE,j,j,NA,NA,NA,5,6,"4,15,13,5,10,7,1,2,11,3,12,8,14,6,9"
14615,commdev-image-keyboard-response,620,1541400,learnblock2,560.6000000238419,img/planet4_right.png,4,Community 1,NA,TRUE,j,j,NA,NA,NA,5,6,"4,15,13,5,10,7,1,2,11,3,12,8,14,6,9"
14615,commdev-image-keyboard-response,621,1542667,learnblock2,563.6000000238419,img/planet5_left.png,5,Community 1,NA,TRUE,f,f,NA,NA,NA,5,6,"4,15,13,5,10,7,1,2,11,3,12,8,14,6,9"
14615,commdev-image-keyboard-response,622,1543932,learnblock2,836.6999999284744,img/planet15_right.png,15,Community 1,NA,FALSE,f,j,NA,NA,NA,5,6,"4,15,13,5,10,7,1,2,11,3,12,8,14,6,9"
14615,commdev-image-keyboard-response,623,1545183,learnblock2,901.4000000953674,img/planet5_right.png,5,Community 1,NA,TRUE,j,j,NA,NA,NA,5,6,"4,15,13,5,10,7,1,2,11,3,12,8,14,6,9"
14615,commdev-image-keyboard-response,624,1546447,learnblock2,759.2000000476837,img/planet4_left.png,4,Community 1,NA,TRUE,f,f,NA,NA,NA,5,6,"4,15,13,5,10,7,1,2,11,3,12,8,14,6,9"
14615,commdev-image-keyboard-response,625,1547713,learnblock2,666.2999999523163,img/planet15_right.png,15,Community 1,NA,TRUE,j,j,NA,NA,NA,5,6,"4,15,13,5,10,7,1,2,11,3,12,8,14,6,9"
14615,commdev-image-keyboard-response,626,1548966,learnblock2,593,img/planet5_right.png,5,Community 1,NA,TRUE,j,j,NA,NA,NA,5,6,"4,15,13,5,10,7,1,2,11,3,12,8,14,6,9"
14615,commdev-image-keyboard-response,627,1550227,learnblock2,641.5999999046326,img/planet15_right.png,15,Community 1,NA,TRUE,j,j,NA,NA,NA,5,6,"4,15,13,5,10,7,1,2,11,3,12,8,14,6,9"
14615,commdev-image-keyboard-response,628,1551481,learnblock2,552.7999999523163,img/planet13_left.png,13,Community 1,NA,TRUE,f,f,NA,NA,NA,5,6,"4,15,13,5,10,7,1,2,11,3,12,8,14,6,9"
14615,commdev-image-keyboard-response,629,1552736,learnblock2,608.5,img/planet15_right.png,15,Community 1,NA,TRUE,j,j,NA,NA,NA,5,6,"4,15,13,5,10,7,1,2,11,3,12,8,14,6,9"
14615,commdev-image-keyboard-response,630,1553988,learnblock2,531.6999999284744,img/planet13_left.png,13,Community 1,NA,TRUE,f,f,NA,NA,NA,5,6,"4,15,13,5,10,7,1,2,11,3,12,8,14,6,9"
14615,commdev-image-keyboard-response,631,1555241,learnblock2,483.6999999284744,img/planet5_left.png,5,Community 1,NA,TRUE,f,f,NA,NA,NA,5,6,"4,15,13,5,10,7,1,2,11,3,12,8,14,6,9"
14615,commdev-image-keyboard-response,632,1556494,learnblock2,725.1000000238419,img/planet7_left.png,7,Community 2,NA,TRUE,f,f,NA,NA,NA,5,6,"4,15,13,5,10,7,1,2,11,3,12,8,14,6,9"
14615,commdev-image-keyboard-response,633,1557749,learnblock2,574.8000000715256,img/planet5_right.png,5,Community 1,NA,TRUE,j,j,NA,NA,NA,5,6,"4,15,13,5,10,7,1,2,11,3,12,8,14,6,9"
14615,commdev-image-keyboard-response,634,1559001,learnblock2,668.8999999761581,img/planet4_right.png,4,Community 1,NA,TRUE,j,j,NA,NA,NA,5,6,"4,15,13,5,10,7,1,2,11,3,12,8,14,6,9"
14615,commdev-image-keyboard-response,635,1560266,learnblock2,626.8999999761581,img/planet5_right.png,5,Community 1,NA,TRUE,j,j,NA,NA,NA,5,6,"4,15,13,5,10,7,1,2,11,3,12,8,14,6,9"
14615,commdev-image-keyboard-response,636,1561520,learnblock2,601.8000000715256,img/planet7_left.png,7,Community 2,NA,FALSE,j,f,NA,NA,NA,5,6,"4,15,13,5,10,7,1,2,11,3,12,8,14,6,9"
14615,commdev-image-keyboard-response,637,1562786,learnblock2,699.5999999046326,img/planet11_left.png,11,Community 2,NA,TRUE,f,f,NA,NA,NA,5,6,"4,15,13,5,10,7,1,2,11,3,12,8,14,6,9"
14615,commdev-image-keyboard-response,638,1564040,learnblock2,715.4000000953674,img/planet2_right.png,2,Community 2,NA,TRUE,j,j,NA,NA,NA,5,6,"4,15,13,5,10,7,1,2,11,3,12,8,14,6,9"
14615,commdev-image-keyboard-response,639,1565302,learnblock2,858,img/planet3_left.png,3,Community 2,NA,TRUE,f,f,NA,NA,NA,5,6,"4,15,13,5,10,7,1,2,11,3,12,8,14,6,9"
14615,commdev-image-keyboard-response,640,1566553,learnblock2,655.3999999761581,img/planet2_left.png,2,Community 2,NA,TRUE,f,f,NA,NA,NA,5,6,"4,15,13,5,10,7,1,2,11,3,12,8,14,6,9"
14615,commdev-image-keyboard-response,641,1567818,learnblock2,776,img/planet11_right.png,11,Community 2,NA,TRUE,j,j,NA,NA,NA,5,6,"4,15,13,5,10,7,1,2,11,3,12,8,14,6,9"
14615,commdev-image-keyboard-response,642,1569079,learnblock2,747.2999999523163,img/planet7_left.png,7,Community 2,NA,TRUE,f,f,NA,NA,NA,5,6,"4,15,13,5,10,7,1,2,11,3,12,8,14,6,9"
14615,commdev-image-keyboard-response,643,1570336,learnblock2,637.2999999523163,img/planet11_right.png,11,Community 2,NA,TRUE,j,j,NA,NA,NA,5,6,"4,15,13,5,10,7,1,2,11,3,12,8,14,6,9"
14615,commdev-image-keyboard-response,644,1571590,learnblock2,642.6999999284744,img/planet1_right.png,1,Community 2,NA,TRUE,j,j,NA,NA,NA,5,6,"4,15,13,5,10,7,1,2,11,3,12,8,14,6,9"
14615,commdev-image-keyboard-response,645,1572854,learnblock2,534.8000000715256,img/planet2_right.png,2,Community 2,NA,TRUE,j,j,NA,NA,NA,5,6,"4,15,13,5,10,7,1,2,11,3,12,8,14,6,9"
14615,commdev-image-keyboard-response,646,1574108,learnblock2,613.8000000715256,img/planet8_right.png,8,Community 3,NA,TRUE,j,j,NA,NA,NA,5,6,"4,15,13,5,10,7,1,2,11,3,12,8,14,6,9"
14615,commdev-image-keyboard-response,647,1575362,learnblock2,589,img/planet14_left.png,14,Community 3,NA,TRUE,f,f,NA,NA,NA,5,6,"4,15,13,5,10,7,1,2,11,3,12,8,14,6,9"
