subject_id,trial_type,trial_index,time_elapsed,block,rt,stimulus,planet,community,response,correct,key_press,learning_correct_response,parse,init_locations,final_locations,browser_interactions,num_comp,planet_map
15535,commdev-instructions,7,45448,NA,1991,"<p>In this game, you are a scientist on board a space shuttle. </p><p> On each mission, you will visit planets all across the universe.</p><img src=""img/controlroom.jpg"" width=300vw>",NA,NA,NA,NA,NA,NA,NA,NA,NA,1,6,"11,15,6,13,5,3,7,2,10,9,12,8,14,4,1"
15535,commdev-instructions,8,48437,NA,899,"<p>Here are a few planets you might see:</p><img src=""img/practice1.png"" width=200vw><img src=""img/practice2.png"" width=200vw><img src=""img/practice3.png"" width=200vw>",NA,NA,NA,NA,NA,NA,NA,NA,NA,1,6,"11,15,6,13,5,3,7,2,10,9,12,8,14,4,1"
15535,commdev-instructions,9,56913,NA,1056,"<p>Your job as a scientist is to record which direction the winds are moving on each planet.</p><p>There are two types of wind directions:</p><img src=""img/practice1_left.png"" width=200vw><img src=""img/practice1_right.png"" width=200vw>",NA,NA,NA,NA,NA,NA,NA,NA,NA,1,6,"11,15,6,13,5,3,7,2,10,9,12,8,14,4,1"
15535,commdev-instructions,10,64274,NA,2468,"<p>If the winds are moving this way, press the letter <strong>F</strong> on the keyboard as fast as you can.</p><img src=""img/leftwind.png"" width=250vw>",NA,NA,NA,NA,NA,NA,NA,NA,NA,1,6,"11,15,6,13,5,3,7,2,10,9,12,8,14,4,1"
15535,commdev-instructions,11,73018,NA,4232,"<p>If the winds are moving this way, press the letter <strong>J</strong> on the keyboard as fast as you can.</p><img src=""img/rightwind.png"" width=350vw>",NA,NA,NA,NA,NA,NA,NA,NA,NA,1,6,"11,15,6,13,5,3,7,2,10,9,12,8,14,4,1"
15535,commdev-instructions,12,80110,NA,2654,<p>You will have 1 second to respond. Try to respond before the time runs out!,NA,NA,NA,NA,NA,NA,NA,NA,NA,1,6,"11,15,6,13,5,3,7,2,10,9,12,8,14,4,1"
15535,commdev-instructions,13,86741,NA,1176,<p>The planets you will visit will look different from each other.</p><p>You should respond <strong>only</strong> based on wind direction.,NA,NA,NA,NA,NA,NA,NA,NA,NA,1,6,"11,15,6,13,5,3,7,2,10,9,12,8,14,4,1"
15535,commdev-instructions,14,93387,NA,1452,"<p> Ready to start the practice round? </p><p> Remember, press <strong>F</strong> or <strong>J</strong> depending on the wind direction.<br><img src=""img/categorize_planet_example.png""",NA,NA,NA,NA,NA,NA,NA,NA,NA,1,6,"11,15,6,13,5,3,7,2,10,9,12,8,14,4,1"
15535,commdev-instructions,26,148247,NA,1880,"<p>Great, now try a short practice mission. </p><p> This time, you will have 1 second to respond and you won't know whether you pressed the right or wrong key for each planet.</p>",NA,NA,NA,NA,NA,NA,NA,NA,NA,1,6,"11,15,6,13,5,3,7,2,10,9,12,8,14,4,1"
15535,commdev-image-keyboard-response,27,149608,practice,746,img/practice2_left.png,NA,Number not found in mappings,NA,TRUE,f,f,NA,NA,NA,1,6,"11,15,6,13,5,3,7,2,10,9,12,8,14,4,1"
15535,commdev-image-keyboard-response,28,150869,practice,616,img/practice1_right.png,NA,Number not found in mappings,NA,TRUE,j,j,NA,NA,NA,1,6,"11,15,6,13,5,3,7,2,10,9,12,8,14,4,1"
15535,commdev-image-keyboard-response,29,152134,practice,696,img/practice3_left.png,NA,Number not found in mappings,NA,FALSE,j,f,NA,NA,NA,1,6,"11,15,6,13,5,3,7,2,10,9,12,8,14,4,1"
15535,commdev-image-keyboard-response,30,153400,practice,743,img/practice4_right.png,NA,Number not found in mappings,NA,TRUE,j,j,NA,NA,NA,1,6,"11,15,6,13,5,3,7,2,10,9,12,8,14,4,1"
15535,commdev-image-keyboard-response,31,154662,practice,567,img/practice1_left.png,NA,Number not found in mappings,NA,TRUE,f,f,NA,NA,NA,1,6,"11,15,6,13,5,3,7,2,10,9,12,8,14,4,1"
15535,commdev-image-keyboard-response,32,155923,practice,859,img/practice3_left.png,NA,Number not found in mappings,NA,TRUE,f,f,NA,NA,NA,1,6,"11,15,6,13,5,3,7,2,10,9,12,8,14,4,1"
15535,commdev-image-keyboard-response,33,157189,practice,652,img/practice4_left.png,NA,Number not found in mappings,NA,TRUE,f,f,NA,NA,NA,1,6,"11,15,6,13,5,3,7,2,10,9,12,8,14,4,1"
15535,commdev-image-keyboard-response,34,158447,practice,877,img/practice1_left.png,NA,Number not found in mappings,NA,TRUE,f,f,NA,NA,NA,1,6,"11,15,6,13,5,3,7,2,10,9,12,8,14,4,1"
15535,commdev-instructions,35,169283,NA,1267,"<p>Great job with the practice round.</p><p>During real missions, you won't know whether you pressed the right or wrong key for each planet.</p><p>But between missions, we will tell you how you did overall.</p>",NA,NA,NA,NA,NA,NA,NA,NA,NA,1,6,"11,15,6,13,5,3,7,2,10,9,12,8,14,4,1"
15535,commdev-instructions,36,179197,NA,1660,<p>Try your best! You will be paid a bonus based on how many correct responses you make!</p><p>Responses that are too slow will not count toward your bonus.</p>,NA,NA,NA,NA,NA,NA,NA,NA,NA,1,6,"11,15,6,13,5,3,7,2,10,9,12,8,14,4,1"
15535,commdev-instructions,37,185636,NA,230,"<p>You are almost ready to start the real game.</p><p> First, we are going to ask you some questions about how the game works.</p>",NA,NA,NA,NA,NA,NA,NA,NA,NA,1,6,"11,15,6,13,5,3,7,2,10,9,12,8,14,4,1"
15535,commdev-instructions,46,267637,NA,1653,"<p> Nice work! It is now time to start the real game.<p></p>You will go on two missions to record wind directions of different planets.<p></p>Each one will take about 5 minutes. You will get to take a break between missions.<p><p> Remember, press <strong>F</strong> or <strong>J</strong> depending on the wind direction. Good luck!<br><img src=""img/categorize_planet_example.png""",NA,NA,NA,NA,NA,NA,NA,NA,NA,1,6,"11,15,6,13,5,3,7,2,10,9,12,8,14,4,1"
15535,commdev-image-keyboard-response,48,273550,learnblock1,831,img/planet13_left.png,13,Community 1,NA,TRUE,f,f,NA,NA,NA,1,6,"11,15,6,13,5,3,7,2,10,9,12,8,14,4,1"
15535,commdev-image-keyboard-response,49,274803,learnblock1,766,img/planet6_left.png,6,Community 1,NA,TRUE,f,f,NA,NA,NA,1,6,"11,15,6,13,5,3,7,2,10,9,12,8,14,4,1"
15535,commdev-image-keyboard-response,50,276057,learnblock1,712,img/planet5_left.png,5,Community 1,NA,TRUE,f,f,NA,NA,NA,1,6,"11,15,6,13,5,3,7,2,10,9,12,8,14,4,1"
15535,commdev-image-keyboard-response,51,277311,learnblock1,591,img/planet6_right.png,6,Community 1,NA,TRUE,j,j,NA,NA,NA,1,6,"11,15,6,13,5,3,7,2,10,9,12,8,14,4,1"
15535,commdev-image-keyboard-response,52,278564,learnblock1,621,img/planet13_left.png,13,Community 1,NA,TRUE,f,f,NA,NA,NA,1,6,"11,15,6,13,5,3,7,2,10,9,12,8,14,4,1"
15535,commdev-image-keyboard-response,53,279944,learnblock1,722,img/planet15_left.png,15,Community 1,NA,TRUE,f,f,NA,NA,NA,1,6,"11,15,6,13,5,3,7,2,10,9,12,8,14,4,1"
15535,commdev-image-keyboard-response,54,281242,learnblock1,617,img/planet6_right.png,6,Community 1,NA,TRUE,j,j,NA,NA,NA,1,6,"11,15,6,13,5,3,7,2,10,9,12,8,14,4,1"
15535,commdev-image-keyboard-response,55,282574,learnblock1,821,img/planet5_right.png,5,Community 1,NA,TRUE,j,j,NA,NA,NA,1,6,"11,15,6,13,5,3,7,2,10,9,12,8,14,4,1"
15535,commdev-image-keyboard-response,56,283826,learnblock1,719,img/planet15_right.png,15,Community 1,NA,TRUE,j,j,NA,NA,NA,1,6,"11,15,6,13,5,3,7,2,10,9,12,8,14,4,1"
15535,commdev-image-keyboard-response,57,285077,learnblock1,756,img/planet11_left.png,11,Community 1,NA,TRUE,f,f,NA,NA,NA,1,6,"11,15,6,13,5,3,7,2,10,9,12,8,14,4,1"
15535,commdev-image-keyboard-response,58,286330,learnblock1,956,img/planet13_right.png,13,Community 1,NA,TRUE,j,j,NA,NA,NA,1,6,"11,15,6,13,5,3,7,2,10,9,12,8,14,4,1"
15535,commdev-image-keyboard-response,59,287595,learnblock1,654,img/planet6_left.png,6,Community 1,NA,TRUE,f,f,NA,NA,NA,1,6,"11,15,6,13,5,3,7,2,10,9,12,8,14,4,1"
15535,commdev-image-keyboard-response,60,288992,learnblock1,713,img/planet5_right.png,5,Community 1,NA,TRUE,j,j,NA,NA,NA,1,6,"11,15,6,13,5,3,7,2,10,9,12,8,14,4,1"
15535,commdev-image-keyboard-response,61,290258,learnblock1,791,img/planet11_left.png,11,Community 1,NA,TRUE,f,f,NA,NA,NA,1,6,"11,15,6,13,5,3,7,2,10,9,12,8,14,4,1"
15535,commdev-image-keyboard-response,62,291514,learnblock1,616,img/planet5_left.png,5,Community 1,NA,TRUE,f,f,NA,NA,NA,1,6,"11,15,6,13,5,3,7,2,10,9,12,8,14,4,1"
15535,commdev-image-keyboard-response,63,292780,learnblock1,618,img/planet12_right.png,12,Community 3,NA,TRUE,j,j,NA,NA,NA,1,6,"11,15,6,13,5,3,7,2,10,9,12,8,14,4,1"
15535,commdev-image-keyboard-response,64,294141,learnblock1,717,img/planet5_right.png,5,Community 1,NA,TRUE,j,j,NA,NA,NA,1,6,"11,15,6,13,5,3,7,2,10,9,12,8,14,4,1"
15535,commdev-image-keyboard-response,65,295407,learnblock1,749,img/planet15_right.png,15,Community 1,NA,TRUE,j,j,NA,NA,NA,1,6,"11,15,6,13,5,3,7,2,10,9,12,8,14,4,1"
15535,commdev-image-keyboard-response,66,296673,learnblock1,769,img/planet13_right.png,13,Community 1,NA,TRUE,j,j,NA,NA,NA,1,6,"11,15,6,13,5,3,7,2,10,9,12,8,14,4,1"
15535,commdev-image-keyboard-response,67,297939,learnblock1,648,img/planet15_left.png,15,Community 1,NA,TRUE,f,f,NA,NA,NA,1,6,"11,15,6,13,5,3,7,2,10,9,12,8,14,4,1"
15535,commdev-image-keyboard-response,68,299335,learnblock1,538,img/planet11_left.png,11,Community 1,NA,TRUE,f,f,NA,NA,NA,1,6,"11,15,6,13,5,3,7,2,10,9,12,8,14,4,1"
15535,commdev-image-keyboard-response,69,300590,learnblock1,611,img/planet13_left.png,13,Community 1,NA,TRUE,f,f,NA,NA,NA,1,6,"11,15,6,13,5,3,7,2,10,9,12,8,14,4,1"
15535,commdev-image-keyboard-response,70,301856,learnblock1,572,img/planet15_right.png,15,Community 1,NA,TRUE,j,j,NA,NA,NA,1,6,"11,15,6,13,5,3,7,2,10,9,12,8,14,4,1"
15535,commdev-image-keyboard-response,71,303106,learnblock1,588,img/planet11_right.png,11,Community 1,NA,TRUE,j,j,NA,NA,NA,1,6,"11,15,6,13,5,3,7,2,10,9,12,8,14,4,1"
15535,commdev-image-keyboard-response,72,304371,learnblock1,610,img/planet6_left.png,6,Community 1,NA,TRUE,f,f,NA,NA,NA,1,6,"11,15,6,13,5,3,7,2,10,9,12,8,14,4,1"
15535,commdev-image-keyboard-response,73,305637,learnblock1,576,img/planet15_left.png,15,Community 1,NA,TRUE,f,f,NA,NA,NA,1,6,"11,15,6,13,5,3,7,2,10,9,12,8,14,4,1"
15535,commdev-image-keyboard-response,74,306903,learnblock1,544,img/planet5_left.png,5,Community 1,NA,TRUE,f,f,NA,NA,NA,1,6,"11,15,6,13,5,3,7,2,10,9,12,8,14,4,1"
15535,commdev-image-keyboard-response,75,308169,learnblock1,577,img/planet11_left.png,11,Community 1,NA,TRUE,f,f,NA,NA,NA,1,6,"11,15,6,13,5,3,7,2,10,9,12,8,14,4,1"
15535,commdev-image-keyboard-response,76,309469,learnblock1,658,img/planet5_right.png,5,Community 1,NA,TRUE,j,j,NA,NA,NA,1,6,"11,15,6,13,5,3,7,2,10,9,12,8,14,4,1"
15535,commdev-image-keyboard-response,77,310735,learnblock1,959,img/planet12_right.png,12,Community 3,NA,TRUE,j,j,NA,NA,NA,1,6,"11,15,6,13,5,3,7,2,10,9,12,8,14,4,1"
15535,commdev-image-keyboard-response,78,311985,learnblock1,593,img/planet4_left.png,4,Community 3,NA,TRUE,f,f,NA,NA,NA,1,6,"11,15,6,13,5,3,7,2,10,9,12,8,14,4,1"
15535,commdev-image-keyboard-response,79,313236,learnblock1,597,img/planet14_left.png,14,Community 3,NA,TRUE,f,f,NA,NA,NA,1,6,"11,15,6,13,5,3,7,2,10,9,12,8,14,4,1"
15535,commdev-image-keyboard-response,80,314489,learnblock1,709,img/planet8_left.png,8,Community 3,NA,TRUE,f,f,NA,NA,NA,1,6,"11,15,6,13,5,3,7,2,10,9,12,8,14,4,1"
15535,commdev-image-keyboard-response,81,315754,learnblock1,532,img/planet4_left.png,4,Community 3,NA,TRUE,f,f,NA,NA,NA,1,6,"11,15,6,13,5,3,7,2,10,9,12,8,14,4,1"
15535,commdev-image-keyboard-response,82,317006,learnblock1,660,img/planet8_right.png,8,Community 3,NA,TRUE,j,j,NA,NA,NA,1,6,"11,15,6,13,5,3,7,2,10,9,12,8,14,4,1"
15535,commdev-image-keyboard-response,83,318261,learnblock1,555,img/planet4_left.png,4,Community 3,NA,TRUE,f,f,NA,NA,NA,1,6,"11,15,6,13,5,3,7,2,10,9,12,8,14,4,1"
15535,commdev-image-keyboard-response,84,319515,learnblock1,672,img/planet14_right.png,14,Community 3,NA,TRUE,j,j,NA,NA,NA,1,6,"11,15,6,13,5,3,7,2,10,9,12,8,14,4,1"
15535,commdev-image-keyboard-response,85,320781,learnblock1,863,img/planet12_right.png,12,Community 3,NA,TRUE,j,j,NA,NA,NA,1,6,"11,15,6,13,5,3,7,2,10,9,12,8,14,4,1"
15535,commdev-image-keyboard-response,86,322033,learnblock1,611,img/planet4_left.png,4,Community 3,NA,TRUE,f,f,NA,NA,NA,1,6,"11,15,6,13,5,3,7,2,10,9,12,8,14,4,1"
15535,commdev-image-keyboard-response,87,323396,learnblock1,711,img/planet14_right.png,14,Community 3,NA,TRUE,j,j,NA,NA,NA,1,6,"11,15,6,13,5,3,7,2,10,9,12,8,14,4,1"
15535,commdev-image-keyboard-response,88,324652,learnblock1,562,img/planet4_right.png,4,Community 3,NA,TRUE,j,j,NA,NA,NA,1,6,"11,15,6,13,5,3,7,2,10,9,12,8,14,4,1"
15535,commdev-image-keyboard-response,89,325908,learnblock1,434,img/planet12_left.png,12,Community 3,NA,TRUE,f,f,NA,NA,NA,1,6,"11,15,6,13,5,3,7,2,10,9,12,8,14,4,1"
15535,commdev-image-keyboard-response,90,327162,learnblock1,594,img/planet14_right.png,14,Community 3,NA,TRUE,j,j,NA,NA,NA,1,6,"11,15,6,13,5,3,7,2,10,9,12,8,14,4,1"
15535,commdev-image-keyboard-response,91,328416,learnblock1,558,img/planet1_right.png,1,Community 3,NA,TRUE,j,j,NA,NA,NA,1,6,"11,15,6,13,5,3,7,2,10,9,12,8,14,4,1"
15535,commdev-image-keyboard-response,92,329682,learnblock1,623,img/planet14_right.png,14,Community 3,NA,TRUE,j,j,NA,NA,NA,1,6,"11,15,6,13,5,3,7,2,10,9,12,8,14,4,1"
15535,commdev-image-keyboard-response,93,330938,learnblock1,565,img/planet1_right.png,1,Community 3,NA,TRUE,j,j,NA,NA,NA,1,6,"11,15,6,13,5,3,7,2,10,9,12,8,14,4,1"
15535,commdev-image-keyboard-response,94,332300,learnblock1,547,img/planet12_left.png,12,Community 3,NA,TRUE,f,f,NA,NA,NA,1,6,"11,15,6,13,5,3,7,2,10,9,12,8,14,4,1"
15535,commdev-image-keyboard-response,95,333555,learnblock1,536,img/planet1_left.png,1,Community 3,NA,TRUE,f,f,NA,NA,NA,1,6,"11,15,6,13,5,3,7,2,10,9,12,8,14,4,1"
15535,commdev-image-keyboard-response,96,334810,learnblock1,640,img/planet14_left.png,14,Community 3,NA,TRUE,f,f,NA,NA,NA,1,6,"11,15,6,13,5,3,7,2,10,9,12,8,14,4,1"
15535,commdev-image-keyboard-response,97,336066,learnblock1,628,img/planet1_right.png,1,Community 3,NA,TRUE,j,j,NA,NA,NA,1,6,"11,15,6,13,5,3,7,2,10,9,12,8,14,4,1"
15535,commdev-image-keyboard-response,98,337444,learnblock1,1008,img/planet8_right.png,8,Community 3,NA,TRUE,j,j,NA,NA,NA,1,6,"11,15,6,13,5,3,7,2,10,9,12,8,14,4,1"
15535,commdev-image-keyboard-response,99,338695,learnblock1,793,img/planet14_left.png,14,Community 3,NA,TRUE,f,f,NA,NA,NA,1,6,"11,15,6,13,5,3,7,2,10,9,12,8,14,4,1"
15535,commdev-image-keyboard-response,100,339950,learnblock1,566,img/planet4_right.png,4,Community 3,NA,TRUE,j,j,NA,NA,NA,1,6,"11,15,6,13,5,3,7,2,10,9,12,8,14,4,1"
15535,commdev-image-keyboard-response,101,341202,learnblock1,800,img/planet12_right.png,12,Community 3,NA,TRUE,j,j,NA,NA,NA,1,6,"11,15,6,13,5,3,7,2,10,9,12,8,14,4,1"
15535,commdev-image-keyboard-response,102,342455,learnblock1,624,img/planet5_right.png,5,Community 1,NA,TRUE,j,j,NA,NA,NA,1,6,"11,15,6,13,5,3,7,2,10,9,12,8,14,4,1"
15535,commdev-image-keyboard-response,103,343720,learnblock1,543,img/planet15_right.png,15,Community 1,NA,TRUE,j,j,NA,NA,NA,1,6,"11,15,6,13,5,3,7,2,10,9,12,8,14,4,1"
15535,commdev-image-keyboard-response,104,345005,learnblock1,558,img/planet5_right.png,5,Community 1,NA,TRUE,j,j,NA,NA,NA,1,6,"11,15,6,13,5,3,7,2,10,9,12,8,14,4,1"
15535,commdev-image-keyboard-response,105,346260,learnblock1,546,img/planet15_right.png,15,Community 1,NA,TRUE,j,j,NA,NA,NA,1,6,"11,15,6,13,5,3,7,2,10,9,12,8,14,4,1"
15535,commdev-image-keyboard-response,106,347512,learnblock1,568,img/planet11_left.png,11,Community 1,NA,TRUE,f,f,NA,NA,NA,1,6,"11,15,6,13,5,3,7,2,10,9,12,8,14,4,1"
15535,commdev-image-keyboard-response,107,348768,learnblock1,586,img/planet13_right.png,13,Community 1,NA,TRUE,j,j,NA,NA,NA,1,6,"11,15,6,13,5,3,7,2,10,9,12,8,14,4,1"
15535,commdev-image-keyboard-response,108,350021,learnblock1,774,img/planet3_right.png,3,Community 2,NA,TRUE,j,j,NA,NA,NA,1,6,"11,15,6,13,5,3,7,2,10,9,12,8,14,4,1"
15535,commdev-image-keyboard-response,109,351275,learnblock1,748,img/planet9_right.png,9,Community 2,NA,TRUE,j,j,NA,NA,NA,1,6,"11,15,6,13,5,3,7,2,10,9,12,8,14,4,1"
15535,commdev-image-keyboard-response,110,352533,learnblock1,706,img/planet7_right.png,7,Community 2,NA,TRUE,j,j,NA,NA,NA,1,6,"11,15,6,13,5,3,7,2,10,9,12,8,14,4,1"
15535,commdev-image-keyboard-response,111,353799,learnblock1,612,img/planet3_left.png,3,Community 2,NA,TRUE,f,f,NA,NA,NA,1,6,"11,15,6,13,5,3,7,2,10,9,12,8,14,4,1"
15535,commdev-image-keyboard-response,112,355051,learnblock1,471,img/planet10_left.png,10,Community 2,NA,TRUE,f,f,NA,NA,NA,1,6,"11,15,6,13,5,3,7,2,10,9,12,8,14,4,1"
15535,commdev-image-keyboard-response,113,356317,learnblock1,769,img/planet9_left.png,9,Community 2,NA,TRUE,f,f,NA,NA,NA,1,6,"11,15,6,13,5,3,7,2,10,9,12,8,14,4,1"
15535,commdev-image-keyboard-response,114,357581,learnblock1,505,img/planet3_left.png,3,Community 2,NA,TRUE,f,f,NA,NA,NA,1,6,"11,15,6,13,5,3,7,2,10,9,12,8,14,4,1"
15535,commdev-image-keyboard-response,115,358834,learnblock1,636,img/planet7_right.png,7,Community 2,NA,TRUE,j,j,NA,NA,NA,1,6,"11,15,6,13,5,3,7,2,10,9,12,8,14,4,1"
15535,commdev-image-keyboard-response,116,360086,learnblock1,797,img/planet3_right.png,3,Community 2,NA,TRUE,j,j,NA,NA,NA,1,6,"11,15,6,13,5,3,7,2,10,9,12,8,14,4,1"
15535,commdev-image-keyboard-response,117,361352,learnblock1,596,img/planet9_left.png,9,Community 2,NA,TRUE,f,f,NA,NA,NA,1,6,"11,15,6,13,5,3,7,2,10,9,12,8,14,4,1"
15535,commdev-image-keyboard-response,118,362605,learnblock1,625,img/planet7_left.png,7,Community 2,NA,TRUE,f,f,NA,NA,NA,1,6,"11,15,6,13,5,3,7,2,10,9,12,8,14,4,1"
15535,commdev-image-keyboard-response,119,363858,learnblock1,503,img/planet2_left.png,2,Community 2,NA,TRUE,f,f,NA,NA,NA,1,6,"11,15,6,13,5,3,7,2,10,9,12,8,14,4,1"
15535,commdev-image-keyboard-response,120,365111,learnblock1,550,img/planet8_left.png,8,Community 3,NA,TRUE,f,f,NA,NA,NA,1,6,"11,15,6,13,5,3,7,2,10,9,12,8,14,4,1"
15535,commdev-image-keyboard-response,121,366417,learnblock1,754,img/planet4_right.png,4,Community 3,NA,TRUE,j,j,NA,NA,NA,1,6,"11,15,6,13,5,3,7,2,10,9,12,8,14,4,1"
15535,commdev-image-keyboard-response,122,367668,learnblock1,635,img/planet1_right.png,1,Community 3,NA,TRUE,j,j,NA,NA,NA,1,6,"11,15,6,13,5,3,7,2,10,9,12,8,14,4,1"
15535,commdev-image-keyboard-response,123,368925,learnblock1,532,img/planet14_left.png,14,Community 3,NA,TRUE,f,f,NA,NA,NA,1,6,"11,15,6,13,5,3,7,2,10,9,12,8,14,4,1"
15535,commdev-image-keyboard-response,124,370176,learnblock1,766,img/planet8_right.png,8,Community 3,NA,TRUE,j,j,NA,NA,NA,1,6,"11,15,6,13,5,3,7,2,10,9,12,8,14,4,1"
15535,commdev-image-keyboard-response,125,371429,learnblock1,607,img/planet14_right.png,14,Community 3,NA,TRUE,j,j,NA,NA,NA,1,6,"11,15,6,13,5,3,7,2,10,9,12,8,14,4,1"
15535,commdev-image-keyboard-response,126,372681,learnblock1,598,img/planet12_right.png,12,Community 3,NA,TRUE,j,j,NA,NA,NA,1,6,"11,15,6,13,5,3,7,2,10,9,12,8,14,4,1"
15535,commdev-image-keyboard-response,127,374040,learnblock1,533,img/planet1_right.png,1,Community 3,NA,TRUE,j,j,NA,NA,NA,1,6,"11,15,6,13,5,3,7,2,10,9,12,8,14,4,1"
15535,commdev-image-keyboard-response,128,375294,learnblock1,602,img/planet14_left.png,14,Community 3,NA,TRUE,f,f,NA,NA,NA,1,6,"11,15,6,13,5,3,7,2,10,9,12,8,14,4,1"
15535,commdev-image-keyboard-response,129,376644,learnblock1,616,img/planet12_left.png,12,Community 3,NA,TRUE,f,f,NA,NA,NA,1,6,"11,15,6,13,5,3,7,2,10,9,12,8,14,4,1"
15535,commdev-image-keyboard-response,130,377896,learnblock1,549,img/planet1_right.png,1,Community 3,NA,TRUE,j,j,NA,NA,NA,1,6,"11,15,6,13,5,3,7,2,10,9,12,8,14,4,1"
15535,commdev-image-keyboard-response,131,379150,learnblock1,617,img/planet14_right.png,14,Community 3,NA,TRUE,j,j,NA,NA,NA,1,6,"11,15,6,13,5,3,7,2,10,9,12,8,14,4,1"
15535,commdev-image-keyboard-response,132,380402,learnblock1,531,img/planet12_right.png,12,Community 3,NA,TRUE,j,j,NA,NA,NA,1,6,"11,15,6,13,5,3,7,2,10,9,12,8,14,4,1"
15535,commdev-image-keyboard-response,133,381664,learnblock1,524,img/planet5_left.png,5,Community 1,NA,TRUE,f,f,NA,NA,NA,1,6,"11,15,6,13,5,3,7,2,10,9,12,8,14,4,1"
15535,commdev-image-keyboard-response,134,382916,learnblock1,532,img/planet12_left.png,12,Community 3,NA,TRUE,f,f,NA,NA,NA,1,6,"11,15,6,13,5,3,7,2,10,9,12,8,14,4,1"
15535,commdev-image-keyboard-response,135,384177,learnblock1,498,img/planet4_right.png,4,Community 3,NA,TRUE,j,j,NA,NA,NA,1,6,"11,15,6,13,5,3,7,2,10,9,12,8,14,4,1"
15535,commdev-image-keyboard-response,136,385436,learnblock1,534,img/planet14_left.png,14,Community 3,NA,TRUE,f,f,NA,NA,NA,1,6,"11,15,6,13,5,3,7,2,10,9,12,8,14,4,1"
15535,commdev-image-keyboard-response,137,386695,learnblock1,545,img/planet1_right.png,1,Community 3,NA,TRUE,j,j,NA,NA,NA,1,6,"11,15,6,13,5,3,7,2,10,9,12,8,14,4,1"
15535,commdev-image-keyboard-response,138,387952,learnblock1,570,img/planet8_left.png,8,Community 3,NA,TRUE,f,f,NA,NA,NA,1,6,"11,15,6,13,5,3,7,2,10,9,12,8,14,4,1"
15535,commdev-image-keyboard-response,139,389218,learnblock1,583,img/planet4_right.png,4,Community 3,NA,TRUE,j,j,NA,NA,NA,1,6,"11,15,6,13,5,3,7,2,10,9,12,8,14,4,1"
15535,commdev-image-keyboard-response,140,390473,learnblock1,786,img/planet8_right.png,8,Community 3,NA,TRUE,j,j,NA,NA,NA,1,6,"11,15,6,13,5,3,7,2,10,9,12,8,14,4,1"
15535,commdev-image-keyboard-response,141,391728,learnblock1,559,img/planet2_right.png,2,Community 2,NA,TRUE,j,j,NA,NA,NA,1,6,"11,15,6,13,5,3,7,2,10,9,12,8,14,4,1"
15535,commdev-image-keyboard-response,142,393046,learnblock1,558,img/planet8_left.png,8,Community 3,NA,TRUE,f,f,NA,NA,NA,1,6,"11,15,6,13,5,3,7,2,10,9,12,8,14,4,1"
15535,commdev-image-keyboard-response,143,394303,learnblock1,482,img/planet1_right.png,1,Community 3,NA,TRUE,j,j,NA,NA,NA,1,6,"11,15,6,13,5,3,7,2,10,9,12,8,14,4,1"
15535,commdev-image-keyboard-response,144,395563,learnblock1,601,img/planet4_left.png,4,Community 3,NA,TRUE,f,f,NA,NA,NA,1,6,"11,15,6,13,5,3,7,2,10,9,12,8,14,4,1"
15535,commdev-image-keyboard-response,145,396828,learnblock1,606,img/planet12_left.png,12,Community 3,NA,TRUE,f,f,NA,NA,NA,1,6,"11,15,6,13,5,3,7,2,10,9,12,8,14,4,1"
15535,commdev-image-keyboard-response,146,398080,learnblock1,445,img/planet4_left.png,4,Community 3,NA,TRUE,f,f,NA,NA,NA,1,6,"11,15,6,13,5,3,7,2,10,9,12,8,14,4,1"
15535,commdev-image-keyboard-response,147,399336,learnblock1,527,img/planet8_left.png,8,Community 3,NA,TRUE,f,f,NA,NA,NA,1,6,"11,15,6,13,5,3,7,2,10,9,12,8,14,4,1"
15535,commdev-image-keyboard-response,148,400598,learnblock1,487,img/planet4_right.png,4,Community 3,NA,TRUE,j,j,NA,NA,NA,1,6,"11,15,6,13,5,3,7,2,10,9,12,8,14,4,1"
15535,commdev-image-keyboard-response,149,401856,learnblock1,538,img/planet14_left.png,14,Community 3,NA,TRUE,f,f,NA,NA,NA,1,6,"11,15,6,13,5,3,7,2,10,9,12,8,14,4,1"
15535,commdev-image-keyboard-response,150,403115,learnblock1,569,img/planet4_left.png,4,Community 3,NA,TRUE,f,f,NA,NA,NA,1,6,"11,15,6,13,5,3,7,2,10,9,12,8,14,4,1"
15535,commdev-image-keyboard-response,151,404367,learnblock1,608,img/planet8_right.png,8,Community 3,NA,TRUE,j,j,NA,NA,NA,1,6,"11,15,6,13,5,3,7,2,10,9,12,8,14,4,1"
15535,commdev-image-keyboard-response,152,405740,learnblock1,532,img/planet14_left.png,14,Community 3,NA,TRUE,f,f,NA,NA,NA,1,6,"11,15,6,13,5,3,7,2,10,9,12,8,14,4,1"
15535,commdev-image-keyboard-response,153,406993,learnblock1,637,img/planet8_right.png,8,Community 3,NA,TRUE,j,j,NA,NA,NA,1,6,"11,15,6,13,5,3,7,2,10,9,12,8,14,4,1"
15535,commdev-image-keyboard-response,154,408390,learnblock1,567,img/planet2_right.png,2,Community 2,NA,TRUE,j,j,NA,NA,NA,1,6,"11,15,6,13,5,3,7,2,10,9,12,8,14,4,1"
15535,commdev-image-keyboard-response,155,409652,learnblock1,589,img/planet7_left.png,7,Community 2,NA,TRUE,f,f,NA,NA,NA,1,6,"11,15,6,13,5,3,7,2,10,9,12,8,14,4,1"
15535,commdev-image-keyboard-response,156,410913,learnblock1,590,img/planet2_left.png,2,Community 2,NA,TRUE,f,f,NA,NA,NA,1,6,"11,15,6,13,5,3,7,2,10,9,12,8,14,4,1"
15535,commdev-image-keyboard-response,157,412179,learnblock1,636,img/planet7_left.png,7,Community 2,NA,TRUE,f,f,NA,NA,NA,1,6,"11,15,6,13,5,3,7,2,10,9,12,8,14,4,1"
15535,commdev-image-keyboard-response,158,413442,learnblock1,545,img/planet10_left.png,10,Community 2,NA,TRUE,f,f,NA,NA,NA,1,6,"11,15,6,13,5,3,7,2,10,9,12,8,14,4,1"
15535,commdev-image-keyboard-response,159,414735,learnblock1,709,img/planet9_left.png,9,Community 2,NA,TRUE,f,f,NA,NA,NA,1,6,"11,15,6,13,5,3,7,2,10,9,12,8,14,4,1"
15535,commdev-image-keyboard-response,160,416000,learnblock1,792,img/planet3_left.png,3,Community 2,NA,TRUE,f,f,NA,NA,NA,1,6,"11,15,6,13,5,3,7,2,10,9,12,8,14,4,1"
15535,commdev-image-keyboard-response,161,417258,learnblock1,589,img/planet9_left.png,9,Community 2,NA,TRUE,f,f,NA,NA,NA,1,6,"11,15,6,13,5,3,7,2,10,9,12,8,14,4,1"
15535,commdev-image-keyboard-response,162,418522,learnblock1,486,img/planet10_left.png,10,Community 2,NA,TRUE,f,f,NA,NA,NA,1,6,"11,15,6,13,5,3,7,2,10,9,12,8,14,4,1"
15535,commdev-image-keyboard-response,163,419785,learnblock1,539,img/planet2_right.png,2,Community 2,NA,TRUE,j,j,NA,NA,NA,1,6,"11,15,6,13,5,3,7,2,10,9,12,8,14,4,1"
15535,commdev-image-keyboard-response,164,421049,learnblock1,608,img/planet10_right.png,10,Community 2,NA,TRUE,j,j,NA,NA,NA,1,6,"11,15,6,13,5,3,7,2,10,9,12,8,14,4,1"
15535,commdev-image-keyboard-response,165,422310,learnblock1,562,img/planet7_left.png,7,Community 2,NA,TRUE,f,f,NA,NA,NA,1,6,"11,15,6,13,5,3,7,2,10,9,12,8,14,4,1"
15535,commdev-image-keyboard-response,166,423569,learnblock1,572,img/planet9_right.png,9,Community 2,NA,TRUE,j,j,NA,NA,NA,1,6,"11,15,6,13,5,3,7,2,10,9,12,8,14,4,1"
15535,commdev-image-keyboard-response,167,424832,learnblock1,573,img/planet2_left.png,2,Community 2,NA,TRUE,f,f,NA,NA,NA,1,6,"11,15,6,13,5,3,7,2,10,9,12,8,14,4,1"
15535,commdev-image-keyboard-response,168,426152,learnblock1,628,img/planet10_right.png,10,Community 2,NA,TRUE,j,j,NA,NA,NA,1,6,"11,15,6,13,5,3,7,2,10,9,12,8,14,4,1"
15535,commdev-image-keyboard-response,169,427410,learnblock1,645,img/planet9_left.png,9,Community 2,NA,TRUE,f,f,NA,NA,NA,1,6,"11,15,6,13,5,3,7,2,10,9,12,8,14,4,1"
15535,commdev-image-keyboard-response,170,428806,learnblock1,610,img/planet2_right.png,2,Community 2,NA,TRUE,j,j,NA,NA,NA,1,6,"11,15,6,13,5,3,7,2,10,9,12,8,14,4,1"
15535,commdev-image-keyboard-response,171,430058,learnblock1,595,img/planet8_left.png,8,Community 3,NA,TRUE,f,f,NA,NA,NA,1,6,"11,15,6,13,5,3,7,2,10,9,12,8,14,4,1"
15535,commdev-image-keyboard-response,172,431324,learnblock1,629,img/planet1_right.png,1,Community 3,NA,TRUE,j,j,NA,NA,NA,1,6,"11,15,6,13,5,3,7,2,10,9,12,8,14,4,1"
15535,commdev-image-keyboard-response,173,432592,learnblock1,650,img/planet12_right.png,12,Community 3,NA,TRUE,j,j,NA,NA,NA,1,6,"11,15,6,13,5,3,7,2,10,9,12,8,14,4,1"
15535,commdev-image-keyboard-response,174,433849,learnblock1,596,img/planet5_right.png,5,Community 1,NA,TRUE,j,j,NA,NA,NA,1,6,"11,15,6,13,5,3,7,2,10,9,12,8,14,4,1"
15535,commdev-image-keyboard-response,175,435200,learnblock1,498,img/planet11_left.png,11,Community 1,NA,TRUE,f,f,NA,NA,NA,1,6,"11,15,6,13,5,3,7,2,10,9,12,8,14,4,1"
15535,commdev-image-keyboard-response,176,436452,learnblock1,493,img/planet5_left.png,5,Community 1,NA,TRUE,f,f,NA,NA,NA,1,6,"11,15,6,13,5,3,7,2,10,9,12,8,14,4,1"
15535,commdev-image-keyboard-response,177,437705,learnblock1,580,img/planet12_right.png,12,Community 3,NA,TRUE,j,j,NA,NA,NA,1,6,"11,15,6,13,5,3,7,2,10,9,12,8,14,4,1"
15535,commdev-image-keyboard-response,178,438972,learnblock1,610,img/planet1_right.png,1,Community 3,NA,TRUE,j,j,NA,NA,NA,1,6,"11,15,6,13,5,3,7,2,10,9,12,8,14,4,1"
15535,commdev-image-keyboard-response,179,440239,learnblock1,490,img/planet4_left.png,4,Community 3,NA,TRUE,f,f,NA,NA,NA,1,6,"11,15,6,13,5,3,7,2,10,9,12,8,14,4,1"
15535,commdev-image-keyboard-response,180,441493,learnblock1,507,img/planet14_right.png,14,Community 3,NA,TRUE,j,j,NA,NA,NA,1,6,"11,15,6,13,5,3,7,2,10,9,12,8,14,4,1"
15535,commdev-image-keyboard-response,181,442747,learnblock1,516,img/planet4_right.png,4,Community 3,NA,TRUE,j,j,NA,NA,NA,1,6,"11,15,6,13,5,3,7,2,10,9,12,8,14,4,1"
15535,commdev-image-keyboard-response,182,443999,learnblock1,760,img/planet8_right.png,8,Community 3,NA,TRUE,j,j,NA,NA,NA,1,6,"11,15,6,13,5,3,7,2,10,9,12,8,14,4,1"
15535,commdev-image-keyboard-response,183,445320,learnblock1,568,img/planet14_right.png,14,Community 3,NA,TRUE,j,j,NA,NA,NA,1,6,"11,15,6,13,5,3,7,2,10,9,12,8,14,4,1"
15535,commdev-image-keyboard-response,184,446580,learnblock1,602,img/planet1_right.png,1,Community 3,NA,TRUE,j,j,NA,NA,NA,1,6,"11,15,6,13,5,3,7,2,10,9,12,8,14,4,1"
15535,commdev-image-keyboard-response,185,447843,learnblock1,807,img/planet8_right.png,8,Community 3,NA,TRUE,j,j,NA,NA,NA,1,6,"11,15,6,13,5,3,7,2,10,9,12,8,14,4,1"
15535,commdev-image-keyboard-response,186,449102,learnblock1,653,img/planet4_right.png,4,Community 3,NA,TRUE,j,j,NA,NA,NA,1,6,"11,15,6,13,5,3,7,2,10,9,12,8,14,4,1"
15535,commdev-image-keyboard-response,187,450360,learnblock1,558,img/planet12_left.png,12,Community 3,NA,TRUE,f,f,NA,NA,NA,1,6,"11,15,6,13,5,3,7,2,10,9,12,8,14,4,1"
15535,commdev-image-keyboard-response,188,451662,learnblock1,573,img/planet4_right.png,4,Community 3,NA,TRUE,j,j,NA,NA,NA,1,6,"11,15,6,13,5,3,7,2,10,9,12,8,14,4,1"
15535,commdev-image-keyboard-response,189,453045,learnblock1,null,img/planet12_left.png,12,Community 3,NA,FALSE,null,f,NA,NA,NA,1,6,"11,15,6,13,5,3,7,2,10,9,12,8,14,4,1"
15535,commdev-image-keyboard-response,190,454298,learnblock1,1012,img/planet4_right.png,4,Community 3,NA,FALSE,f,j,NA,NA,NA,1,6,"11,15,6,13,5,3,7,2,10,9,12,8,14,4,1"
15535,commdev-image-keyboard-response,191,455555,learnblock1,529,img/planet14_left.png,14,Community 3,NA,TRUE,f,f,NA,NA,NA,1,6,"11,15,6,13,5,3,7,2,10,9,12,8,14,4,1"
15535,commdev-image-keyboard-response,192,456812,learnblock1,554,img/planet12_left.png,12,Community 3,NA,TRUE,f,f,NA,NA,NA,1,6,"11,15,6,13,5,3,7,2,10,9,12,8,14,4,1"
15535,commdev-image-keyboard-response,193,458065,learnblock1,599,img/planet5_right.png,5,Community 1,NA,TRUE,j,j,NA,NA,NA,1,6,"11,15,6,13,5,3,7,2,10,9,12,8,14,4,1"
15535,commdev-image-keyboard-response,194,459332,learnblock1,758,img/planet11_left.png,11,Community 1,NA,TRUE,f,f,NA,NA,NA,1,6,"11,15,6,13,5,3,7,2,10,9,12,8,14,4,1"
15535,commdev-image-keyboard-response,195,460584,learnblock1,509,img/planet5_left.png,5,Community 1,NA,TRUE,f,f,NA,NA,NA,1,6,"11,15,6,13,5,3,7,2,10,9,12,8,14,4,1"
15535,commdev-image-keyboard-response,196,461852,learnblock1,572,img/planet15_right.png,15,Community 1,NA,TRUE,j,j,NA,NA,NA,1,6,"11,15,6,13,5,3,7,2,10,9,12,8,14,4,1"
15535,commdev-image-keyboard-response,197,463108,learnblock1,587,img/planet5_left.png,5,Community 1,NA,TRUE,f,f,NA,NA,NA,1,6,"11,15,6,13,5,3,7,2,10,9,12,8,14,4,1"
15535,commdev-image-keyboard-response,198,464366,learnblock1,554,img/planet11_left.png,11,Community 1,NA,TRUE,f,f,NA,NA,NA,1,6,"11,15,6,13,5,3,7,2,10,9,12,8,14,4,1"
15535,commdev-image-keyboard-response,199,465622,learnblock1,558,img/planet5_left.png,5,Community 1,NA,TRUE,f,f,NA,NA,NA,1,6,"11,15,6,13,5,3,7,2,10,9,12,8,14,4,1"
15535,commdev-image-keyboard-response,200,466876,learnblock1,533,img/planet11_left.png,11,Community 1,NA,TRUE,f,f,NA,NA,NA,1,6,"11,15,6,13,5,3,7,2,10,9,12,8,14,4,1"
15535,commdev-image-keyboard-response,201,468132,learnblock1,470,img/planet5_left.png,5,Community 1,NA,TRUE,f,f,NA,NA,NA,1,6,"11,15,6,13,5,3,7,2,10,9,12,8,14,4,1"
15535,commdev-image-keyboard-response,202,469385,learnblock1,666,img/planet12_left.png,12,Community 3,NA,TRUE,f,f,NA,NA,NA,1,6,"11,15,6,13,5,3,7,2,10,9,12,8,14,4,1"
15535,commdev-image-keyboard-response,203,470639,learnblock1,549,img/planet14_left.png,14,Community 3,NA,TRUE,f,f,NA,NA,NA,1,6,"11,15,6,13,5,3,7,2,10,9,12,8,14,4,1"
15535,commdev-image-keyboard-response,204,471894,learnblock1,734,img/planet12_right.png,12,Community 3,NA,TRUE,j,j,NA,NA,NA,1,6,"11,15,6,13,5,3,7,2,10,9,12,8,14,4,1"
15535,commdev-image-keyboard-response,205,473149,learnblock1,536,img/planet4_left.png,4,Community 3,NA,TRUE,f,f,NA,NA,NA,1,6,"11,15,6,13,5,3,7,2,10,9,12,8,14,4,1"
15535,commdev-image-keyboard-response,206,474400,learnblock1,793,img/planet8_right.png,8,Community 3,NA,TRUE,j,j,NA,NA,NA,1,6,"11,15,6,13,5,3,7,2,10,9,12,8,14,4,1"
15535,commdev-image-keyboard-response,207,475657,learnblock1,655,img/planet4_right.png,4,Community 3,NA,TRUE,j,j,NA,NA,NA,1,6,"11,15,6,13,5,3,7,2,10,9,12,8,14,4,1"
15535,commdev-image-keyboard-response,208,476910,learnblock1,1001,img/planet12_right.png,12,Community 3,NA,TRUE,j,j,NA,NA,NA,1,6,"11,15,6,13,5,3,7,2,10,9,12,8,14,4,1"
15535,commdev-image-keyboard-response,209,478164,learnblock1,645,img/planet14_right.png,14,Community 3,NA,TRUE,j,j,NA,NA,NA,1,6,"11,15,6,13,5,3,7,2,10,9,12,8,14,4,1"
15535,commdev-image-keyboard-response,210,479421,learnblock1,790,img/planet8_right.png,8,Community 3,NA,TRUE,j,j,NA,NA,NA,1,6,"11,15,6,13,5,3,7,2,10,9,12,8,14,4,1"
15535,commdev-image-keyboard-response,211,480674,learnblock1,700,img/planet4_left.png,4,Community 3,NA,TRUE,f,f,NA,NA,NA,1,6,"11,15,6,13,5,3,7,2,10,9,12,8,14,4,1"
15535,commdev-image-keyboard-response,212,481928,learnblock1,641,img/planet1_right.png,1,Community 3,NA,TRUE,j,j,NA,NA,NA,1,6,"11,15,6,13,5,3,7,2,10,9,12,8,14,4,1"
15535,commdev-image-keyboard-response,213,483320,learnblock1,725,img/planet14_right.png,14,Community 3,NA,TRUE,j,j,NA,NA,NA,1,6,"11,15,6,13,5,3,7,2,10,9,12,8,14,4,1"
15535,commdev-image-keyboard-response,214,484577,learnblock1,637,img/planet12_left.png,12,Community 3,NA,TRUE,f,f,NA,NA,NA,1,6,"11,15,6,13,5,3,7,2,10,9,12,8,14,4,1"
15535,commdev-image-keyboard-response,215,485959,learnblock1,548,img/planet1_right.png,1,Community 3,NA,TRUE,j,j,NA,NA,NA,1,6,"11,15,6,13,5,3,7,2,10,9,12,8,14,4,1"
15535,commdev-image-keyboard-response,216,487210,learnblock1,682,img/planet14_right.png,14,Community 3,NA,TRUE,j,j,NA,NA,NA,1,6,"11,15,6,13,5,3,7,2,10,9,12,8,14,4,1"
15535,commdev-image-keyboard-response,217,488463,learnblock1,517,img/planet12_left.png,12,Community 3,NA,TRUE,f,f,NA,NA,NA,1,6,"11,15,6,13,5,3,7,2,10,9,12,8,14,4,1"
15535,commdev-image-keyboard-response,218,489715,learnblock1,545,img/planet5_left.png,5,Community 1,NA,TRUE,f,f,NA,NA,NA,1,6,"11,15,6,13,5,3,7,2,10,9,12,8,14,4,1"
15535,commdev-image-keyboard-response,219,491013,learnblock1,582,img/planet11_right.png,11,Community 1,NA,TRUE,j,j,NA,NA,NA,1,6,"11,15,6,13,5,3,7,2,10,9,12,8,14,4,1"
15535,commdev-image-keyboard-response,220,492266,learnblock1,671,img/planet5_right.png,5,Community 1,NA,TRUE,j,j,NA,NA,NA,1,6,"11,15,6,13,5,3,7,2,10,9,12,8,14,4,1"
15535,commdev-image-keyboard-response,221,493521,learnblock1,579,img/planet12_left.png,12,Community 3,NA,TRUE,f,f,NA,NA,NA,1,6,"11,15,6,13,5,3,7,2,10,9,12,8,14,4,1"
15535,commdev-image-keyboard-response,222,494774,learnblock1,690,img/planet4_left.png,4,Community 3,NA,TRUE,f,f,NA,NA,NA,1,6,"11,15,6,13,5,3,7,2,10,9,12,8,14,4,1"
15535,commdev-image-keyboard-response,223,496026,learnblock1,834,img/planet8_left.png,8,Community 3,NA,FALSE,j,f,NA,NA,NA,1,6,"11,15,6,13,5,3,7,2,10,9,12,8,14,4,1"
15535,commdev-image-keyboard-response,224,497282,learnblock1,599,img/planet2_right.png,2,Community 2,NA,TRUE,j,j,NA,NA,NA,1,6,"11,15,6,13,5,3,7,2,10,9,12,8,14,4,1"
15535,commdev-image-keyboard-response,225,498546,learnblock1,889,img/planet8_right.png,8,Community 3,NA,TRUE,j,j,NA,NA,NA,1,6,"11,15,6,13,5,3,7,2,10,9,12,8,14,4,1"
15535,commdev-image-keyboard-response,226,499802,learnblock1,551,img/planet1_right.png,1,Community 3,NA,TRUE,j,j,NA,NA,NA,1,6,"11,15,6,13,5,3,7,2,10,9,12,8,14,4,1"
15535,commdev-image-keyboard-response,227,501058,learnblock1,492,img/planet14_left.png,14,Community 3,NA,TRUE,f,f,NA,NA,NA,1,6,"11,15,6,13,5,3,7,2,10,9,12,8,14,4,1"
15535,commdev-image-keyboard-response,228,502311,learnblock1,620,img/planet8_left.png,8,Community 3,NA,TRUE,f,f,NA,NA,NA,1,6,"11,15,6,13,5,3,7,2,10,9,12,8,14,4,1"
15535,commdev-image-keyboard-response,229,503564,learnblock1,561,img/planet1_left.png,1,Community 3,NA,TRUE,f,f,NA,NA,NA,1,6,"11,15,6,13,5,3,7,2,10,9,12,8,14,4,1"
15535,commdev-image-keyboard-response,230,504828,learnblock1,593,img/planet12_left.png,12,Community 3,NA,TRUE,f,f,NA,NA,NA,1,6,"11,15,6,13,5,3,7,2,10,9,12,8,14,4,1"
15535,commdev-image-keyboard-response,231,506162,learnblock1,670,img/planet5_right.png,5,Community 1,NA,TRUE,j,j,NA,NA,NA,1,6,"11,15,6,13,5,3,7,2,10,9,12,8,14,4,1"
15535,commdev-image-keyboard-response,232,507428,learnblock1,817,img/planet12_right.png,12,Community 3,NA,TRUE,j,j,NA,NA,NA,1,6,"11,15,6,13,5,3,7,2,10,9,12,8,14,4,1"
15535,commdev-image-keyboard-response,233,508682,learnblock1,491,img/planet14_left.png,14,Community 3,NA,TRUE,f,f,NA,NA,NA,1,6,"11,15,6,13,5,3,7,2,10,9,12,8,14,4,1"
15535,commdev-image-keyboard-response,234,509937,learnblock1,589,img/planet12_right.png,12,Community 3,NA,TRUE,j,j,NA,NA,NA,1,6,"11,15,6,13,5,3,7,2,10,9,12,8,14,4,1"
15535,commdev-image-keyboard-response,235,511284,learnblock1,535,img/planet1_right.png,1,Community 3,NA,TRUE,j,j,NA,NA,NA,1,6,"11,15,6,13,5,3,7,2,10,9,12,8,14,4,1"
15535,commdev-image-keyboard-response,236,512540,learnblock1,503,img/planet4_right.png,4,Community 3,NA,TRUE,j,j,NA,NA,NA,1,6,"11,15,6,13,5,3,7,2,10,9,12,8,14,4,1"
15535,commdev-image-keyboard-response,237,513792,learnblock1,601,img/planet1_left.png,1,Community 3,NA,TRUE,f,f,NA,NA,NA,1,6,"11,15,6,13,5,3,7,2,10,9,12,8,14,4,1"
15535,commdev-image-keyboard-response,238,515046,learnblock1,575,img/planet4_right.png,4,Community 3,NA,TRUE,j,j,NA,NA,NA,1,6,"11,15,6,13,5,3,7,2,10,9,12,8,14,4,1"
15535,commdev-image-keyboard-response,239,516299,learnblock1,783,img/planet12_right.png,12,Community 3,NA,TRUE,j,j,NA,NA,NA,1,6,"11,15,6,13,5,3,7,2,10,9,12,8,14,4,1"
15535,commdev-image-keyboard-response,240,517552,learnblock1,529,img/planet1_right.png,1,Community 3,NA,TRUE,j,j,NA,NA,NA,1,6,"11,15,6,13,5,3,7,2,10,9,12,8,14,4,1"
15535,commdev-image-keyboard-response,241,518804,learnblock1,418,img/planet4_left.png,4,Community 3,NA,TRUE,f,f,NA,NA,NA,1,6,"11,15,6,13,5,3,7,2,10,9,12,8,14,4,1"
15535,commdev-image-keyboard-response,242,520058,learnblock1,555,img/planet8_left.png,8,Community 3,NA,TRUE,f,f,NA,NA,NA,1,6,"11,15,6,13,5,3,7,2,10,9,12,8,14,4,1"
15535,commdev-image-keyboard-response,243,521311,learnblock1,577,img/planet4_right.png,4,Community 3,NA,TRUE,j,j,NA,NA,NA,1,6,"11,15,6,13,5,3,7,2,10,9,12,8,14,4,1"
15535,commdev-image-keyboard-response,244,522562,learnblock1,640,img/planet1_left.png,1,Community 3,NA,TRUE,f,f,NA,NA,NA,1,6,"11,15,6,13,5,3,7,2,10,9,12,8,14,4,1"
15535,commdev-image-keyboard-response,245,523816,learnblock1,589,img/planet12_left.png,12,Community 3,NA,TRUE,f,f,NA,NA,NA,1,6,"11,15,6,13,5,3,7,2,10,9,12,8,14,4,1"
15535,commdev-image-keyboard-response,246,525068,learnblock1,600,img/planet5_right.png,5,Community 1,NA,TRUE,j,j,NA,NA,NA,1,6,"11,15,6,13,5,3,7,2,10,9,12,8,14,4,1"
15535,commdev-image-keyboard-response,247,526433,learnblock1,614,img/planet11_left.png,11,Community 1,NA,TRUE,f,f,NA,NA,NA,1,6,"11,15,6,13,5,3,7,2,10,9,12,8,14,4,1"
15535,commdev-image-keyboard-response,248,527688,learnblock1,629,img/planet15_right.png,15,Community 1,NA,TRUE,j,j,NA,NA,NA,1,6,"11,15,6,13,5,3,7,2,10,9,12,8,14,4,1"
15535,commdev-image-keyboard-response,249,528940,learnblock1,698,img/planet11_left.png,11,Community 1,NA,TRUE,f,f,NA,NA,NA,1,6,"11,15,6,13,5,3,7,2,10,9,12,8,14,4,1"
15535,commdev-image-keyboard-response,250,530194,learnblock1,654,img/planet6_left.png,6,Community 1,NA,TRUE,f,f,NA,NA,NA,1,6,"11,15,6,13,5,3,7,2,10,9,12,8,14,4,1"
15535,commdev-image-keyboard-response,251,531447,learnblock1,533,img/planet11_right.png,11,Community 1,NA,TRUE,j,j,NA,NA,NA,1,6,"11,15,6,13,5,3,7,2,10,9,12,8,14,4,1"
15535,commdev-image-keyboard-response,252,532734,learnblock1,747,img/planet6_right.png,6,Community 1,NA,TRUE,j,j,NA,NA,NA,1,6,"11,15,6,13,5,3,7,2,10,9,12,8,14,4,1"
15535,commdev-image-keyboard-response,253,533999,learnblock1,564,img/planet11_right.png,11,Community 1,NA,TRUE,j,j,NA,NA,NA,1,6,"11,15,6,13,5,3,7,2,10,9,12,8,14,4,1"
15535,commdev-image-keyboard-response,254,535303,learnblock1,648,img/planet15_right.png,15,Community 1,NA,TRUE,j,j,NA,NA,NA,1,6,"11,15,6,13,5,3,7,2,10,9,12,8,14,4,1"
15535,commdev-image-keyboard-response,255,536556,learnblock1,614,img/planet5_left.png,5,Community 1,NA,TRUE,f,f,NA,NA,NA,1,6,"11,15,6,13,5,3,7,2,10,9,12,8,14,4,1"
15535,commdev-image-keyboard-response,256,537929,learnblock1,571,img/planet15_right.png,15,Community 1,NA,TRUE,j,j,NA,NA,NA,1,6,"11,15,6,13,5,3,7,2,10,9,12,8,14,4,1"
15535,commdev-image-keyboard-response,257,539189,learnblock1,637,img/planet11_left.png,11,Community 1,NA,TRUE,f,f,NA,NA,NA,1,6,"11,15,6,13,5,3,7,2,10,9,12,8,14,4,1"
15535,commdev-image-keyboard-response,258,540580,learnblock1,609,img/planet6_right.png,6,Community 1,NA,TRUE,j,j,NA,NA,NA,1,6,"11,15,6,13,5,3,7,2,10,9,12,8,14,4,1"
15535,commdev-image-keyboard-response,259,541839,learnblock1,655,img/planet13_left.png,13,Community 1,NA,TRUE,f,f,NA,NA,NA,1,6,"11,15,6,13,5,3,7,2,10,9,12,8,14,4,1"
15535,commdev-image-keyboard-response,260,543095,learnblock1,562,img/planet15_right.png,15,Community 1,NA,TRUE,j,j,NA,NA,NA,1,6,"11,15,6,13,5,3,7,2,10,9,12,8,14,4,1"
15535,commdev-image-keyboard-response,261,544347,learnblock1,611,img/planet13_right.png,13,Community 1,NA,TRUE,j,j,NA,NA,NA,1,6,"11,15,6,13,5,3,7,2,10,9,12,8,14,4,1"
15535,commdev-image-keyboard-response,262,545609,learnblock1,624,img/planet3_right.png,3,Community 2,NA,TRUE,j,j,NA,NA,NA,1,6,"11,15,6,13,5,3,7,2,10,9,12,8,14,4,1"
15535,commdev-image-keyboard-response,263,546869,learnblock1,543,img/planet10_right.png,10,Community 2,NA,TRUE,j,j,NA,NA,NA,1,6,"11,15,6,13,5,3,7,2,10,9,12,8,14,4,1"
15535,commdev-image-keyboard-response,264,548122,learnblock1,673,img/planet7_right.png,7,Community 2,NA,TRUE,j,j,NA,NA,NA,1,6,"11,15,6,13,5,3,7,2,10,9,12,8,14,4,1"
15535,commdev-image-keyboard-response,265,549377,learnblock1,569,img/planet3_left.png,3,Community 2,NA,TRUE,f,f,NA,NA,NA,1,6,"11,15,6,13,5,3,7,2,10,9,12,8,14,4,1"
15535,commdev-image-keyboard-response,266,550628,learnblock1,569,img/planet7_right.png,7,Community 2,NA,TRUE,j,j,NA,NA,NA,1,6,"11,15,6,13,5,3,7,2,10,9,12,8,14,4,1"
15535,commdev-image-keyboard-response,267,551950,learnblock1,574,img/planet3_left.png,3,Community 2,NA,TRUE,f,f,NA,NA,NA,1,6,"11,15,6,13,5,3,7,2,10,9,12,8,14,4,1"
15535,commdev-image-keyboard-response,268,553216,learnblock1,641,img/planet9_right.png,9,Community 2,NA,TRUE,j,j,NA,NA,NA,1,6,"11,15,6,13,5,3,7,2,10,9,12,8,14,4,1"
15535,commdev-image-keyboard-response,269,554470,learnblock1,633,img/planet10_left.png,10,Community 2,NA,TRUE,f,f,NA,NA,NA,1,6,"11,15,6,13,5,3,7,2,10,9,12,8,14,4,1"
15535,commdev-image-keyboard-response,270,555734,learnblock1,729,img/planet2_left.png,2,Community 2,NA,TRUE,f,f,NA,NA,NA,1,6,"11,15,6,13,5,3,7,2,10,9,12,8,14,4,1"
15535,commdev-image-keyboard-response,271,556993,learnblock1,749,img/planet9_left.png,9,Community 2,NA,TRUE,f,f,NA,NA,NA,1,6,"11,15,6,13,5,3,7,2,10,9,12,8,14,4,1"
15535,commdev-image-keyboard-response,272,558256,learnblock1,628,img/planet10_right.png,10,Community 2,NA,TRUE,j,j,NA,NA,NA,1,6,"11,15,6,13,5,3,7,2,10,9,12,8,14,4,1"
15535,commdev-image-keyboard-response,273,559509,learnblock1,658,img/planet2_right.png,2,Community 2,NA,TRUE,j,j,NA,NA,NA,1,6,"11,15,6,13,5,3,7,2,10,9,12,8,14,4,1"
15535,commdev-image-keyboard-response,274,560927,learnblock1,974,img/planet9_right.png,9,Community 2,NA,TRUE,j,j,NA,NA,NA,1,6,"11,15,6,13,5,3,7,2,10,9,12,8,14,4,1"
15535,commdev-image-keyboard-response,275,562184,learnblock1,681,img/planet7_right.png,7,Community 2,NA,TRUE,j,j,NA,NA,NA,1,6,"11,15,6,13,5,3,7,2,10,9,12,8,14,4,1"
15535,commdev-image-keyboard-response,276,563443,learnblock1,551,img/planet10_right.png,10,Community 2,NA,TRUE,j,j,NA,NA,NA,1,6,"11,15,6,13,5,3,7,2,10,9,12,8,14,4,1"
15535,commdev-image-keyboard-response,277,564703,learnblock1,561,img/planet3_right.png,3,Community 2,NA,TRUE,j,j,NA,NA,NA,1,6,"11,15,6,13,5,3,7,2,10,9,12,8,14,4,1"
15535,commdev-image-keyboard-response,278,566020,learnblock1,641,img/planet9_left.png,9,Community 2,NA,TRUE,f,f,NA,NA,NA,1,6,"11,15,6,13,5,3,7,2,10,9,12,8,14,4,1"
15535,commdev-image-keyboard-response,279,567272,learnblock1,591,img/planet3_left.png,3,Community 2,NA,TRUE,f,f,NA,NA,NA,1,6,"11,15,6,13,5,3,7,2,10,9,12,8,14,4,1"
15535,commdev-image-keyboard-response,280,568623,learnblock1,577,img/planet7_left.png,7,Community 2,NA,TRUE,f,f,NA,NA,NA,1,6,"11,15,6,13,5,3,7,2,10,9,12,8,14,4,1"
15535,commdev-image-keyboard-response,281,569879,learnblock1,724,img/planet3_left.png,3,Community 2,NA,TRUE,f,f,NA,NA,NA,1,6,"11,15,6,13,5,3,7,2,10,9,12,8,14,4,1"
15535,commdev-image-keyboard-response,282,571131,learnblock1,557,img/planet13_left.png,13,Community 1,NA,TRUE,f,f,NA,NA,NA,1,6,"11,15,6,13,5,3,7,2,10,9,12,8,14,4,1"
15535,commdev-image-keyboard-response,283,572384,learnblock1,677,img/planet6_left.png,6,Community 1,NA,TRUE,f,f,NA,NA,NA,1,6,"11,15,6,13,5,3,7,2,10,9,12,8,14,4,1"
15535,commdev-image-keyboard-response,284,573634,learnblock1,517,img/planet11_left.png,11,Community 1,NA,TRUE,f,f,NA,NA,NA,1,6,"11,15,6,13,5,3,7,2,10,9,12,8,14,4,1"
15535,commdev-image-keyboard-response,285,574893,learnblock1,560,img/planet15_right.png,15,Community 1,NA,TRUE,j,j,NA,NA,NA,1,6,"11,15,6,13,5,3,7,2,10,9,12,8,14,4,1"
15535,commdev-image-keyboard-response,286,576144,learnblock1,765,img/planet11_right.png,11,Community 1,NA,TRUE,j,j,NA,NA,NA,1,6,"11,15,6,13,5,3,7,2,10,9,12,8,14,4,1"
15535,commdev-image-keyboard-response,287,577397,learnblock1,701,img/planet6_right.png,6,Community 1,NA,TRUE,j,j,NA,NA,NA,1,6,"11,15,6,13,5,3,7,2,10,9,12,8,14,4,1"
15535,commdev-image-keyboard-response,288,578649,learnblock1,736,img/planet13_left.png,13,Community 1,NA,TRUE,f,f,NA,NA,NA,1,6,"11,15,6,13,5,3,7,2,10,9,12,8,14,4,1"
15535,commdev-image-keyboard-response,289,579904,learnblock1,631,img/planet11_right.png,11,Community 1,NA,TRUE,j,j,NA,NA,NA,1,6,"11,15,6,13,5,3,7,2,10,9,12,8,14,4,1"
15535,commdev-image-keyboard-response,290,581155,learnblock1,714,img/planet13_right.png,13,Community 1,NA,TRUE,j,j,NA,NA,NA,1,6,"11,15,6,13,5,3,7,2,10,9,12,8,14,4,1"
15535,commdev-image-keyboard-response,291,582408,learnblock1,618,img/planet15_left.png,15,Community 1,NA,TRUE,f,f,NA,NA,NA,1,6,"11,15,6,13,5,3,7,2,10,9,12,8,14,4,1"
15535,commdev-image-keyboard-response,292,583660,learnblock1,510,img/planet6_right.png,6,Community 1,NA,TRUE,j,j,NA,NA,NA,1,6,"11,15,6,13,5,3,7,2,10,9,12,8,14,4,1"
15535,commdev-image-keyboard-response,293,584926,learnblock1,614,img/planet11_left.png,11,Community 1,NA,TRUE,f,f,NA,NA,NA,1,6,"11,15,6,13,5,3,7,2,10,9,12,8,14,4,1"
15535,commdev-image-keyboard-response,294,586177,learnblock1,548,img/planet15_right.png,15,Community 1,NA,TRUE,j,j,NA,NA,NA,1,6,"11,15,6,13,5,3,7,2,10,9,12,8,14,4,1"
15535,commdev-image-keyboard-response,295,587478,learnblock1,567,img/planet11_right.png,11,Community 1,NA,TRUE,j,j,NA,NA,NA,1,6,"11,15,6,13,5,3,7,2,10,9,12,8,14,4,1"
15535,commdev-image-keyboard-response,296,588732,learnblock1,540,img/planet15_right.png,15,Community 1,NA,TRUE,j,j,NA,NA,NA,1,6,"11,15,6,13,5,3,7,2,10,9,12,8,14,4,1"
15535,commdev-image-keyboard-response,297,590032,learnblock1,523,img/planet6_right.png,6,Community 1,NA,TRUE,j,j,NA,NA,NA,1,6,"11,15,6,13,5,3,7,2,10,9,12,8,14,4,1"
15535,commdev-image-keyboard-response,298,591284,learnblock1,661,img/planet13_right.png,13,Community 1,NA,TRUE,j,j,NA,NA,NA,1,6,"11,15,6,13,5,3,7,2,10,9,12,8,14,4,1"
15535,commdev-image-keyboard-response,299,592535,learnblock1,709,img/planet15_left.png,15,Community 1,NA,TRUE,f,f,NA,NA,NA,1,6,"11,15,6,13,5,3,7,2,10,9,12,8,14,4,1"
15535,commdev-image-keyboard-response,300,593785,learnblock1,540,img/planet5_right.png,5,Community 1,NA,TRUE,j,j,NA,NA,NA,1,6,"11,15,6,13,5,3,7,2,10,9,12,8,14,4,1"
15535,commdev-image-keyboard-response,301,595039,learnblock1,551,img/planet6_right.png,6,Community 1,NA,TRUE,j,j,NA,NA,NA,1,6,"11,15,6,13,5,3,7,2,10,9,12,8,14,4,1"
15535,commdev-image-keyboard-response,302,596337,learnblock1,680,img/planet13_right.png,13,Community 1,NA,TRUE,j,j,NA,NA,NA,1,6,"11,15,6,13,5,3,7,2,10,9,12,8,14,4,1"
15535,commdev-image-keyboard-response,303,597589,learnblock1,608,img/planet6_left.png,6,Community 1,NA,TRUE,f,f,NA,NA,NA,1,6,"11,15,6,13,5,3,7,2,10,9,12,8,14,4,1"
15535,commdev-image-keyboard-response,304,598951,learnblock1,617,img/planet15_left.png,15,Community 1,NA,TRUE,f,f,NA,NA,NA,1,6,"11,15,6,13,5,3,7,2,10,9,12,8,14,4,1"
15535,commdev-image-keyboard-response,305,600202,learnblock1,564,img/planet6_right.png,6,Community 1,NA,TRUE,j,j,NA,NA,NA,1,6,"11,15,6,13,5,3,7,2,10,9,12,8,14,4,1"
15535,commdev-image-keyboard-response,306,601518,learnblock1,758,img/planet13_right.png,13,Community 1,NA,TRUE,j,j,NA,NA,NA,1,6,"11,15,6,13,5,3,7,2,10,9,12,8,14,4,1"
15535,commdev-image-keyboard-response,307,602770,learnblock1,571,img/planet3_right.png,3,Community 2,NA,TRUE,j,j,NA,NA,NA,1,6,"11,15,6,13,5,3,7,2,10,9,12,8,14,4,1"
15535,commdev-image-keyboard-response,308,604100,learnblock1,613,img/planet9_left.png,9,Community 2,NA,TRUE,f,f,NA,NA,NA,1,6,"11,15,6,13,5,3,7,2,10,9,12,8,14,4,1"
15535,commdev-image-keyboard-response,309,605351,learnblock1,670,img/planet7_left.png,7,Community 2,NA,TRUE,f,f,NA,NA,NA,1,6,"11,15,6,13,5,3,7,2,10,9,12,8,14,4,1"
15535,commdev-image-keyboard-response,310,606605,learnblock1,824,img/planet2_left.png,2,Community 2,NA,TRUE,f,f,NA,NA,NA,1,6,"11,15,6,13,5,3,7,2,10,9,12,8,14,4,1"
15535,commdev-image-keyboard-response,311,607869,learnblock1,540,img/planet10_left.png,10,Community 2,NA,TRUE,f,f,NA,NA,NA,1,6,"11,15,6,13,5,3,7,2,10,9,12,8,14,4,1"
15535,commdev-image-keyboard-response,312,609120,learnblock1,579,img/planet9_right.png,9,Community 2,NA,TRUE,j,j,NA,NA,NA,1,6,"11,15,6,13,5,3,7,2,10,9,12,8,14,4,1"
15535,commdev-image-keyboard-response,313,610455,learnblock1,592,img/planet2_left.png,2,Community 2,NA,TRUE,f,f,NA,NA,NA,1,6,"11,15,6,13,5,3,7,2,10,9,12,8,14,4,1"
15535,commdev-image-keyboard-response,314,611708,learnblock1,592,img/planet10_right.png,10,Community 2,NA,FALSE,f,j,NA,NA,NA,1,6,"11,15,6,13,5,3,7,2,10,9,12,8,14,4,1"
15535,commdev-image-keyboard-response,315,613056,learnblock1,731,img/planet7_right.png,7,Community 2,NA,TRUE,j,j,NA,NA,NA,1,6,"11,15,6,13,5,3,7,2,10,9,12,8,14,4,1"
15535,commdev-image-keyboard-response,316,614308,learnblock1,655,img/planet2_right.png,2,Community 2,NA,TRUE,j,j,NA,NA,NA,1,6,"11,15,6,13,5,3,7,2,10,9,12,8,14,4,1"
15535,commdev-image-keyboard-response,317,615717,learnblock1,616,img/planet8_left.png,8,Community 3,NA,TRUE,f,f,NA,NA,NA,1,6,"11,15,6,13,5,3,7,2,10,9,12,8,14,4,1"
15535,commdev-image-keyboard-response,318,616973,learnblock1,825,img/planet4_left.png,4,Community 3,NA,TRUE,f,f,NA,NA,NA,1,6,"11,15,6,13,5,3,7,2,10,9,12,8,14,4,1"
15535,commdev-image-keyboard-response,319,618227,learnblock1,557,img/planet1_left.png,1,Community 3,NA,TRUE,f,f,NA,NA,NA,1,6,"11,15,6,13,5,3,7,2,10,9,12,8,14,4,1"
15535,commdev-image-keyboard-response,320,619479,learnblock1,538,img/planet12_left.png,12,Community 3,NA,TRUE,f,f,NA,NA,NA,1,6,"11,15,6,13,5,3,7,2,10,9,12,8,14,4,1"
15535,commdev-image-keyboard-response,321,620779,learnblock1,577,img/planet1_right.png,1,Community 3,NA,TRUE,j,j,NA,NA,NA,1,6,"11,15,6,13,5,3,7,2,10,9,12,8,14,4,1"
15535,commdev-image-keyboard-response,322,622033,learnblock1,573,img/planet8_left.png,8,Community 3,NA,TRUE,f,f,NA,NA,NA,1,6,"11,15,6,13,5,3,7,2,10,9,12,8,14,4,1"
15535,commdev-image-keyboard-response,323,623364,learnblock1,706,img/planet2_right.png,2,Community 2,NA,TRUE,j,j,NA,NA,NA,1,6,"11,15,6,13,5,3,7,2,10,9,12,8,14,4,1"
15535,commdev-image-keyboard-response,324,624617,learnblock1,772,img/planet7_right.png,7,Community 2,NA,TRUE,j,j,NA,NA,NA,1,6,"11,15,6,13,5,3,7,2,10,9,12,8,14,4,1"
15535,commdev-image-keyboard-response,325,625873,learnblock1,564,img/planet10_right.png,10,Community 2,NA,TRUE,j,j,NA,NA,NA,1,6,"11,15,6,13,5,3,7,2,10,9,12,8,14,4,1"
15535,commdev-image-keyboard-response,326,627126,learnblock1,618,img/planet2_right.png,2,Community 2,NA,TRUE,j,j,NA,NA,NA,1,6,"11,15,6,13,5,3,7,2,10,9,12,8,14,4,1"
15535,commdev-image-keyboard-response,327,628377,learnblock1,733,img/planet7_left.png,7,Community 2,NA,TRUE,f,f,NA,NA,NA,1,6,"11,15,6,13,5,3,7,2,10,9,12,8,14,4,1"
15535,commdev-image-keyboard-response,328,629644,learnblock1,761,img/planet10_right.png,10,Community 2,NA,TRUE,j,j,NA,NA,NA,1,6,"11,15,6,13,5,3,7,2,10,9,12,8,14,4,1"
15535,commdev-image-keyboard-response,329,630910,learnblock1,697,img/planet7_left.png,7,Community 2,NA,TRUE,f,f,NA,NA,NA,1,6,"11,15,6,13,5,3,7,2,10,9,12,8,14,4,1"
15535,commdev-image-keyboard-response,330,632162,learnblock1,677,img/planet2_left.png,2,Community 2,NA,TRUE,f,f,NA,NA,NA,1,6,"11,15,6,13,5,3,7,2,10,9,12,8,14,4,1"
15535,commdev-image-keyboard-response,331,633413,learnblock1,641,img/planet8_left.png,8,Community 3,NA,TRUE,f,f,NA,NA,NA,1,6,"11,15,6,13,5,3,7,2,10,9,12,8,14,4,1"
15535,commdev-image-keyboard-response,332,634808,learnblock1,558,img/planet2_right.png,2,Community 2,NA,TRUE,j,j,NA,NA,NA,1,6,"11,15,6,13,5,3,7,2,10,9,12,8,14,4,1"
15535,commdev-image-keyboard-response,333,636060,learnblock1,965,img/planet9_left.png,9,Community 2,NA,TRUE,f,f,NA,NA,NA,1,6,"11,15,6,13,5,3,7,2,10,9,12,8,14,4,1"
15535,commdev-image-keyboard-response,334,637315,learnblock1,625,img/planet3_left.png,3,Community 2,NA,TRUE,f,f,NA,NA,NA,1,6,"11,15,6,13,5,3,7,2,10,9,12,8,14,4,1"
15535,commdev-image-keyboard-response,335,638567,learnblock1,659,img/planet9_right.png,9,Community 2,NA,TRUE,j,j,NA,NA,NA,1,6,"11,15,6,13,5,3,7,2,10,9,12,8,14,4,1"
15535,commdev-image-keyboard-response,336,639824,learnblock1,940,img/planet7_right.png,7,Community 2,NA,TRUE,j,j,NA,NA,NA,1,6,"11,15,6,13,5,3,7,2,10,9,12,8,14,4,1"
15535,commdev-image-keyboard-response,337,641077,learnblock1,584,img/planet2_left.png,2,Community 2,NA,TRUE,f,f,NA,NA,NA,1,6,"11,15,6,13,5,3,7,2,10,9,12,8,14,4,1"
15535,commdev-image-keyboard-response,338,642330,learnblock1,832,img/planet9_left.png,9,Community 2,NA,TRUE,f,f,NA,NA,NA,1,6,"11,15,6,13,5,3,7,2,10,9,12,8,14,4,1"
15535,commdev-image-keyboard-response,339,643585,learnblock1,574,img/planet3_right.png,3,Community 2,NA,TRUE,j,j,NA,NA,NA,1,6,"11,15,6,13,5,3,7,2,10,9,12,8,14,4,1"
15535,commdev-image-keyboard-response,340,644841,learnblock1,802,img/planet13_left.png,13,Community 1,NA,TRUE,f,f,NA,NA,NA,1,6,"11,15,6,13,5,3,7,2,10,9,12,8,14,4,1"
15535,commdev-image-keyboard-response,341,646108,learnblock1,null,img/planet6_left.png,6,Community 1,NA,FALSE,null,f,NA,NA,NA,1,6,"11,15,6,13,5,3,7,2,10,9,12,8,14,4,1"
15535,commdev-image-keyboard-response,342,647362,learnblock1,107,img/planet15_right.png,15,Community 1,NA,FALSE,f,j,NA,NA,NA,1,6,"11,15,6,13,5,3,7,2,10,9,12,8,14,4,1"
15535,commdev-image-keyboard-response,343,648612,learnblock1,572,img/planet6_left.png,6,Community 1,NA,TRUE,f,f,NA,NA,NA,1,6,"11,15,6,13,5,3,7,2,10,9,12,8,14,4,1"
15535,commdev-image-keyboard-response,344,649864,learnblock1,539,img/planet13_right.png,13,Community 1,NA,TRUE,j,j,NA,NA,NA,1,6,"11,15,6,13,5,3,7,2,10,9,12,8,14,4,1"
15535,commdev-image-keyboard-response,345,651128,learnblock1,696,img/planet3_left.png,3,Community 2,NA,TRUE,f,f,NA,NA,NA,1,6,"11,15,6,13,5,3,7,2,10,9,12,8,14,4,1"
15535,commdev-image-keyboard-response,346,652394,learnblock1,587,img/planet9_right.png,9,Community 2,NA,TRUE,j,j,NA,NA,NA,1,6,"11,15,6,13,5,3,7,2,10,9,12,8,14,4,1"
15535,commdev-image-keyboard-response,347,653646,learnblock1,536,img/planet3_left.png,3,Community 2,NA,TRUE,f,f,NA,NA,NA,1,6,"11,15,6,13,5,3,7,2,10,9,12,8,14,4,1"
15535,commdev-image-keyboard-response,351,1193955,learnblock2,745,img/planet9_left.png,9,Community 2,NA,TRUE,f,f,NA,NA,NA,1,6,"11,15,6,13,5,3,7,2,10,9,12,8,14,4,1"
15535,commdev-image-keyboard-response,352,1195207,learnblock2,532,img/planet10_left.png,10,Community 2,NA,TRUE,f,f,NA,NA,NA,1,6,"11,15,6,13,5,3,7,2,10,9,12,8,14,4,1"
15535,commdev-image-keyboard-response,353,1196458,learnblock2,502,img/planet2_left.png,2,Community 2,NA,TRUE,f,f,NA,NA,NA,1,6,"11,15,6,13,5,3,7,2,10,9,12,8,14,4,1"
15535,commdev-image-keyboard-response,354,1197714,learnblock2,537,img/planet10_right.png,10,Community 2,NA,TRUE,j,j,NA,NA,NA,1,6,"11,15,6,13,5,3,7,2,10,9,12,8,14,4,1"
15535,commdev-image-keyboard-response,355,1198967,learnblock2,598,img/planet2_right.png,2,Community 2,NA,TRUE,j,j,NA,NA,NA,1,6,"11,15,6,13,5,3,7,2,10,9,12,8,14,4,1"
15535,commdev-image-keyboard-response,356,1200222,learnblock2,550,img/planet9_left.png,9,Community 2,NA,TRUE,f,f,NA,NA,NA,1,6,"11,15,6,13,5,3,7,2,10,9,12,8,14,4,1"
15535,commdev-image-keyboard-response,357,1201476,learnblock2,498,img/planet10_left.png,10,Community 2,NA,TRUE,f,f,NA,NA,NA,1,6,"11,15,6,13,5,3,7,2,10,9,12,8,14,4,1"
15535,commdev-image-keyboard-response,358,1202741,learnblock2,441,img/planet9_right.png,9,Community 2,NA,TRUE,j,j,NA,NA,NA,1,6,"11,15,6,13,5,3,7,2,10,9,12,8,14,4,1"
15535,commdev-image-keyboard-response,359,1203994,learnblock2,539,img/planet3_right.png,3,Community 2,NA,TRUE,j,j,NA,NA,NA,1,6,"11,15,6,13,5,3,7,2,10,9,12,8,14,4,1"
15535,commdev-image-keyboard-response,360,1205248,learnblock2,613,img/planet7_left.png,7,Community 2,NA,TRUE,f,f,NA,NA,NA,1,6,"11,15,6,13,5,3,7,2,10,9,12,8,14,4,1"
15535,commdev-image-keyboard-response,361,1206500,learnblock2,629,img/planet9_right.png,9,Community 2,NA,TRUE,j,j,NA,NA,NA,1,6,"11,15,6,13,5,3,7,2,10,9,12,8,14,4,1"
15535,commdev-image-keyboard-response,362,1207753,learnblock2,680,img/planet2_left.png,2,Community 2,NA,TRUE,f,f,NA,NA,NA,1,6,"11,15,6,13,5,3,7,2,10,9,12,8,14,4,1"
15535,commdev-image-keyboard-response,363,1209007,learnblock2,657,img/planet9_right.png,9,Community 2,NA,TRUE,j,j,NA,NA,NA,1,6,"11,15,6,13,5,3,7,2,10,9,12,8,14,4,1"
15535,commdev-image-keyboard-response,364,1210260,learnblock2,808,img/planet2_right.png,2,Community 2,NA,TRUE,j,j,NA,NA,NA,1,6,"11,15,6,13,5,3,7,2,10,9,12,8,14,4,1"
15535,commdev-image-keyboard-response,365,1211517,learnblock2,591,img/planet7_left.png,7,Community 2,NA,TRUE,f,f,NA,NA,NA,1,6,"11,15,6,13,5,3,7,2,10,9,12,8,14,4,1"
15535,commdev-image-keyboard-response,366,1212772,learnblock2,757,img/planet3_left.png,3,Community 2,NA,TRUE,f,f,NA,NA,NA,1,6,"11,15,6,13,5,3,7,2,10,9,12,8,14,4,1"
15535,commdev-image-keyboard-response,367,1214027,learnblock2,549,img/planet9_right.png,9,Community 2,NA,TRUE,j,j,NA,NA,NA,1,6,"11,15,6,13,5,3,7,2,10,9,12,8,14,4,1"
15535,commdev-image-keyboard-response,368,1215284,learnblock2,843,img/planet10_right.png,10,Community 2,NA,TRUE,j,j,NA,NA,NA,1,6,"11,15,6,13,5,3,7,2,10,9,12,8,14,4,1"
15535,commdev-image-keyboard-response,369,1216536,learnblock2,634,img/planet2_left.png,2,Community 2,NA,TRUE,f,f,NA,NA,NA,1,6,"11,15,6,13,5,3,7,2,10,9,12,8,14,4,1"
15535,commdev-image-keyboard-response,370,1217788,learnblock2,801,img/planet7_left.png,7,Community 2,NA,TRUE,f,f,NA,NA,NA,1,6,"11,15,6,13,5,3,7,2,10,9,12,8,14,4,1"
15535,commdev-image-keyboard-response,371,1219042,learnblock2,559,img/planet2_left.png,2,Community 2,NA,TRUE,f,f,NA,NA,NA,1,6,"11,15,6,13,5,3,7,2,10,9,12,8,14,4,1"
15535,commdev-image-keyboard-response,372,1220298,learnblock2,715,img/planet8_left.png,8,Community 3,NA,TRUE,f,f,NA,NA,NA,1,6,"11,15,6,13,5,3,7,2,10,9,12,8,14,4,1"
15535,commdev-image-keyboard-response,373,1221550,learnblock2,590,img/planet4_left.png,4,Community 3,NA,TRUE,f,f,NA,NA,NA,1,6,"11,15,6,13,5,3,7,2,10,9,12,8,14,4,1"
15535,commdev-image-keyboard-response,374,1222806,learnblock2,527,img/planet12_left.png,12,Community 3,NA,TRUE,f,f,NA,NA,NA,1,6,"11,15,6,13,5,3,7,2,10,9,12,8,14,4,1"
15535,commdev-image-keyboard-response,375,1224088,learnblock2,481,img/planet1_left.png,1,Community 3,NA,TRUE,f,f,NA,NA,NA,1,6,"11,15,6,13,5,3,7,2,10,9,12,8,14,4,1"
15535,commdev-image-keyboard-response,376,1225342,learnblock2,510,img/planet12_left.png,12,Community 3,NA,TRUE,f,f,NA,NA,NA,1,6,"11,15,6,13,5,3,7,2,10,9,12,8,14,4,1"
15535,commdev-image-keyboard-response,377,1226595,learnblock2,579,img/planet5_right.png,5,Community 1,NA,TRUE,j,j,NA,NA,NA,1,6,"11,15,6,13,5,3,7,2,10,9,12,8,14,4,1"
15535,commdev-image-keyboard-response,378,1227860,learnblock2,614,img/planet11_left.png,11,Community 1,NA,TRUE,f,f,NA,NA,NA,1,6,"11,15,6,13,5,3,7,2,10,9,12,8,14,4,1"
15535,commdev-image-keyboard-response,379,1229111,learnblock2,639,img/planet5_left.png,5,Community 1,NA,TRUE,f,f,NA,NA,NA,1,6,"11,15,6,13,5,3,7,2,10,9,12,8,14,4,1"
15535,commdev-image-keyboard-response,380,1230506,learnblock2,671,img/planet11_right.png,11,Community 1,NA,TRUE,j,j,NA,NA,NA,1,6,"11,15,6,13,5,3,7,2,10,9,12,8,14,4,1"
15535,commdev-image-keyboard-response,381,1231760,learnblock2,514,img/planet15_right.png,15,Community 1,NA,TRUE,j,j,NA,NA,NA,1,6,"11,15,6,13,5,3,7,2,10,9,12,8,14,4,1"
15535,commdev-image-keyboard-response,382,1233013,learnblock2,546,img/planet11_right.png,11,Community 1,NA,TRUE,j,j,NA,NA,NA,1,6,"11,15,6,13,5,3,7,2,10,9,12,8,14,4,1"
15535,commdev-image-keyboard-response,383,1234265,learnblock2,542,img/planet15_left.png,15,Community 1,NA,TRUE,f,f,NA,NA,NA,1,6,"11,15,6,13,5,3,7,2,10,9,12,8,14,4,1"
15535,commdev-image-keyboard-response,384,1235529,learnblock2,467,img/planet11_left.png,11,Community 1,NA,TRUE,f,f,NA,NA,NA,1,6,"11,15,6,13,5,3,7,2,10,9,12,8,14,4,1"
15535,commdev-image-keyboard-response,385,1236780,learnblock2,605,img/planet13_left.png,13,Community 1,NA,TRUE,f,f,NA,NA,NA,1,6,"11,15,6,13,5,3,7,2,10,9,12,8,14,4,1"
15535,commdev-image-keyboard-response,386,1238032,learnblock2,618,img/planet11_left.png,11,Community 1,NA,TRUE,f,f,NA,NA,NA,1,6,"11,15,6,13,5,3,7,2,10,9,12,8,14,4,1"
15535,commdev-image-keyboard-response,387,1239287,learnblock2,557,img/planet6_left.png,6,Community 1,NA,TRUE,f,f,NA,NA,NA,1,6,"11,15,6,13,5,3,7,2,10,9,12,8,14,4,1"
15535,commdev-image-keyboard-response,388,1240542,learnblock2,558,img/planet13_left.png,13,Community 1,NA,TRUE,f,f,NA,NA,NA,1,6,"11,15,6,13,5,3,7,2,10,9,12,8,14,4,1"
15535,commdev-image-keyboard-response,389,1241859,learnblock2,532,img/planet15_left.png,15,Community 1,NA,TRUE,f,f,NA,NA,NA,1,6,"11,15,6,13,5,3,7,2,10,9,12,8,14,4,1"
15535,commdev-image-keyboard-response,390,1243111,learnblock2,530,img/planet5_right.png,5,Community 1,NA,FALSE,f,j,NA,NA,NA,1,6,"11,15,6,13,5,3,7,2,10,9,12,8,14,4,1"
15535,commdev-image-keyboard-response,391,1244364,learnblock2,713,img/planet15_left.png,15,Community 1,NA,TRUE,f,f,NA,NA,NA,1,6,"11,15,6,13,5,3,7,2,10,9,12,8,14,4,1"
15535,commdev-image-keyboard-response,392,1245698,learnblock2,640,img/planet5_right.png,5,Community 1,NA,TRUE,j,j,NA,NA,NA,1,6,"11,15,6,13,5,3,7,2,10,9,12,8,14,4,1"
15535,commdev-image-keyboard-response,393,1246950,learnblock2,476,img/planet12_left.png,12,Community 3,NA,TRUE,f,f,NA,NA,NA,1,6,"11,15,6,13,5,3,7,2,10,9,12,8,14,4,1"
15535,commdev-image-keyboard-response,394,1248203,learnblock2,513,img/planet4_right.png,4,Community 3,NA,TRUE,j,j,NA,NA,NA,1,6,"11,15,6,13,5,3,7,2,10,9,12,8,14,4,1"
15535,commdev-image-keyboard-response,395,1249454,learnblock2,506,img/planet12_left.png,12,Community 3,NA,TRUE,f,f,NA,NA,NA,1,6,"11,15,6,13,5,3,7,2,10,9,12,8,14,4,1"
15535,commdev-image-keyboard-response,396,1250708,learnblock2,441,img/planet4_right.png,4,Community 3,NA,TRUE,j,j,NA,NA,NA,1,6,"11,15,6,13,5,3,7,2,10,9,12,8,14,4,1"
15535,commdev-image-keyboard-response,397,1251958,learnblock2,604,img/planet1_right.png,1,Community 3,NA,TRUE,j,j,NA,NA,NA,1,6,"11,15,6,13,5,3,7,2,10,9,12,8,14,4,1"
15535,commdev-image-keyboard-response,398,1253210,learnblock2,730,img/planet8_right.png,8,Community 3,NA,TRUE,j,j,NA,NA,NA,1,6,"11,15,6,13,5,3,7,2,10,9,12,8,14,4,1"
15535,commdev-image-keyboard-response,399,1254462,learnblock2,705,img/planet14_left.png,14,Community 3,NA,TRUE,f,f,NA,NA,NA,1,6,"11,15,6,13,5,3,7,2,10,9,12,8,14,4,1"
15535,commdev-image-keyboard-response,400,1255714,learnblock2,577,img/planet4_left.png,4,Community 3,NA,TRUE,f,f,NA,NA,NA,1,6,"11,15,6,13,5,3,7,2,10,9,12,8,14,4,1"
15535,commdev-image-keyboard-response,401,1256968,learnblock2,704,img/planet8_left.png,8,Community 3,NA,TRUE,f,f,NA,NA,NA,1,6,"11,15,6,13,5,3,7,2,10,9,12,8,14,4,1"
15535,commdev-image-keyboard-response,402,1258224,learnblock2,548,img/planet1_left.png,1,Community 3,NA,TRUE,f,f,NA,NA,NA,1,6,"11,15,6,13,5,3,7,2,10,9,12,8,14,4,1"
15535,commdev-image-keyboard-response,403,1259490,learnblock2,495,img/planet4_left.png,4,Community 3,NA,TRUE,f,f,NA,NA,NA,1,6,"11,15,6,13,5,3,7,2,10,9,12,8,14,4,1"
15535,commdev-image-keyboard-response,404,1260756,learnblock2,500,img/planet14_left.png,14,Community 3,NA,TRUE,f,f,NA,NA,NA,1,6,"11,15,6,13,5,3,7,2,10,9,12,8,14,4,1"
15535,commdev-image-keyboard-response,405,1262020,learnblock2,430,img/planet1_right.png,1,Community 3,NA,TRUE,j,j,NA,NA,NA,1,6,"11,15,6,13,5,3,7,2,10,9,12,8,14,4,1"
15535,commdev-image-keyboard-response,406,1263286,learnblock2,524,img/planet12_right.png,12,Community 3,NA,TRUE,j,j,NA,NA,NA,1,6,"11,15,6,13,5,3,7,2,10,9,12,8,14,4,1"
15535,commdev-image-keyboard-response,407,1264538,learnblock2,417,img/planet1_left.png,1,Community 3,NA,TRUE,f,f,NA,NA,NA,1,6,"11,15,6,13,5,3,7,2,10,9,12,8,14,4,1"
15535,commdev-image-keyboard-response,408,1265790,learnblock2,577,img/planet12_left.png,12,Community 3,NA,TRUE,f,f,NA,NA,NA,1,6,"11,15,6,13,5,3,7,2,10,9,12,8,14,4,1"
15535,commdev-image-keyboard-response,409,1267042,learnblock2,579,img/planet14_left.png,14,Community 3,NA,TRUE,f,f,NA,NA,NA,1,6,"11,15,6,13,5,3,7,2,10,9,12,8,14,4,1"
15535,commdev-image-keyboard-response,410,1268294,learnblock2,490,img/planet4_left.png,4,Community 3,NA,TRUE,f,f,NA,NA,NA,1,6,"11,15,6,13,5,3,7,2,10,9,12,8,14,4,1"
15535,commdev-image-keyboard-response,411,1269549,learnblock2,701,img/planet8_left.png,8,Community 3,NA,TRUE,f,f,NA,NA,NA,1,6,"11,15,6,13,5,3,7,2,10,9,12,8,14,4,1"
15535,commdev-image-keyboard-response,412,1270803,learnblock2,490,img/planet1_left.png,1,Community 3,NA,TRUE,f,f,NA,NA,NA,1,6,"11,15,6,13,5,3,7,2,10,9,12,8,14,4,1"
15535,commdev-image-keyboard-response,413,1272138,learnblock2,495,img/planet12_left.png,12,Community 3,NA,TRUE,f,f,NA,NA,NA,1,6,"11,15,6,13,5,3,7,2,10,9,12,8,14,4,1"
15535,commdev-image-keyboard-response,414,1273389,learnblock2,509,img/planet14_left.png,14,Community 3,NA,TRUE,f,f,NA,NA,NA,1,6,"11,15,6,13,5,3,7,2,10,9,12,8,14,4,1"
15535,commdev-image-keyboard-response,415,1274644,learnblock2,927,img/planet12_right.png,12,Community 3,NA,TRUE,j,j,NA,NA,NA,1,6,"11,15,6,13,5,3,7,2,10,9,12,8,14,4,1"
15535,commdev-image-keyboard-response,416,1275900,learnblock2,498,img/planet1_left.png,1,Community 3,NA,TRUE,f,f,NA,NA,NA,1,6,"11,15,6,13,5,3,7,2,10,9,12,8,14,4,1"
15535,commdev-image-keyboard-response,417,1277153,learnblock2,699,img/planet14_left.png,14,Community 3,NA,TRUE,f,f,NA,NA,NA,1,6,"11,15,6,13,5,3,7,2,10,9,12,8,14,4,1"
15535,commdev-image-keyboard-response,418,1278407,learnblock2,490,img/planet4_left.png,4,Community 3,NA,TRUE,f,f,NA,NA,NA,1,6,"11,15,6,13,5,3,7,2,10,9,12,8,14,4,1"
15535,commdev-image-keyboard-response,419,1279662,learnblock2,585,img/planet1_right.png,1,Community 3,NA,TRUE,j,j,NA,NA,NA,1,6,"11,15,6,13,5,3,7,2,10,9,12,8,14,4,1"
15535,commdev-image-keyboard-response,420,1280996,learnblock2,514,img/planet4_right.png,4,Community 3,NA,TRUE,j,j,NA,NA,NA,1,6,"11,15,6,13,5,3,7,2,10,9,12,8,14,4,1"
15535,commdev-image-keyboard-response,421,1282249,learnblock2,769,img/planet12_left.png,12,Community 3,NA,TRUE,f,f,NA,NA,NA,1,6,"11,15,6,13,5,3,7,2,10,9,12,8,14,4,1"
15535,commdev-image-keyboard-response,422,1283502,learnblock2,523,img/planet1_right.png,1,Community 3,NA,TRUE,j,j,NA,NA,NA,1,6,"11,15,6,13,5,3,7,2,10,9,12,8,14,4,1"
15535,commdev-image-keyboard-response,423,1284754,learnblock2,457,img/planet14_left.png,14,Community 3,NA,TRUE,f,f,NA,NA,NA,1,6,"11,15,6,13,5,3,7,2,10,9,12,8,14,4,1"
15535,commdev-image-keyboard-response,424,1286007,learnblock2,589,img/planet12_right.png,12,Community 3,NA,TRUE,j,j,NA,NA,NA,1,6,"11,15,6,13,5,3,7,2,10,9,12,8,14,4,1"
15535,commdev-image-keyboard-response,425,1287263,learnblock2,612,img/planet5_left.png,5,Community 1,NA,TRUE,f,f,NA,NA,NA,1,6,"11,15,6,13,5,3,7,2,10,9,12,8,14,4,1"
15535,commdev-image-keyboard-response,426,1288517,learnblock2,575,img/planet6_left.png,6,Community 1,NA,TRUE,f,f,NA,NA,NA,1,6,"11,15,6,13,5,3,7,2,10,9,12,8,14,4,1"
15535,commdev-image-keyboard-response,427,1289850,learnblock2,594,img/planet13_left.png,13,Community 1,NA,TRUE,f,f,NA,NA,NA,1,6,"11,15,6,13,5,3,7,2,10,9,12,8,14,4,1"
15535,commdev-image-keyboard-response,428,1291104,learnblock2,585,img/planet11_right.png,11,Community 1,NA,TRUE,j,j,NA,NA,NA,1,6,"11,15,6,13,5,3,7,2,10,9,12,8,14,4,1"
15535,commdev-image-keyboard-response,429,1292367,learnblock2,623,img/planet5_right.png,5,Community 1,NA,TRUE,j,j,NA,NA,NA,1,6,"11,15,6,13,5,3,7,2,10,9,12,8,14,4,1"
15535,commdev-image-keyboard-response,430,1293634,learnblock2,762,img/planet12_right.png,12,Community 3,NA,TRUE,j,j,NA,NA,NA,1,6,"11,15,6,13,5,3,7,2,10,9,12,8,14,4,1"
15535,commdev-image-keyboard-response,431,1294886,learnblock2,641,img/planet4_left.png,4,Community 3,NA,TRUE,f,f,NA,NA,NA,1,6,"11,15,6,13,5,3,7,2,10,9,12,8,14,4,1"
15535,commdev-image-keyboard-response,432,1296281,learnblock2,632,img/planet1_right.png,1,Community 3,NA,TRUE,j,j,NA,NA,NA,1,6,"11,15,6,13,5,3,7,2,10,9,12,8,14,4,1"
15535,commdev-image-keyboard-response,433,1297546,learnblock2,656,img/planet8_left.png,8,Community 3,NA,TRUE,f,f,NA,NA,NA,1,6,"11,15,6,13,5,3,7,2,10,9,12,8,14,4,1"
15535,commdev-image-keyboard-response,434,1298798,learnblock2,556,img/planet4_left.png,4,Community 3,NA,TRUE,f,f,NA,NA,NA,1,6,"11,15,6,13,5,3,7,2,10,9,12,8,14,4,1"
15535,commdev-image-keyboard-response,435,1300054,learnblock2,677,img/planet14_right.png,14,Community 3,NA,TRUE,j,j,NA,NA,NA,1,6,"11,15,6,13,5,3,7,2,10,9,12,8,14,4,1"
15535,commdev-image-keyboard-response,436,1301306,learnblock2,521,img/planet12_left.png,12,Community 3,NA,TRUE,f,f,NA,NA,NA,1,6,"11,15,6,13,5,3,7,2,10,9,12,8,14,4,1"
15535,commdev-image-keyboard-response,437,1302588,learnblock2,932,img/planet4_left.png,4,Community 3,NA,TRUE,f,f,NA,NA,NA,1,6,"11,15,6,13,5,3,7,2,10,9,12,8,14,4,1"
15535,commdev-image-keyboard-response,438,1303840,learnblock2,562,img/planet8_right.png,8,Community 3,NA,TRUE,j,j,NA,NA,NA,1,6,"11,15,6,13,5,3,7,2,10,9,12,8,14,4,1"
15535,commdev-image-keyboard-response,439,1305096,learnblock2,585,img/planet2_left.png,2,Community 2,NA,TRUE,f,f,NA,NA,NA,1,6,"11,15,6,13,5,3,7,2,10,9,12,8,14,4,1"
15535,commdev-image-keyboard-response,440,1306347,learnblock2,615,img/planet10_right.png,10,Community 2,NA,TRUE,j,j,NA,NA,NA,1,6,"11,15,6,13,5,3,7,2,10,9,12,8,14,4,1"
15535,commdev-image-keyboard-response,441,1307603,learnblock2,505,img/planet9_right.png,9,Community 2,NA,TRUE,j,j,NA,NA,NA,1,6,"11,15,6,13,5,3,7,2,10,9,12,8,14,4,1"
15535,commdev-image-keyboard-response,442,1308863,learnblock2,432,img/planet2_left.png,2,Community 2,NA,TRUE,f,f,NA,NA,NA,1,6,"11,15,6,13,5,3,7,2,10,9,12,8,14,4,1"
15535,commdev-image-keyboard-response,443,1310118,learnblock2,651,img/planet7_right.png,7,Community 2,NA,TRUE,j,j,NA,NA,NA,1,6,"11,15,6,13,5,3,7,2,10,9,12,8,14,4,1"
15535,commdev-image-keyboard-response,444,1311384,learnblock2,676,img/planet3_right.png,3,Community 2,NA,TRUE,j,j,NA,NA,NA,1,6,"11,15,6,13,5,3,7,2,10,9,12,8,14,4,1"
15535,commdev-image-keyboard-response,445,1312638,learnblock2,562,img/planet9_right.png,9,Community 2,NA,TRUE,j,j,NA,NA,NA,1,6,"11,15,6,13,5,3,7,2,10,9,12,8,14,4,1"
15535,commdev-image-keyboard-response,446,1313889,learnblock2,593,img/planet3_left.png,3,Community 2,NA,TRUE,f,f,NA,NA,NA,1,6,"11,15,6,13,5,3,7,2,10,9,12,8,14,4,1"
15535,commdev-image-keyboard-response,447,1315238,learnblock2,760,img/planet10_left.png,10,Community 2,NA,TRUE,f,f,NA,NA,NA,1,6,"11,15,6,13,5,3,7,2,10,9,12,8,14,4,1"
15535,commdev-image-keyboard-response,448,1316490,learnblock2,567,img/planet3_left.png,3,Community 2,NA,TRUE,f,f,NA,NA,NA,1,6,"11,15,6,13,5,3,7,2,10,9,12,8,14,4,1"
15535,commdev-image-keyboard-response,449,1317742,learnblock2,545,img/planet9_left.png,9,Community 2,NA,TRUE,f,f,NA,NA,NA,1,6,"11,15,6,13,5,3,7,2,10,9,12,8,14,4,1"
15535,commdev-image-keyboard-response,450,1318993,learnblock2,499,img/planet10_left.png,10,Community 2,NA,TRUE,f,f,NA,NA,NA,1,6,"11,15,6,13,5,3,7,2,10,9,12,8,14,4,1"
15535,commdev-image-keyboard-response,451,1320260,learnblock2,514,img/planet7_left.png,7,Community 2,NA,TRUE,f,f,NA,NA,NA,1,6,"11,15,6,13,5,3,7,2,10,9,12,8,14,4,1"
15535,commdev-image-keyboard-response,452,1321518,learnblock2,444,img/planet2_right.png,2,Community 2,NA,TRUE,j,j,NA,NA,NA,1,6,"11,15,6,13,5,3,7,2,10,9,12,8,14,4,1"
15535,commdev-image-keyboard-response,453,1322771,learnblock2,740,img/planet8_right.png,8,Community 3,NA,TRUE,j,j,NA,NA,NA,1,6,"11,15,6,13,5,3,7,2,10,9,12,8,14,4,1"
15535,commdev-image-keyboard-response,454,1324024,learnblock2,519,img/planet4_right.png,4,Community 3,NA,TRUE,j,j,NA,NA,NA,1,6,"11,15,6,13,5,3,7,2,10,9,12,8,14,4,1"
15535,commdev-image-keyboard-response,455,1325276,learnblock2,659,img/planet14_right.png,14,Community 3,NA,TRUE,j,j,NA,NA,NA,1,6,"11,15,6,13,5,3,7,2,10,9,12,8,14,4,1"
15535,commdev-image-keyboard-response,456,1326534,learnblock2,536,img/planet1_left.png,1,Community 3,NA,TRUE,f,f,NA,NA,NA,1,6,"11,15,6,13,5,3,7,2,10,9,12,8,14,4,1"
15535,commdev-image-keyboard-response,457,1327787,learnblock2,492,img/planet4_left.png,4,Community 3,NA,TRUE,f,f,NA,NA,NA,1,6,"11,15,6,13,5,3,7,2,10,9,12,8,14,4,1"
15535,commdev-image-keyboard-response,458,1329039,learnblock2,544,img/planet12_right.png,12,Community 3,NA,TRUE,j,j,NA,NA,NA,1,6,"11,15,6,13,5,3,7,2,10,9,12,8,14,4,1"
15535,commdev-image-keyboard-response,459,1330303,learnblock2,512,img/planet14_right.png,14,Community 3,NA,TRUE,j,j,NA,NA,NA,1,6,"11,15,6,13,5,3,7,2,10,9,12,8,14,4,1"
15535,commdev-image-keyboard-response,460,1331570,learnblock2,790,img/planet8_right.png,8,Community 3,NA,TRUE,j,j,NA,NA,NA,1,6,"11,15,6,13,5,3,7,2,10,9,12,8,14,4,1"
15535,commdev-image-keyboard-response,461,1332835,learnblock2,541,img/planet14_left.png,14,Community 3,NA,TRUE,f,f,NA,NA,NA,1,6,"11,15,6,13,5,3,7,2,10,9,12,8,14,4,1"
15535,commdev-image-keyboard-response,462,1334086,learnblock2,466,img/planet12_left.png,12,Community 3,NA,TRUE,f,f,NA,NA,NA,1,6,"11,15,6,13,5,3,7,2,10,9,12,8,14,4,1"
15535,commdev-image-keyboard-response,463,1335337,learnblock2,597,img/planet5_right.png,5,Community 1,NA,TRUE,j,j,NA,NA,NA,1,6,"11,15,6,13,5,3,7,2,10,9,12,8,14,4,1"
15535,commdev-image-keyboard-response,464,1336591,learnblock2,604,img/planet15_right.png,15,Community 1,NA,TRUE,j,j,NA,NA,NA,1,6,"11,15,6,13,5,3,7,2,10,9,12,8,14,4,1"
15535,commdev-image-keyboard-response,465,1337845,learnblock2,553,img/planet6_right.png,6,Community 1,NA,TRUE,j,j,NA,NA,NA,1,6,"11,15,6,13,5,3,7,2,10,9,12,8,14,4,1"
15535,commdev-image-keyboard-response,466,1339111,learnblock2,819,img/planet13_left.png,13,Community 1,NA,TRUE,f,f,NA,NA,NA,1,6,"11,15,6,13,5,3,7,2,10,9,12,8,14,4,1"
15535,commdev-image-keyboard-response,467,1340362,learnblock2,547,img/planet3_left.png,3,Community 2,NA,TRUE,f,f,NA,NA,NA,1,6,"11,15,6,13,5,3,7,2,10,9,12,8,14,4,1"
15535,commdev-image-keyboard-response,468,1341617,learnblock2,558,img/planet13_right.png,13,Community 1,NA,TRUE,j,j,NA,NA,NA,1,6,"11,15,6,13,5,3,7,2,10,9,12,8,14,4,1"
15535,commdev-image-keyboard-response,469,1342869,learnblock2,895,img/planet11_left.png,11,Community 1,NA,TRUE,f,f,NA,NA,NA,1,6,"11,15,6,13,5,3,7,2,10,9,12,8,14,4,1"
15535,commdev-image-keyboard-response,470,1344124,learnblock2,645,img/planet5_right.png,5,Community 1,NA,TRUE,j,j,NA,NA,NA,1,6,"11,15,6,13,5,3,7,2,10,9,12,8,14,4,1"
15535,commdev-image-keyboard-response,471,1345379,learnblock2,710,img/planet11_left.png,11,Community 1,NA,TRUE,f,f,NA,NA,NA,1,6,"11,15,6,13,5,3,7,2,10,9,12,8,14,4,1"
15535,commdev-image-keyboard-response,472,1346635,learnblock2,817,img/planet13_left.png,13,Community 1,NA,TRUE,f,f,NA,NA,NA,1,6,"11,15,6,13,5,3,7,2,10,9,12,8,14,4,1"
15535,commdev-image-keyboard-response,473,1347887,learnblock2,918,img/planet11_left.png,11,Community 1,NA,TRUE,f,f,NA,NA,NA,1,6,"11,15,6,13,5,3,7,2,10,9,12,8,14,4,1"
15535,commdev-image-keyboard-response,474,1349141,learnblock2,1013,img/planet15_left.png,15,Community 1,NA,TRUE,f,f,NA,NA,NA,1,6,"11,15,6,13,5,3,7,2,10,9,12,8,14,4,1"
15535,commdev-image-keyboard-response,475,1350394,learnblock2,693,img/planet13_right.png,13,Community 1,NA,TRUE,j,j,NA,NA,NA,1,6,"11,15,6,13,5,3,7,2,10,9,12,8,14,4,1"
15535,commdev-image-keyboard-response,476,1351650,learnblock2,806,img/planet6_right.png,6,Community 1,NA,TRUE,j,j,NA,NA,NA,1,6,"11,15,6,13,5,3,7,2,10,9,12,8,14,4,1"
15535,commdev-image-keyboard-response,477,1352901,learnblock2,583,img/planet13_left.png,13,Community 1,NA,TRUE,f,f,NA,NA,NA,1,6,"11,15,6,13,5,3,7,2,10,9,12,8,14,4,1"
15535,commdev-image-keyboard-response,478,1354235,learnblock2,806,img/planet11_right.png,11,Community 1,NA,TRUE,j,j,NA,NA,NA,1,6,"11,15,6,13,5,3,7,2,10,9,12,8,14,4,1"
15535,commdev-image-keyboard-response,479,1355491,learnblock2,613,img/planet6_left.png,6,Community 1,NA,TRUE,f,f,NA,NA,NA,1,6,"11,15,6,13,5,3,7,2,10,9,12,8,14,4,1"
15535,commdev-image-keyboard-response,480,1356757,learnblock2,539,img/planet15_left.png,15,Community 1,NA,TRUE,f,f,NA,NA,NA,1,6,"11,15,6,13,5,3,7,2,10,9,12,8,14,4,1"
15535,commdev-image-keyboard-response,481,1358008,learnblock2,548,img/planet6_right.png,6,Community 1,NA,TRUE,j,j,NA,NA,NA,1,6,"11,15,6,13,5,3,7,2,10,9,12,8,14,4,1"
15535,commdev-image-keyboard-response,482,1359260,learnblock2,703,img/planet11_left.png,11,Community 1,NA,TRUE,f,f,NA,NA,NA,1,6,"11,15,6,13,5,3,7,2,10,9,12,8,14,4,1"
15535,commdev-image-keyboard-response,483,1360516,learnblock2,615,img/planet6_right.png,6,Community 1,NA,TRUE,j,j,NA,NA,NA,1,6,"11,15,6,13,5,3,7,2,10,9,12,8,14,4,1"
15535,commdev-image-keyboard-response,484,1361768,learnblock2,660,img/planet5_right.png,5,Community 1,NA,TRUE,j,j,NA,NA,NA,1,6,"11,15,6,13,5,3,7,2,10,9,12,8,14,4,1"
15535,commdev-image-keyboard-response,485,1363022,learnblock2,578,img/planet6_right.png,6,Community 1,NA,TRUE,j,j,NA,NA,NA,1,6,"11,15,6,13,5,3,7,2,10,9,12,8,14,4,1"
15535,commdev-image-keyboard-response,486,1364276,learnblock2,512,img/planet5_left.png,5,Community 1,NA,TRUE,f,f,NA,NA,NA,1,6,"11,15,6,13,5,3,7,2,10,9,12,8,14,4,1"
15535,commdev-image-keyboard-response,487,1365543,learnblock2,493,img/planet6_left.png,6,Community 1,NA,TRUE,f,f,NA,NA,NA,1,6,"11,15,6,13,5,3,7,2,10,9,12,8,14,4,1"
15535,commdev-image-keyboard-response,488,1366796,learnblock2,483,img/planet11_left.png,11,Community 1,NA,TRUE,f,f,NA,NA,NA,1,6,"11,15,6,13,5,3,7,2,10,9,12,8,14,4,1"
15535,commdev-image-keyboard-response,489,1368051,learnblock2,507,img/planet5_left.png,5,Community 1,NA,TRUE,f,f,NA,NA,NA,1,6,"11,15,6,13,5,3,7,2,10,9,12,8,14,4,1"
15535,commdev-image-keyboard-response,490,1369308,learnblock2,625,img/planet15_right.png,15,Community 1,NA,TRUE,j,j,NA,NA,NA,1,6,"11,15,6,13,5,3,7,2,10,9,12,8,14,4,1"
15535,commdev-image-keyboard-response,491,1370562,learnblock2,529,img/planet6_right.png,6,Community 1,NA,TRUE,j,j,NA,NA,NA,1,6,"11,15,6,13,5,3,7,2,10,9,12,8,14,4,1"
15535,commdev-image-keyboard-response,492,1371815,learnblock2,597,img/planet11_right.png,11,Community 1,NA,TRUE,j,j,NA,NA,NA,1,6,"11,15,6,13,5,3,7,2,10,9,12,8,14,4,1"
15535,commdev-image-keyboard-response,493,1373070,learnblock2,704,img/planet15_left.png,15,Community 1,NA,TRUE,f,f,NA,NA,NA,1,6,"11,15,6,13,5,3,7,2,10,9,12,8,14,4,1"
15535,commdev-image-keyboard-response,494,1374326,learnblock2,541,img/planet13_left.png,13,Community 1,NA,TRUE,f,f,NA,NA,NA,1,6,"11,15,6,13,5,3,7,2,10,9,12,8,14,4,1"
15535,commdev-image-keyboard-response,495,1375591,learnblock2,751,img/planet11_left.png,11,Community 1,NA,TRUE,f,f,NA,NA,NA,1,6,"11,15,6,13,5,3,7,2,10,9,12,8,14,4,1"
15535,commdev-image-keyboard-response,496,1376879,learnblock2,601,img/planet5_left.png,5,Community 1,NA,TRUE,f,f,NA,NA,NA,1,6,"11,15,6,13,5,3,7,2,10,9,12,8,14,4,1"
15535,commdev-image-keyboard-response,497,1378130,learnblock2,1050,img/planet6_right.png,6,Community 1,NA,TRUE,j,j,NA,NA,NA,1,6,"11,15,6,13,5,3,7,2,10,9,12,8,14,4,1"
15535,commdev-image-keyboard-response,498,1379382,learnblock2,547,img/planet15_left.png,15,Community 1,NA,TRUE,f,f,NA,NA,NA,1,6,"11,15,6,13,5,3,7,2,10,9,12,8,14,4,1"
15535,commdev-image-keyboard-response,499,1380648,learnblock2,519,img/planet11_left.png,11,Community 1,NA,TRUE,f,f,NA,NA,NA,1,6,"11,15,6,13,5,3,7,2,10,9,12,8,14,4,1"
15535,commdev-image-keyboard-response,500,1381903,learnblock2,604,img/planet13_left.png,13,Community 1,NA,TRUE,f,f,NA,NA,NA,1,6,"11,15,6,13,5,3,7,2,10,9,12,8,14,4,1"
15535,commdev-image-keyboard-response,501,1383155,learnblock2,579,img/planet3_left.png,3,Community 2,NA,TRUE,f,f,NA,NA,NA,1,6,"11,15,6,13,5,3,7,2,10,9,12,8,14,4,1"
15535,commdev-image-keyboard-response,502,1384408,learnblock2,518,img/planet13_left.png,13,Community 1,NA,TRUE,f,f,NA,NA,NA,1,6,"11,15,6,13,5,3,7,2,10,9,12,8,14,4,1"
15535,commdev-image-keyboard-response,503,1385680,learnblock2,646,img/planet3_right.png,3,Community 2,NA,TRUE,j,j,NA,NA,NA,1,6,"11,15,6,13,5,3,7,2,10,9,12,8,14,4,1"
15535,commdev-image-keyboard-response,504,1386932,learnblock2,621,img/planet7_right.png,7,Community 2,NA,TRUE,j,j,NA,NA,NA,1,6,"11,15,6,13,5,3,7,2,10,9,12,8,14,4,1"
15535,commdev-image-keyboard-response,505,1388187,learnblock2,661,img/planet3_right.png,3,Community 2,NA,TRUE,j,j,NA,NA,NA,1,6,"11,15,6,13,5,3,7,2,10,9,12,8,14,4,1"
15535,commdev-image-keyboard-response,506,1389441,learnblock2,673,img/planet13_right.png,13,Community 1,NA,TRUE,j,j,NA,NA,NA,1,6,"11,15,6,13,5,3,7,2,10,9,12,8,14,4,1"
15535,commdev-image-keyboard-response,507,1390696,learnblock2,577,img/planet11_left.png,11,Community 1,NA,TRUE,f,f,NA,NA,NA,1,6,"11,15,6,13,5,3,7,2,10,9,12,8,14,4,1"
15535,commdev-image-keyboard-response,508,1392023,learnblock2,623,img/planet13_right.png,13,Community 1,NA,TRUE,j,j,NA,NA,NA,1,6,"11,15,6,13,5,3,7,2,10,9,12,8,14,4,1"
15535,commdev-image-keyboard-response,509,1393285,learnblock2,628,img/planet15_right.png,15,Community 1,NA,TRUE,j,j,NA,NA,NA,1,6,"11,15,6,13,5,3,7,2,10,9,12,8,14,4,1"
15535,commdev-image-keyboard-response,510,1394540,learnblock2,551,img/planet11_left.png,11,Community 1,NA,TRUE,f,f,NA,NA,NA,1,6,"11,15,6,13,5,3,7,2,10,9,12,8,14,4,1"
15535,commdev-image-keyboard-response,511,1395792,learnblock2,605,img/planet5_left.png,5,Community 1,NA,TRUE,f,f,NA,NA,NA,1,6,"11,15,6,13,5,3,7,2,10,9,12,8,14,4,1"
15535,commdev-image-keyboard-response,512,1397046,learnblock2,791,img/planet11_left.png,11,Community 1,NA,TRUE,f,f,NA,NA,NA,1,6,"11,15,6,13,5,3,7,2,10,9,12,8,14,4,1"
15535,commdev-image-keyboard-response,513,1398300,learnblock2,641,img/planet6_left.png,6,Community 1,NA,TRUE,f,f,NA,NA,NA,1,6,"11,15,6,13,5,3,7,2,10,9,12,8,14,4,1"
15535,commdev-image-keyboard-response,514,1399557,learnblock2,622,img/planet11_right.png,11,Community 1,NA,TRUE,j,j,NA,NA,NA,1,6,"11,15,6,13,5,3,7,2,10,9,12,8,14,4,1"
15535,commdev-image-keyboard-response,515,1400937,learnblock2,721,img/planet6_left.png,6,Community 1,NA,TRUE,f,f,NA,NA,NA,1,6,"11,15,6,13,5,3,7,2,10,9,12,8,14,4,1"
15535,commdev-image-keyboard-response,516,1402192,learnblock2,591,img/planet13_right.png,13,Community 1,NA,TRUE,j,j,NA,NA,NA,1,6,"11,15,6,13,5,3,7,2,10,9,12,8,14,4,1"
15535,commdev-image-keyboard-response,517,1403448,learnblock2,531,img/planet11_right.png,11,Community 1,NA,TRUE,j,j,NA,NA,NA,1,6,"11,15,6,13,5,3,7,2,10,9,12,8,14,4,1"
15535,commdev-image-keyboard-response,518,1404700,learnblock2,563,img/planet15_right.png,15,Community 1,NA,TRUE,j,j,NA,NA,NA,1,6,"11,15,6,13,5,3,7,2,10,9,12,8,14,4,1"
15535,commdev-image-keyboard-response,519,1405954,learnblock2,485,img/planet6_left.png,6,Community 1,NA,FALSE,j,f,NA,NA,NA,1,6,"11,15,6,13,5,3,7,2,10,9,12,8,14,4,1"
15535,commdev-image-keyboard-response,520,1407209,learnblock2,641,img/planet5_left.png,5,Community 1,NA,TRUE,f,f,NA,NA,NA,1,6,"11,15,6,13,5,3,7,2,10,9,12,8,14,4,1"
15535,commdev-image-keyboard-response,521,1408462,learnblock2,749,img/planet11_right.png,11,Community 1,NA,TRUE,j,j,NA,NA,NA,1,6,"11,15,6,13,5,3,7,2,10,9,12,8,14,4,1"
15535,commdev-image-keyboard-response,522,1409716,learnblock2,553,img/planet6_right.png,6,Community 1,NA,TRUE,j,j,NA,NA,NA,1,6,"11,15,6,13,5,3,7,2,10,9,12,8,14,4,1"
15535,commdev-image-keyboard-response,523,1410971,learnblock2,593,img/planet11_left.png,11,Community 1,NA,TRUE,f,f,NA,NA,NA,1,6,"11,15,6,13,5,3,7,2,10,9,12,8,14,4,1"
15535,commdev-image-keyboard-response,524,1412324,learnblock2,715,img/planet15_left.png,15,Community 1,NA,TRUE,f,f,NA,NA,NA,1,6,"11,15,6,13,5,3,7,2,10,9,12,8,14,4,1"
15535,commdev-image-keyboard-response,525,1413576,learnblock2,602,img/planet5_right.png,5,Community 1,NA,TRUE,j,j,NA,NA,NA,1,6,"11,15,6,13,5,3,7,2,10,9,12,8,14,4,1"
15535,commdev-image-keyboard-response,526,1414829,learnblock2,532,img/planet6_left.png,6,Community 1,NA,TRUE,f,f,NA,NA,NA,1,6,"11,15,6,13,5,3,7,2,10,9,12,8,14,4,1"
15535,commdev-image-keyboard-response,527,1416083,learnblock2,633,img/planet15_left.png,15,Community 1,NA,TRUE,f,f,NA,NA,NA,1,6,"11,15,6,13,5,3,7,2,10,9,12,8,14,4,1"
15535,commdev-image-keyboard-response,528,1417336,learnblock2,649,img/planet5_left.png,5,Community 1,NA,TRUE,f,f,NA,NA,NA,1,6,"11,15,6,13,5,3,7,2,10,9,12,8,14,4,1"
15535,commdev-image-keyboard-response,529,1418587,learnblock2,488,img/planet15_left.png,15,Community 1,NA,TRUE,f,f,NA,NA,NA,1,6,"11,15,6,13,5,3,7,2,10,9,12,8,14,4,1"
15535,commdev-image-keyboard-response,530,1419843,learnblock2,524,img/planet5_left.png,5,Community 1,NA,TRUE,f,f,NA,NA,NA,1,6,"11,15,6,13,5,3,7,2,10,9,12,8,14,4,1"
15535,commdev-image-keyboard-response,531,1421114,learnblock2,423,img/planet11_left.png,11,Community 1,NA,TRUE,f,f,NA,NA,NA,1,6,"11,15,6,13,5,3,7,2,10,9,12,8,14,4,1"
15535,commdev-image-keyboard-response,532,1422370,learnblock2,550,img/planet13_left.png,13,Community 1,NA,TRUE,f,f,NA,NA,NA,1,6,"11,15,6,13,5,3,7,2,10,9,12,8,14,4,1"
15535,commdev-image-keyboard-response,533,1423634,learnblock2,541,img/planet11_left.png,11,Community 1,NA,TRUE,f,f,NA,NA,NA,1,6,"11,15,6,13,5,3,7,2,10,9,12,8,14,4,1"
15535,commdev-image-keyboard-response,534,1424890,learnblock2,445,img/planet5_left.png,5,Community 1,NA,TRUE,f,f,NA,NA,NA,1,6,"11,15,6,13,5,3,7,2,10,9,12,8,14,4,1"
15535,commdev-image-keyboard-response,535,1426148,learnblock2,445,img/planet11_right.png,11,Community 1,NA,TRUE,j,j,NA,NA,NA,1,6,"11,15,6,13,5,3,7,2,10,9,12,8,14,4,1"
15535,commdev-image-keyboard-response,536,1427414,learnblock2,554,img/planet5_left.png,5,Community 1,NA,FALSE,j,f,NA,NA,NA,1,6,"11,15,6,13,5,3,7,2,10,9,12,8,14,4,1"
15535,commdev-image-keyboard-response,537,1428668,learnblock2,854,img/planet12_left.png,12,Community 3,NA,TRUE,f,f,NA,NA,NA,1,6,"11,15,6,13,5,3,7,2,10,9,12,8,14,4,1"
15535,commdev-image-keyboard-response,538,1429933,learnblock2,690,img/planet1_right.png,1,Community 3,NA,TRUE,j,j,NA,NA,NA,1,6,"11,15,6,13,5,3,7,2,10,9,12,8,14,4,1"
15535,commdev-image-keyboard-response,539,1431187,learnblock2,863,img/planet8_right.png,8,Community 3,NA,TRUE,j,j,NA,NA,NA,1,6,"11,15,6,13,5,3,7,2,10,9,12,8,14,4,1"
15535,commdev-image-keyboard-response,540,1432442,learnblock2,505,img/planet2_left.png,2,Community 2,NA,FALSE,j,f,NA,NA,NA,1,6,"11,15,6,13,5,3,7,2,10,9,12,8,14,4,1"
15535,commdev-image-keyboard-response,541,1433704,learnblock2,null,img/planet8_left.png,8,Community 3,NA,FALSE,null,f,NA,NA,NA,1,6,"11,15,6,13,5,3,7,2,10,9,12,8,14,4,1"
15535,commdev-image-keyboard-response,542,1434957,learnblock2,12,img/planet4_right.png,4,Community 3,NA,FALSE,f,j,NA,NA,NA,1,6,"11,15,6,13,5,3,7,2,10,9,12,8,14,4,1"
15535,commdev-image-keyboard-response,543,1436211,learnblock2,923,img/planet12_right.png,12,Community 3,NA,TRUE,j,j,NA,NA,NA,1,6,"11,15,6,13,5,3,7,2,10,9,12,8,14,4,1"
15535,commdev-image-keyboard-response,544,1437467,learnblock2,518,img/planet5_left.png,5,Community 1,NA,TRUE,f,f,NA,NA,NA,1,6,"11,15,6,13,5,3,7,2,10,9,12,8,14,4,1"
15535,commdev-image-keyboard-response,545,1438722,learnblock2,606,img/planet15_right.png,15,Community 1,NA,TRUE,j,j,NA,NA,NA,1,6,"11,15,6,13,5,3,7,2,10,9,12,8,14,4,1"
15535,commdev-image-keyboard-response,546,1440085,learnblock2,822,img/planet6_right.png,6,Community 1,NA,TRUE,j,j,NA,NA,NA,1,6,"11,15,6,13,5,3,7,2,10,9,12,8,14,4,1"
15535,commdev-image-keyboard-response,547,1441352,learnblock2,651,img/planet13_left.png,13,Community 1,NA,TRUE,f,f,NA,NA,NA,1,6,"11,15,6,13,5,3,7,2,10,9,12,8,14,4,1"
15535,commdev-image-keyboard-response,548,1442605,learnblock2,684,img/planet6_right.png,6,Community 1,NA,TRUE,j,j,NA,NA,NA,1,6,"11,15,6,13,5,3,7,2,10,9,12,8,14,4,1"
15535,commdev-image-keyboard-response,549,1443860,learnblock2,596,img/planet15_right.png,15,Community 1,NA,TRUE,j,j,NA,NA,NA,1,6,"11,15,6,13,5,3,7,2,10,9,12,8,14,4,1"
15535,commdev-image-keyboard-response,550,1445113,learnblock2,596,img/planet5_right.png,5,Community 1,NA,TRUE,j,j,NA,NA,NA,1,6,"11,15,6,13,5,3,7,2,10,9,12,8,14,4,1"
15535,commdev-image-keyboard-response,551,1446459,learnblock2,596,img/planet15_right.png,15,Community 1,NA,TRUE,j,j,NA,NA,NA,1,6,"11,15,6,13,5,3,7,2,10,9,12,8,14,4,1"
15535,commdev-image-keyboard-response,552,1447725,learnblock2,614,img/planet13_right.png,13,Community 1,NA,TRUE,j,j,NA,NA,NA,1,6,"11,15,6,13,5,3,7,2,10,9,12,8,14,4,1"
15535,commdev-image-keyboard-response,553,1448976,learnblock2,572,img/planet6_left.png,6,Community 1,NA,TRUE,f,f,NA,NA,NA,1,6,"11,15,6,13,5,3,7,2,10,9,12,8,14,4,1"
15535,commdev-image-keyboard-response,554,1450227,learnblock2,630,img/planet13_right.png,13,Community 1,NA,TRUE,j,j,NA,NA,NA,1,6,"11,15,6,13,5,3,7,2,10,9,12,8,14,4,1"
15535,commdev-image-keyboard-response,555,1451483,learnblock2,722,img/planet6_left.png,6,Community 1,NA,TRUE,f,f,NA,NA,NA,1,6,"11,15,6,13,5,3,7,2,10,9,12,8,14,4,1"
15535,commdev-image-keyboard-response,556,1452737,learnblock2,797,img/planet15_left.png,15,Community 1,NA,TRUE,f,f,NA,NA,NA,1,6,"11,15,6,13,5,3,7,2,10,9,12,8,14,4,1"
15535,commdev-image-keyboard-response,557,1453990,learnblock2,712,img/planet6_left.png,6,Community 1,NA,TRUE,f,f,NA,NA,NA,1,6,"11,15,6,13,5,3,7,2,10,9,12,8,14,4,1"
15535,commdev-image-keyboard-response,558,1455246,learnblock2,602,img/planet5_right.png,5,Community 1,NA,TRUE,j,j,NA,NA,NA,1,6,"11,15,6,13,5,3,7,2,10,9,12,8,14,4,1"
15535,commdev-image-keyboard-response,559,1456498,learnblock2,933,img/planet11_right.png,11,Community 1,NA,FALSE,f,j,NA,NA,NA,1,6,"11,15,6,13,5,3,7,2,10,9,12,8,14,4,1"
15535,commdev-image-keyboard-response,560,1457753,learnblock2,45,img/planet15_right.png,15,Community 1,NA,TRUE,j,j,NA,NA,NA,1,6,"11,15,6,13,5,3,7,2,10,9,12,8,14,4,1"
15535,commdev-image-keyboard-response,561,1459007,learnblock2,721,img/planet6_right.png,6,Community 1,NA,TRUE,j,j,NA,NA,NA,1,6,"11,15,6,13,5,3,7,2,10,9,12,8,14,4,1"
15535,commdev-image-keyboard-response,562,1460264,learnblock2,559,img/planet13_left.png,13,Community 1,NA,TRUE,f,f,NA,NA,NA,1,6,"11,15,6,13,5,3,7,2,10,9,12,8,14,4,1"
15535,commdev-image-keyboard-response,563,1461517,learnblock2,516,img/planet15_right.png,15,Community 1,NA,TRUE,j,j,NA,NA,NA,1,6,"11,15,6,13,5,3,7,2,10,9,12,8,14,4,1"
15535,commdev-image-keyboard-response,564,1462789,learnblock2,594,img/planet6_right.png,6,Community 1,NA,TRUE,j,j,NA,NA,NA,1,6,"11,15,6,13,5,3,7,2,10,9,12,8,14,4,1"
15535,commdev-image-keyboard-response,565,1464040,learnblock2,761,img/planet5_left.png,5,Community 1,NA,TRUE,f,f,NA,NA,NA,1,6,"11,15,6,13,5,3,7,2,10,9,12,8,14,4,1"
15535,commdev-image-keyboard-response,566,1465296,learnblock2,628,img/planet15_right.png,15,Community 1,NA,TRUE,j,j,NA,NA,NA,1,6,"11,15,6,13,5,3,7,2,10,9,12,8,14,4,1"
15535,commdev-image-keyboard-response,567,1466549,learnblock2,611,img/planet5_left.png,5,Community 1,NA,TRUE,f,f,NA,NA,NA,1,6,"11,15,6,13,5,3,7,2,10,9,12,8,14,4,1"
15535,commdev-image-keyboard-response,568,1467805,learnblock2,651,img/planet11_right.png,11,Community 1,NA,TRUE,j,j,NA,NA,NA,1,6,"11,15,6,13,5,3,7,2,10,9,12,8,14,4,1"
15535,commdev-image-keyboard-response,569,1469216,learnblock2,701,img/planet15_right.png,15,Community 1,NA,TRUE,j,j,NA,NA,NA,1,6,"11,15,6,13,5,3,7,2,10,9,12,8,14,4,1"
15535,commdev-image-keyboard-response,570,1470471,learnblock2,719,img/planet11_left.png,11,Community 1,NA,TRUE,f,f,NA,NA,NA,1,6,"11,15,6,13,5,3,7,2,10,9,12,8,14,4,1"
15535,commdev-image-keyboard-response,571,1471725,learnblock2,575,img/planet15_right.png,15,Community 1,NA,TRUE,j,j,NA,NA,NA,1,6,"11,15,6,13,5,3,7,2,10,9,12,8,14,4,1"
15535,commdev-image-keyboard-response,572,1472982,learnblock2,893,img/planet6_right.png,6,Community 1,NA,TRUE,j,j,NA,NA,NA,1,6,"11,15,6,13,5,3,7,2,10,9,12,8,14,4,1"
15535,commdev-image-keyboard-response,573,1474237,learnblock2,703,img/planet13_left.png,13,Community 1,NA,TRUE,f,f,NA,NA,NA,1,6,"11,15,6,13,5,3,7,2,10,9,12,8,14,4,1"
15535,commdev-image-keyboard-response,574,1475490,learnblock2,1054,img/planet3_left.png,3,Community 2,NA,FALSE,j,f,NA,NA,NA,1,6,"11,15,6,13,5,3,7,2,10,9,12,8,14,4,1"
15535,commdev-image-keyboard-response,575,1476743,learnblock2,693,img/planet13_left.png,13,Community 1,NA,TRUE,f,f,NA,NA,NA,1,6,"11,15,6,13,5,3,7,2,10,9,12,8,14,4,1"
15535,commdev-image-keyboard-response,576,1477998,learnblock2,610,img/planet3_right.png,3,Community 2,NA,TRUE,j,j,NA,NA,NA,1,6,"11,15,6,13,5,3,7,2,10,9,12,8,14,4,1"
15535,commdev-image-keyboard-response,577,1479251,learnblock2,522,img/planet9_right.png,9,Community 2,NA,TRUE,j,j,NA,NA,NA,1,6,"11,15,6,13,5,3,7,2,10,9,12,8,14,4,1"
15535,commdev-image-keyboard-response,578,1480523,learnblock2,671,img/planet7_right.png,7,Community 2,NA,TRUE,j,j,NA,NA,NA,1,6,"11,15,6,13,5,3,7,2,10,9,12,8,14,4,1"
15535,commdev-image-keyboard-response,579,1481775,learnblock2,615,img/planet10_left.png,10,Community 2,NA,TRUE,f,f,NA,NA,NA,1,6,"11,15,6,13,5,3,7,2,10,9,12,8,14,4,1"
15535,commdev-image-keyboard-response,580,1483027,learnblock2,653,img/planet9_left.png,9,Community 2,NA,TRUE,f,f,NA,NA,NA,1,6,"11,15,6,13,5,3,7,2,10,9,12,8,14,4,1"
15535,commdev-image-keyboard-response,581,1484279,learnblock2,568,img/planet10_left.png,10,Community 2,NA,TRUE,f,f,NA,NA,NA,1,6,"11,15,6,13,5,3,7,2,10,9,12,8,14,4,1"
15535,commdev-image-keyboard-response,582,1485532,learnblock2,556,img/planet7_left.png,7,Community 2,NA,TRUE,f,f,NA,NA,NA,1,6,"11,15,6,13,5,3,7,2,10,9,12,8,14,4,1"
15535,commdev-image-keyboard-response,583,1486849,learnblock2,487,img/planet2_left.png,2,Community 2,NA,TRUE,f,f,NA,NA,NA,1,6,"11,15,6,13,5,3,7,2,10,9,12,8,14,4,1"
15535,commdev-image-keyboard-response,584,1488106,learnblock2,609,img/planet10_right.png,10,Community 2,NA,TRUE,j,j,NA,NA,NA,1,6,"11,15,6,13,5,3,7,2,10,9,12,8,14,4,1"
15535,commdev-image-keyboard-response,585,1489359,learnblock2,663,img/planet3_left.png,3,Community 2,NA,TRUE,f,f,NA,NA,NA,1,6,"11,15,6,13,5,3,7,2,10,9,12,8,14,4,1"
15535,commdev-image-keyboard-response,586,1490612,learnblock2,552,img/planet9_left.png,9,Community 2,NA,TRUE,f,f,NA,NA,NA,1,6,"11,15,6,13,5,3,7,2,10,9,12,8,14,4,1"
15535,commdev-image-keyboard-response,587,1491864,learnblock2,570,img/planet2_right.png,2,Community 2,NA,TRUE,j,j,NA,NA,NA,1,6,"11,15,6,13,5,3,7,2,10,9,12,8,14,4,1"
15535,commdev-image-keyboard-response,588,1493130,learnblock2,902,img/planet9_left.png,9,Community 2,NA,TRUE,f,f,NA,NA,NA,1,6,"11,15,6,13,5,3,7,2,10,9,12,8,14,4,1"
15535,commdev-image-keyboard-response,589,1494382,learnblock2,609,img/planet10_right.png,10,Community 2,NA,TRUE,j,j,NA,NA,NA,1,6,"11,15,6,13,5,3,7,2,10,9,12,8,14,4,1"
15535,commdev-image-keyboard-response,590,1495637,learnblock2,672,img/planet2_left.png,2,Community 2,NA,TRUE,f,f,NA,NA,NA,1,6,"11,15,6,13,5,3,7,2,10,9,12,8,14,4,1"
15535,commdev-image-keyboard-response,591,1496891,learnblock2,570,img/planet7_left.png,7,Community 2,NA,TRUE,f,f,NA,NA,NA,1,6,"11,15,6,13,5,3,7,2,10,9,12,8,14,4,1"
15535,commdev-image-keyboard-response,592,1498145,learnblock2,536,img/planet9_right.png,9,Community 2,NA,TRUE,j,j,NA,NA,NA,1,6,"11,15,6,13,5,3,7,2,10,9,12,8,14,4,1"
15535,commdev-image-keyboard-response,593,1499432,learnblock2,638,img/planet3_left.png,3,Community 2,NA,TRUE,f,f,NA,NA,NA,1,6,"11,15,6,13,5,3,7,2,10,9,12,8,14,4,1"
15535,commdev-image-keyboard-response,594,1500697,learnblock2,742,img/planet10_right.png,10,Community 2,NA,TRUE,j,j,NA,NA,NA,1,6,"11,15,6,13,5,3,7,2,10,9,12,8,14,4,1"
15535,commdev-image-keyboard-response,595,1501949,learnblock2,1005,img/planet9_right.png,9,Community 2,NA,TRUE,j,j,NA,NA,NA,1,6,"11,15,6,13,5,3,7,2,10,9,12,8,14,4,1"
15535,commdev-image-keyboard-response,596,1503202,learnblock2,699,img/planet3_right.png,3,Community 2,NA,TRUE,j,j,NA,NA,NA,1,6,"11,15,6,13,5,3,7,2,10,9,12,8,14,4,1"
15535,commdev-image-keyboard-response,597,1504458,learnblock2,561,img/planet9_left.png,9,Community 2,NA,TRUE,f,f,NA,NA,NA,1,6,"11,15,6,13,5,3,7,2,10,9,12,8,14,4,1"
15535,commdev-image-keyboard-response,598,1505774,learnblock2,580,img/planet10_right.png,10,Community 2,NA,TRUE,j,j,NA,NA,NA,1,6,"11,15,6,13,5,3,7,2,10,9,12,8,14,4,1"
15535,commdev-image-keyboard-response,599,1507025,learnblock2,628,img/planet2_left.png,2,Community 2,NA,TRUE,f,f,NA,NA,NA,1,6,"11,15,6,13,5,3,7,2,10,9,12,8,14,4,1"
15535,commdev-image-keyboard-response,600,1508277,learnblock2,607,img/planet7_right.png,7,Community 2,NA,TRUE,j,j,NA,NA,NA,1,6,"11,15,6,13,5,3,7,2,10,9,12,8,14,4,1"
15535,commdev-image-keyboard-response,601,1509534,learnblock2,571,img/planet10_right.png,10,Community 2,NA,TRUE,j,j,NA,NA,NA,1,6,"11,15,6,13,5,3,7,2,10,9,12,8,14,4,1"
15535,commdev-image-keyboard-response,602,1510785,learnblock2,617,img/planet9_left.png,9,Community 2,NA,FALSE,j,f,NA,NA,NA,1,6,"11,15,6,13,5,3,7,2,10,9,12,8,14,4,1"
15535,commdev-image-keyboard-response,603,1512166,learnblock2,869,img/planet2_left.png,2,Community 2,NA,TRUE,f,f,NA,NA,NA,1,6,"11,15,6,13,5,3,7,2,10,9,12,8,14,4,1"
15535,commdev-image-keyboard-response,604,1513423,learnblock2,697,img/planet8_left.png,8,Community 3,NA,TRUE,f,f,NA,NA,NA,1,6,"11,15,6,13,5,3,7,2,10,9,12,8,14,4,1"
15535,commdev-image-keyboard-response,605,1514679,learnblock2,681,img/planet4_right.png,4,Community 3,NA,TRUE,j,j,NA,NA,NA,1,6,"11,15,6,13,5,3,7,2,10,9,12,8,14,4,1"
15535,commdev-image-keyboard-response,606,1515932,learnblock2,712,img/planet12_right.png,12,Community 3,NA,TRUE,j,j,NA,NA,NA,1,6,"11,15,6,13,5,3,7,2,10,9,12,8,14,4,1"
15535,commdev-image-keyboard-response,607,1517183,learnblock2,723,img/planet14_right.png,14,Community 3,NA,TRUE,j,j,NA,NA,NA,1,6,"11,15,6,13,5,3,7,2,10,9,12,8,14,4,1"
15535,commdev-image-keyboard-response,608,1518437,learnblock2,599,img/planet4_right.png,4,Community 3,NA,TRUE,j,j,NA,NA,NA,1,6,"11,15,6,13,5,3,7,2,10,9,12,8,14,4,1"
15535,commdev-image-keyboard-response,609,1519688,learnblock2,533,img/planet14_right.png,14,Community 3,NA,TRUE,j,j,NA,NA,NA,1,6,"11,15,6,13,5,3,7,2,10,9,12,8,14,4,1"
15535,commdev-image-keyboard-response,610,1520972,learnblock2,463,img/planet1_left.png,1,Community 3,NA,TRUE,f,f,NA,NA,NA,1,6,"11,15,6,13,5,3,7,2,10,9,12,8,14,4,1"
15535,commdev-image-keyboard-response,611,1522229,learnblock2,539,img/planet4_left.png,4,Community 3,NA,TRUE,f,f,NA,NA,NA,1,6,"11,15,6,13,5,3,7,2,10,9,12,8,14,4,1"
15535,commdev-image-keyboard-response,612,1523484,learnblock2,591,img/planet1_right.png,1,Community 3,NA,TRUE,j,j,NA,NA,NA,1,6,"11,15,6,13,5,3,7,2,10,9,12,8,14,4,1"
15535,commdev-image-keyboard-response,613,1524739,learnblock2,658,img/planet12_right.png,12,Community 3,NA,TRUE,j,j,NA,NA,NA,1,6,"11,15,6,13,5,3,7,2,10,9,12,8,14,4,1"
15535,commdev-image-keyboard-response,614,1525990,learnblock2,668,img/planet5_right.png,5,Community 1,NA,TRUE,j,j,NA,NA,NA,1,6,"11,15,6,13,5,3,7,2,10,9,12,8,14,4,1"
15535,commdev-image-keyboard-response,615,1527243,learnblock2,647,img/planet15_right.png,15,Community 1,NA,TRUE,j,j,NA,NA,NA,1,6,"11,15,6,13,5,3,7,2,10,9,12,8,14,4,1"
15535,commdev-image-keyboard-response,616,1528494,learnblock2,573,img/planet5_right.png,5,Community 1,NA,TRUE,j,j,NA,NA,NA,1,6,"11,15,6,13,5,3,7,2,10,9,12,8,14,4,1"
15535,commdev-image-keyboard-response,617,1529829,learnblock2,581,img/planet12_left.png,12,Community 3,NA,TRUE,f,f,NA,NA,NA,1,6,"11,15,6,13,5,3,7,2,10,9,12,8,14,4,1"
15535,commdev-image-keyboard-response,618,1531082,learnblock2,660,img/planet4_right.png,4,Community 3,NA,TRUE,j,j,NA,NA,NA,1,6,"11,15,6,13,5,3,7,2,10,9,12,8,14,4,1"
15535,commdev-image-keyboard-response,619,1532337,learnblock2,661,img/planet12_left.png,12,Community 3,NA,TRUE,f,f,NA,NA,NA,1,6,"11,15,6,13,5,3,7,2,10,9,12,8,14,4,1"
15535,commdev-image-keyboard-response,620,1533601,learnblock2,608,img/planet1_right.png,1,Community 3,NA,TRUE,j,j,NA,NA,NA,1,6,"11,15,6,13,5,3,7,2,10,9,12,8,14,4,1"
15535,commdev-image-keyboard-response,621,1534855,learnblock2,1050,img/planet8_right.png,8,Community 3,NA,TRUE,j,j,NA,NA,NA,1,6,"11,15,6,13,5,3,7,2,10,9,12,8,14,4,1"
15535,commdev-image-keyboard-response,622,1536120,learnblock2,480,img/planet2_right.png,2,Community 2,NA,TRUE,j,j,NA,NA,NA,1,6,"11,15,6,13,5,3,7,2,10,9,12,8,14,4,1"
15535,commdev-image-keyboard-response,623,1537383,learnblock2,598,img/planet10_left.png,10,Community 2,NA,TRUE,f,f,NA,NA,NA,1,6,"11,15,6,13,5,3,7,2,10,9,12,8,14,4,1"
