subject_id,trial_type,trial_index,time_elapsed,block,rt,stimulus,planet,community,response,correct,key_press,learning_correct_response,parse,init_locations,final_locations,browser_interactions,num_comp,planet_map
14981,commdev-instructions,7,45505,NA,1253,"<p>In this game, you will be shown a 3x3 grid of patterns.</p> <p>The last one in the bottom right-hand corner, <strong>will be missing:</strong></p> <div style='width: 700px;'><div style='float: top;'><img style='width: 200px;' src='practice/p1_M1.png'></img><p class='small'>You need to select<strong> which of the four possible patterns </strong>along the bottom<strong> fits into the gap:</strong></p></div><div style='float: top;'><img style='width: 300px;' src='practice/p1_T1.png'></img></div><br>",NA,NA,NA,NA,NA,NA,NA,NA,NA,3,6,"5,3,9,15,10,14,8,12,11,6,4,1,7,13,2"
14981,commdev-instructions,8,64994,NA,974,"<p>Try to be as fast and as accurate as you can be.</p> <p>If you cannot solve the puzzle then you should guess - you will not be penalised for an incorrect answer.</p> <p>The task contains a shuffled mix of easy, medium and hard puzzles.</p> <p>You will have <strong>30 seconds</strong> to complete each puzzle.</p><br>",NA,NA,NA,NA,NA,NA,NA,NA,NA,3,6,"5,3,9,15,10,14,8,12,11,6,4,1,7,13,2"
14981,commdev-instructions,15,92585,NA,2462.0000000000146,<p><strong>Success!</strong></p> <p>You seem to be getting the hang of this...</p> <p>Let's move on to the real trials.</p><br>,NA,NA,NA,NA,NA,NA,NA,NA,NA,3,6,"5,3,9,15,10,14,8,12,11,6,4,1,7,13,2"
14981,commdev-instructions,89,599187,NA,14710,"<p>In this game, you are a scientist on board a space shuttle. </p><p> On each mission, you will visit planets all across the universe.</p><img src=""img/controlroom.jpg"" width=300vw>",NA,NA,NA,NA,NA,NA,NA,NA,NA,3,6,"5,3,9,15,10,14,8,12,11,6,4,1,7,13,2"
14981,commdev-instructions,90,602418,NA,1163,"<p>Here are a few planets you might see:</p><img src=""img/practice1.png"" width=200vw><img src=""img/practice2.png"" width=200vw><img src=""img/practice3.png"" width=200vw>",NA,NA,NA,NA,NA,NA,NA,NA,NA,3,6,"5,3,9,15,10,14,8,12,11,6,4,1,7,13,2"
14981,commdev-instructions,91,611764,NA,1948.9999999998836,"<p>Your job as a scientist is to record which direction the winds are moving on each planet.</p><p>There are two types of wind directions:</p><img src=""img/practice1_left.png"" width=200vw><img src=""img/practice1_right.png"" width=200vw>",NA,NA,NA,NA,NA,NA,NA,NA,NA,3,6,"5,3,9,15,10,14,8,12,11,6,4,1,7,13,2"
14981,commdev-instructions,92,618988,NA,2348,"<p>If the winds are moving this way, press the letter <strong>F</strong> on the keyboard as fast as you can.</p><img src=""img/leftwind.png"" width=250vw>",NA,NA,NA,NA,NA,NA,NA,NA,NA,3,6,"5,3,9,15,10,14,8,12,11,6,4,1,7,13,2"
14981,commdev-instructions,93,624375,NA,892,"<p>If the winds are moving this way, press the letter <strong>J</strong> on the keyboard as fast as you can.</p><img src=""img/rightwind.png"" width=350vw>",NA,NA,NA,NA,NA,NA,NA,NA,NA,3,6,"5,3,9,15,10,14,8,12,11,6,4,1,7,13,2"
14981,commdev-instructions,94,630306,NA,1509,<p>You will have 1 second to respond. Try to respond before the time runs out!,NA,NA,NA,NA,NA,NA,NA,NA,NA,3,6,"5,3,9,15,10,14,8,12,11,6,4,1,7,13,2"
14981,commdev-instructions,95,640859,NA,5124,<p>The planets you will visit will look different from each other.</p><p>You should respond <strong>only</strong> based on wind direction.,NA,NA,NA,NA,NA,NA,NA,NA,NA,3,6,"5,3,9,15,10,14,8,12,11,6,4,1,7,13,2"
14981,commdev-instructions,96,648302,NA,2276,"<p> Ready to start the practice round? </p><p> Remember, press <strong>F</strong> or <strong>J</strong> depending on the wind direction.<br><img src=""img/categorize_planet_example.png""",NA,NA,NA,NA,NA,NA,NA,NA,NA,3,6,"5,3,9,15,10,14,8,12,11,6,4,1,7,13,2"
14981,commdev-instructions,108,708806,NA,1612,"<p>Great, now try a short practice mission. </p><p> This time, you will have 1 second to respond and you won't know whether you pressed the right or wrong key for each planet.</p>",NA,NA,NA,NA,NA,NA,NA,NA,NA,3,6,"5,3,9,15,10,14,8,12,11,6,4,1,7,13,2"
14981,commdev-image-keyboard-response,109,710159,practice,null,img/practice3_right.png,NA,Number not found in mappings,NA,FALSE,null,j,NA,NA,NA,3,6,"5,3,9,15,10,14,8,12,11,6,4,1,7,13,2"
14981,commdev-image-keyboard-response,110,711412,practice,98,img/practice2_right.png,NA,Number not found in mappings,NA,TRUE,j,j,NA,NA,NA,3,6,"5,3,9,15,10,14,8,12,11,6,4,1,7,13,2"
14981,commdev-image-keyboard-response,111,712664,practice,null,img/practice3_right.png,NA,Number not found in mappings,NA,FALSE,null,j,NA,NA,NA,3,6,"5,3,9,15,10,14,8,12,11,6,4,1,7,13,2"
14981,commdev-image-keyboard-response,112,713916,practice,210,img/practice4_left.png,NA,Number not found in mappings,NA,FALSE,j,f,NA,NA,NA,3,6,"5,3,9,15,10,14,8,12,11,6,4,1,7,13,2"
14981,commdev-image-keyboard-response,113,715169,practice,652,img/practice2_left.png,NA,Number not found in mappings,NA,FALSE,j,f,NA,NA,NA,3,6,"5,3,9,15,10,14,8,12,11,6,4,1,7,13,2"
14981,commdev-image-keyboard-response,114,716421,practice,633,img/practice1_right.png,NA,Number not found in mappings,NA,FALSE,f,j,NA,NA,NA,3,6,"5,3,9,15,10,14,8,12,11,6,4,1,7,13,2"
14981,commdev-image-keyboard-response,115,717673,practice,865,img/practice4_left.png,NA,Number not found in mappings,NA,TRUE,f,f,NA,NA,NA,3,6,"5,3,9,15,10,14,8,12,11,6,4,1,7,13,2"
14981,commdev-image-keyboard-response,116,718926,practice,834,img/practice2_right.png,NA,Number not found in mappings,NA,TRUE,j,j,NA,NA,NA,3,6,"5,3,9,15,10,14,8,12,11,6,4,1,7,13,2"
14981,commdev-instructions,117,730563,NA,2084,"<p>Great job with the practice round.</p><p>During real missions, you won't know whether you pressed the right or wrong key for each planet.</p><p>But between missions, we will tell you how you did overall.</p>",NA,NA,NA,NA,NA,NA,NA,NA,NA,3,6,"5,3,9,15,10,14,8,12,11,6,4,1,7,13,2"
14981,commdev-instructions,118,740231,NA,1432,<p>Try your best! You will be paid a bonus based on how many correct responses you make!</p><p>Responses that are too slow will not count toward your bonus.</p>,NA,NA,NA,NA,NA,NA,NA,NA,NA,3,6,"5,3,9,15,10,14,8,12,11,6,4,1,7,13,2"
14981,commdev-instructions,119,747494,NA,1066,"<p>You are almost ready to start the real game.</p><p> First, we are going to ask you some questions about how the game works.</p>",NA,NA,NA,NA,NA,NA,NA,NA,NA,3,6,"5,3,9,15,10,14,8,12,11,6,4,1,7,13,2"
14981,commdev-instructions,128,824755,NA,2290,"<p> Nice work! It is now time to start the real game.<p></p>You will go on two missions to record wind directions of different planets.<p></p>Each one will take about 5 minutes. You will get to take a break between missions.<p><p> Remember, press <strong>F</strong> or <strong>J</strong> depending on the wind direction. Good luck!<br><img src=""img/categorize_planet_example.png""",NA,NA,NA,NA,NA,NA,NA,NA,NA,3,6,"5,3,9,15,10,14,8,12,11,6,4,1,7,13,2"
14981,commdev-image-keyboard-response,130,827761,learnblock1,null,img/planet11_right.png,11,Community 2,NA,FALSE,null,j,NA,NA,NA,3,6,"5,3,9,15,10,14,8,12,11,6,4,1,7,13,2"
14981,commdev-image-keyboard-response,131,829013,learnblock1,135.99999999988358,img/planet6_right.png,6,Community 2,NA,TRUE,j,j,NA,NA,NA,3,6,"5,3,9,15,10,14,8,12,11,6,4,1,7,13,2"
14981,commdev-image-keyboard-response,132,830265,learnblock1,660,img/planet14_right.png,14,Community 2,NA,TRUE,j,j,NA,NA,NA,3,6,"5,3,9,15,10,14,8,12,11,6,4,1,7,13,2"
14981,commdev-image-keyboard-response,133,831518,learnblock1,661,img/planet11_left.png,11,Community 2,NA,TRUE,f,f,NA,NA,NA,3,6,"5,3,9,15,10,14,8,12,11,6,4,1,7,13,2"
14981,commdev-image-keyboard-response,134,832770,learnblock1,784,img/planet6_left.png,6,Community 2,NA,TRUE,f,f,NA,NA,NA,3,6,"5,3,9,15,10,14,8,12,11,6,4,1,7,13,2"
14981,commdev-image-keyboard-response,135,834021,learnblock1,915.0000000001164,img/planet11_right.png,11,Community 2,NA,TRUE,j,j,NA,NA,NA,3,6,"5,3,9,15,10,14,8,12,11,6,4,1,7,13,2"
14981,commdev-image-keyboard-response,136,835274,learnblock1,875,img/planet14_left.png,14,Community 2,NA,TRUE,f,f,NA,NA,NA,3,6,"5,3,9,15,10,14,8,12,11,6,4,1,7,13,2"
14981,commdev-image-keyboard-response,137,836526,learnblock1,848.0000000001164,img/planet11_right.png,11,Community 2,NA,TRUE,j,j,NA,NA,NA,3,6,"5,3,9,15,10,14,8,12,11,6,4,1,7,13,2"
14981,commdev-image-keyboard-response,138,837779,learnblock1,754,img/planet6_left.png,6,Community 2,NA,TRUE,f,f,NA,NA,NA,3,6,"5,3,9,15,10,14,8,12,11,6,4,1,7,13,2"
14981,commdev-image-keyboard-response,139,839031,learnblock1,611,img/planet12_right.png,12,Community 2,NA,TRUE,j,j,NA,NA,NA,3,6,"5,3,9,15,10,14,8,12,11,6,4,1,7,13,2"
14981,commdev-image-keyboard-response,140,840282,learnblock1,625,img/planet8_left.png,8,Community 2,NA,TRUE,f,f,NA,NA,NA,3,6,"5,3,9,15,10,14,8,12,11,6,4,1,7,13,2"
14981,commdev-image-keyboard-response,141,841533,learnblock1,708,img/planet6_left.png,6,Community 2,NA,TRUE,f,f,NA,NA,NA,3,6,"5,3,9,15,10,14,8,12,11,6,4,1,7,13,2"
14981,commdev-image-keyboard-response,142,842785,learnblock1,705,img/planet8_left.png,8,Community 2,NA,TRUE,f,f,NA,NA,NA,3,6,"5,3,9,15,10,14,8,12,11,6,4,1,7,13,2"
14981,commdev-image-keyboard-response,143,844037,learnblock1,477.0000000001164,img/planet11_left.png,11,Community 2,NA,TRUE,f,f,NA,NA,NA,3,6,"5,3,9,15,10,14,8,12,11,6,4,1,7,13,2"
14981,commdev-image-keyboard-response,144,845289,learnblock1,351,img/planet12_right.png,12,Community 2,NA,FALSE,f,j,NA,NA,NA,3,6,"5,3,9,15,10,14,8,12,11,6,4,1,7,13,2"
14981,commdev-image-keyboard-response,145,846542,learnblock1,785.0000000001164,img/planet1_right.png,1,Community 3,NA,TRUE,j,j,NA,NA,NA,3,6,"5,3,9,15,10,14,8,12,11,6,4,1,7,13,2"
14981,commdev-image-keyboard-response,146,847794,learnblock1,674,img/planet2_right.png,2,Community 3,NA,TRUE,j,j,NA,NA,NA,3,6,"5,3,9,15,10,14,8,12,11,6,4,1,7,13,2"
14981,commdev-image-keyboard-response,147,849045,learnblock1,542,img/planet13_left.png,13,Community 3,NA,TRUE,f,f,NA,NA,NA,3,6,"5,3,9,15,10,14,8,12,11,6,4,1,7,13,2"
14981,commdev-image-keyboard-response,148,850298,learnblock1,560.9999999998836,img/planet2_left.png,2,Community 3,NA,TRUE,f,f,NA,NA,NA,3,6,"5,3,9,15,10,14,8,12,11,6,4,1,7,13,2"
14981,commdev-image-keyboard-response,149,851550,learnblock1,605,img/planet1_right.png,1,Community 3,NA,TRUE,j,j,NA,NA,NA,3,6,"5,3,9,15,10,14,8,12,11,6,4,1,7,13,2"
14981,commdev-image-keyboard-response,150,852801,learnblock1,391,img/planet12_left.png,12,Community 2,NA,TRUE,f,f,NA,NA,NA,3,6,"5,3,9,15,10,14,8,12,11,6,4,1,7,13,2"
14981,commdev-image-keyboard-response,151,854053,learnblock1,484.0000000001164,img/planet11_left.png,11,Community 2,NA,FALSE,j,f,NA,NA,NA,3,6,"5,3,9,15,10,14,8,12,11,6,4,1,7,13,2"
14981,commdev-image-keyboard-response,152,855305,learnblock1,419,img/planet8_right.png,8,Community 2,NA,FALSE,f,j,NA,NA,NA,3,6,"5,3,9,15,10,14,8,12,11,6,4,1,7,13,2"
14981,commdev-image-keyboard-response,153,856558,learnblock1,891,img/planet12_right.png,12,Community 2,NA,TRUE,j,j,NA,NA,NA,3,6,"5,3,9,15,10,14,8,12,11,6,4,1,7,13,2"
14981,commdev-image-keyboard-response,154,857810,learnblock1,516.0000000001164,img/planet11_right.png,11,Community 2,NA,TRUE,j,j,NA,NA,NA,3,6,"5,3,9,15,10,14,8,12,11,6,4,1,7,13,2"
14981,commdev-image-keyboard-response,155,859062,learnblock1,559,img/planet14_right.png,14,Community 2,NA,TRUE,j,j,NA,NA,NA,3,6,"5,3,9,15,10,14,8,12,11,6,4,1,7,13,2"
14981,commdev-image-keyboard-response,156,860313,learnblock1,579.0000000001164,img/planet15_left.png,15,Community 1,NA,TRUE,f,f,NA,NA,NA,3,6,"5,3,9,15,10,14,8,12,11,6,4,1,7,13,2"
14981,commdev-image-keyboard-response,157,861564,learnblock1,612.0000000001164,img/planet14_right.png,14,Community 2,NA,TRUE,j,j,NA,NA,NA,3,6,"5,3,9,15,10,14,8,12,11,6,4,1,7,13,2"
14981,commdev-image-keyboard-response,158,862816,learnblock1,556.9999999998836,img/planet6_left.png,6,Community 2,NA,TRUE,f,f,NA,NA,NA,3,6,"5,3,9,15,10,14,8,12,11,6,4,1,7,13,2"
14981,commdev-image-keyboard-response,159,864068,learnblock1,646,img/planet14_left.png,14,Community 2,NA,TRUE,f,f,NA,NA,NA,3,6,"5,3,9,15,10,14,8,12,11,6,4,1,7,13,2"
14981,commdev-image-keyboard-response,160,865320,learnblock1,596,img/planet6_right.png,6,Community 2,NA,TRUE,j,j,NA,NA,NA,3,6,"5,3,9,15,10,14,8,12,11,6,4,1,7,13,2"
14981,commdev-image-keyboard-response,161,866571,learnblock1,363.9999999998836,img/planet11_right.png,11,Community 2,NA,FALSE,f,j,NA,NA,NA,3,6,"5,3,9,15,10,14,8,12,11,6,4,1,7,13,2"
14981,commdev-image-keyboard-response,162,867823,learnblock1,null,img/planet8_right.png,8,Community 2,NA,FALSE,null,j,NA,NA,NA,3,6,"5,3,9,15,10,14,8,12,11,6,4,1,7,13,2"
14981,commdev-image-keyboard-response,163,869074,learnblock1,96,img/planet14_left.png,14,Community 2,NA,FALSE,j,f,NA,NA,NA,3,6,"5,3,9,15,10,14,8,12,11,6,4,1,7,13,2"
14981,commdev-image-keyboard-response,164,870325,learnblock1,720,img/planet6_left.png,6,Community 2,NA,TRUE,f,f,NA,NA,NA,3,6,"5,3,9,15,10,14,8,12,11,6,4,1,7,13,2"
14981,commdev-image-keyboard-response,165,871578,learnblock1,808,img/planet8_left.png,8,Community 2,NA,TRUE,f,f,NA,NA,NA,3,6,"5,3,9,15,10,14,8,12,11,6,4,1,7,13,2"
14981,commdev-image-keyboard-response,166,872829,learnblock1,642,img/planet14_left.png,14,Community 2,NA,TRUE,f,f,NA,NA,NA,3,6,"5,3,9,15,10,14,8,12,11,6,4,1,7,13,2"
14981,commdev-image-keyboard-response,167,874081,learnblock1,600,img/planet11_right.png,11,Community 2,NA,TRUE,j,j,NA,NA,NA,3,6,"5,3,9,15,10,14,8,12,11,6,4,1,7,13,2"
14981,commdev-image-keyboard-response,168,875333,learnblock1,707,img/planet14_right.png,14,Community 2,NA,TRUE,j,j,NA,NA,NA,3,6,"5,3,9,15,10,14,8,12,11,6,4,1,7,13,2"
14981,commdev-image-keyboard-response,169,876585,learnblock1,513,img/planet11_right.png,11,Community 2,NA,TRUE,j,j,NA,NA,NA,3,6,"5,3,9,15,10,14,8,12,11,6,4,1,7,13,2"
14981,commdev-image-keyboard-response,170,877837,learnblock1,601,img/planet12_left.png,12,Community 2,NA,TRUE,f,f,NA,NA,NA,3,6,"5,3,9,15,10,14,8,12,11,6,4,1,7,13,2"
14981,commdev-image-keyboard-response,171,879089,learnblock1,545,img/planet1_left.png,1,Community 3,NA,TRUE,f,f,NA,NA,NA,3,6,"5,3,9,15,10,14,8,12,11,6,4,1,7,13,2"
14981,commdev-image-keyboard-response,172,880341,learnblock1,627.9999999998836,img/planet2_left.png,2,Community 3,NA,TRUE,f,f,NA,NA,NA,3,6,"5,3,9,15,10,14,8,12,11,6,4,1,7,13,2"
14981,commdev-image-keyboard-response,173,881592,learnblock1,630,img/planet4_right.png,4,Community 3,NA,TRUE,j,j,NA,NA,NA,3,6,"5,3,9,15,10,14,8,12,11,6,4,1,7,13,2"
14981,commdev-image-keyboard-response,174,882844,learnblock1,347.0000000001164,img/planet10_left.png,10,Community 1,NA,TRUE,f,f,NA,NA,NA,3,6,"5,3,9,15,10,14,8,12,11,6,4,1,7,13,2"
14981,commdev-image-keyboard-response,175,884097,learnblock1,618,img/planet4_right.png,4,Community 3,NA,TRUE,j,j,NA,NA,NA,3,6,"5,3,9,15,10,14,8,12,11,6,4,1,7,13,2"
14981,commdev-image-keyboard-response,176,885349,learnblock1,616.0000000001164,img/planet7_right.png,7,Community 3,NA,FALSE,f,j,NA,NA,NA,3,6,"5,3,9,15,10,14,8,12,11,6,4,1,7,13,2"
14981,commdev-image-keyboard-response,177,886600,learnblock1,501.9999999998836,img/planet1_left.png,1,Community 3,NA,TRUE,f,f,NA,NA,NA,3,6,"5,3,9,15,10,14,8,12,11,6,4,1,7,13,2"
14981,commdev-image-keyboard-response,178,887853,learnblock1,847,img/planet2_right.png,2,Community 3,NA,TRUE,j,j,NA,NA,NA,3,6,"5,3,9,15,10,14,8,12,11,6,4,1,7,13,2"
14981,commdev-image-keyboard-response,179,889105,learnblock1,785,img/planet4_right.png,4,Community 3,NA,TRUE,j,j,NA,NA,NA,3,6,"5,3,9,15,10,14,8,12,11,6,4,1,7,13,2"
14981,commdev-image-keyboard-response,180,890358,learnblock1,620,img/planet7_left.png,7,Community 3,NA,TRUE,f,f,NA,NA,NA,3,6,"5,3,9,15,10,14,8,12,11,6,4,1,7,13,2"
14981,commdev-image-keyboard-response,181,891611,learnblock1,604,img/planet2_right.png,2,Community 3,NA,TRUE,j,j,NA,NA,NA,3,6,"5,3,9,15,10,14,8,12,11,6,4,1,7,13,2"
14981,commdev-image-keyboard-response,182,892862,learnblock1,552,img/planet13_left.png,13,Community 3,NA,TRUE,f,f,NA,NA,NA,3,6,"5,3,9,15,10,14,8,12,11,6,4,1,7,13,2"
14981,commdev-image-keyboard-response,183,894114,learnblock1,602.9999999998836,img/planet1_left.png,1,Community 3,NA,TRUE,f,f,NA,NA,NA,3,6,"5,3,9,15,10,14,8,12,11,6,4,1,7,13,2"
14981,commdev-image-keyboard-response,184,895367,learnblock1,973,img/planet12_left.png,12,Community 2,NA,TRUE,f,f,NA,NA,NA,3,6,"5,3,9,15,10,14,8,12,11,6,4,1,7,13,2"
14981,commdev-image-keyboard-response,185,896619,learnblock1,630.9999999998836,img/planet6_right.png,6,Community 2,NA,TRUE,j,j,NA,NA,NA,3,6,"5,3,9,15,10,14,8,12,11,6,4,1,7,13,2"
14981,commdev-image-keyboard-response,186,897871,learnblock1,775,img/planet8_left.png,8,Community 2,NA,TRUE,f,f,NA,NA,NA,3,6,"5,3,9,15,10,14,8,12,11,6,4,1,7,13,2"
14981,commdev-image-keyboard-response,187,899123,learnblock1,507,img/planet12_right.png,12,Community 2,NA,TRUE,j,j,NA,NA,NA,3,6,"5,3,9,15,10,14,8,12,11,6,4,1,7,13,2"
14981,commdev-image-keyboard-response,188,900376,learnblock1,566.0000000001164,img/planet8_left.png,8,Community 2,NA,TRUE,f,f,NA,NA,NA,3,6,"5,3,9,15,10,14,8,12,11,6,4,1,7,13,2"
14981,commdev-image-keyboard-response,189,901628,learnblock1,536,img/planet14_right.png,14,Community 2,NA,TRUE,j,j,NA,NA,NA,3,6,"5,3,9,15,10,14,8,12,11,6,4,1,7,13,2"
14981,commdev-image-keyboard-response,190,902881,learnblock1,799,img/planet6_left.png,6,Community 2,NA,TRUE,f,f,NA,NA,NA,3,6,"5,3,9,15,10,14,8,12,11,6,4,1,7,13,2"
14981,commdev-image-keyboard-response,191,904133,learnblock1,653,img/planet14_right.png,14,Community 2,NA,TRUE,j,j,NA,NA,NA,3,6,"5,3,9,15,10,14,8,12,11,6,4,1,7,13,2"
14981,commdev-image-keyboard-response,192,905386,learnblock1,467,img/planet8_right.png,8,Community 2,NA,TRUE,j,j,NA,NA,NA,3,6,"5,3,9,15,10,14,8,12,11,6,4,1,7,13,2"
14981,commdev-image-keyboard-response,193,906638,learnblock1,656,img/planet14_left.png,14,Community 2,NA,TRUE,f,f,NA,NA,NA,3,6,"5,3,9,15,10,14,8,12,11,6,4,1,7,13,2"
14981,commdev-image-keyboard-response,194,907891,learnblock1,623.0000000001164,img/planet15_right.png,15,Community 1,NA,TRUE,j,j,NA,NA,NA,3,6,"5,3,9,15,10,14,8,12,11,6,4,1,7,13,2"
14981,commdev-image-keyboard-response,195,909142,learnblock1,497,img/planet9_left.png,9,Community 1,NA,FALSE,j,f,NA,NA,NA,3,6,"5,3,9,15,10,14,8,12,11,6,4,1,7,13,2"
14981,commdev-image-keyboard-response,196,910394,learnblock1,598,img/planet15_left.png,15,Community 1,NA,TRUE,f,f,NA,NA,NA,3,6,"5,3,9,15,10,14,8,12,11,6,4,1,7,13,2"
14981,commdev-image-keyboard-response,197,911647,learnblock1,815,img/planet14_left.png,14,Community 2,NA,TRUE,f,f,NA,NA,NA,3,6,"5,3,9,15,10,14,8,12,11,6,4,1,7,13,2"
14981,commdev-image-keyboard-response,198,912898,learnblock1,741.9999999998836,img/planet11_right.png,11,Community 2,NA,TRUE,j,j,NA,NA,NA,3,6,"5,3,9,15,10,14,8,12,11,6,4,1,7,13,2"
14981,commdev-image-keyboard-response,199,914150,learnblock1,734,img/planet12_left.png,12,Community 2,NA,TRUE,f,f,NA,NA,NA,3,6,"5,3,9,15,10,14,8,12,11,6,4,1,7,13,2"
14981,commdev-image-keyboard-response,200,915402,learnblock1,634,img/planet1_right.png,1,Community 3,NA,TRUE,j,j,NA,NA,NA,3,6,"5,3,9,15,10,14,8,12,11,6,4,1,7,13,2"
14981,commdev-image-keyboard-response,201,916654,learnblock1,170,img/planet7_left.png,7,Community 3,NA,FALSE,j,f,NA,NA,NA,3,6,"5,3,9,15,10,14,8,12,11,6,4,1,7,13,2"
14981,commdev-image-keyboard-response,202,917906,learnblock1,675,img/planet2_right.png,2,Community 3,NA,TRUE,j,j,NA,NA,NA,3,6,"5,3,9,15,10,14,8,12,11,6,4,1,7,13,2"
14981,commdev-image-keyboard-response,203,919158,learnblock1,756,img/planet13_left.png,13,Community 3,NA,TRUE,f,f,NA,NA,NA,3,6,"5,3,9,15,10,14,8,12,11,6,4,1,7,13,2"
14981,commdev-image-keyboard-response,204,920409,learnblock1,696,img/planet4_left.png,4,Community 3,NA,TRUE,f,f,NA,NA,NA,3,6,"5,3,9,15,10,14,8,12,11,6,4,1,7,13,2"
14981,commdev-image-keyboard-response,205,921661,learnblock1,594,img/planet13_right.png,13,Community 3,NA,TRUE,j,j,NA,NA,NA,3,6,"5,3,9,15,10,14,8,12,11,6,4,1,7,13,2"
14981,commdev-image-keyboard-response,206,922913,learnblock1,654.9999999998836,img/planet7_right.png,7,Community 3,NA,TRUE,j,j,NA,NA,NA,3,6,"5,3,9,15,10,14,8,12,11,6,4,1,7,13,2"
14981,commdev-image-keyboard-response,207,924165,learnblock1,758,img/planet1_right.png,1,Community 3,NA,TRUE,j,j,NA,NA,NA,3,6,"5,3,9,15,10,14,8,12,11,6,4,1,7,13,2"
14981,commdev-image-keyboard-response,208,925417,learnblock1,729.9999999998836,img/planet7_left.png,7,Community 3,NA,TRUE,f,f,NA,NA,NA,3,6,"5,3,9,15,10,14,8,12,11,6,4,1,7,13,2"
14981,commdev-image-keyboard-response,209,926669,learnblock1,554,img/planet1_right.png,1,Community 3,NA,TRUE,j,j,NA,NA,NA,3,6,"5,3,9,15,10,14,8,12,11,6,4,1,7,13,2"
14981,commdev-image-keyboard-response,210,927921,learnblock1,246,img/planet7_left.png,7,Community 3,NA,FALSE,j,f,NA,NA,NA,3,6,"5,3,9,15,10,14,8,12,11,6,4,1,7,13,2"
14981,commdev-image-keyboard-response,211,929172,learnblock1,611.9999999998836,img/planet1_left.png,1,Community 3,NA,TRUE,f,f,NA,NA,NA,3,6,"5,3,9,15,10,14,8,12,11,6,4,1,7,13,2"
14981,commdev-image-keyboard-response,212,930424,learnblock1,694,img/planet12_right.png,12,Community 2,NA,TRUE,j,j,NA,NA,NA,3,6,"5,3,9,15,10,14,8,12,11,6,4,1,7,13,2"
14981,commdev-image-keyboard-response,213,931676,learnblock1,711,img/planet6_right.png,6,Community 2,NA,TRUE,j,j,NA,NA,NA,3,6,"5,3,9,15,10,14,8,12,11,6,4,1,7,13,2"
14981,commdev-image-keyboard-response,214,932928,learnblock1,549.9999999998836,img/planet11_left.png,11,Community 2,NA,FALSE,j,f,NA,NA,NA,3,6,"5,3,9,15,10,14,8,12,11,6,4,1,7,13,2"
14981,commdev-image-keyboard-response,215,934180,learnblock1,553,img/planet12_right.png,12,Community 2,NA,TRUE,j,j,NA,NA,NA,3,6,"5,3,9,15,10,14,8,12,11,6,4,1,7,13,2"
14981,commdev-image-keyboard-response,216,935432,learnblock1,632,img/planet1_left.png,1,Community 3,NA,TRUE,f,f,NA,NA,NA,3,6,"5,3,9,15,10,14,8,12,11,6,4,1,7,13,2"
14981,commdev-image-keyboard-response,217,936684,learnblock1,1224,img/planet7_left.png,7,Community 3,NA,TRUE,f,f,NA,NA,NA,3,6,"5,3,9,15,10,14,8,12,11,6,4,1,7,13,2"
14981,commdev-image-keyboard-response,218,937937,learnblock1,731,img/planet2_right.png,2,Community 3,NA,TRUE,j,j,NA,NA,NA,3,6,"5,3,9,15,10,14,8,12,11,6,4,1,7,13,2"
14981,commdev-image-keyboard-response,219,939189,learnblock1,908,img/planet7_right.png,7,Community 3,NA,TRUE,j,j,NA,NA,NA,3,6,"5,3,9,15,10,14,8,12,11,6,4,1,7,13,2"
14981,commdev-image-keyboard-response,220,940441,learnblock1,664,img/planet1_right.png,1,Community 3,NA,TRUE,j,j,NA,NA,NA,3,6,"5,3,9,15,10,14,8,12,11,6,4,1,7,13,2"
14981,commdev-image-keyboard-response,221,941694,learnblock1,645,img/planet12_left.png,12,Community 2,NA,TRUE,f,f,NA,NA,NA,3,6,"5,3,9,15,10,14,8,12,11,6,4,1,7,13,2"
14981,commdev-image-keyboard-response,222,942946,learnblock1,876.0000000001164,img/planet8_left.png,8,Community 2,NA,TRUE,f,f,NA,NA,NA,3,6,"5,3,9,15,10,14,8,12,11,6,4,1,7,13,2"
14981,commdev-image-keyboard-response,223,944198,learnblock1,698,img/planet11_right.png,11,Community 2,NA,TRUE,j,j,NA,NA,NA,3,6,"5,3,9,15,10,14,8,12,11,6,4,1,7,13,2"
14981,commdev-image-keyboard-response,224,945450,learnblock1,771,img/planet6_right.png,6,Community 2,NA,TRUE,j,j,NA,NA,NA,3,6,"5,3,9,15,10,14,8,12,11,6,4,1,7,13,2"
14981,commdev-image-keyboard-response,225,946703,learnblock1,648.0000000001164,img/planet11_left.png,11,Community 2,NA,TRUE,f,f,NA,NA,NA,3,6,"5,3,9,15,10,14,8,12,11,6,4,1,7,13,2"
14981,commdev-image-keyboard-response,226,947954,learnblock1,552,img/planet6_left.png,6,Community 2,NA,TRUE,f,f,NA,NA,NA,3,6,"5,3,9,15,10,14,8,12,11,6,4,1,7,13,2"
14981,commdev-image-keyboard-response,227,949206,learnblock1,721,img/planet11_left.png,11,Community 2,NA,TRUE,f,f,NA,NA,NA,3,6,"5,3,9,15,10,14,8,12,11,6,4,1,7,13,2"
14981,commdev-image-keyboard-response,228,950457,learnblock1,572,img/planet14_right.png,14,Community 2,NA,TRUE,j,j,NA,NA,NA,3,6,"5,3,9,15,10,14,8,12,11,6,4,1,7,13,2"
14981,commdev-image-keyboard-response,229,951709,learnblock1,782,img/planet6_right.png,6,Community 2,NA,TRUE,j,j,NA,NA,NA,3,6,"5,3,9,15,10,14,8,12,11,6,4,1,7,13,2"
14981,commdev-image-keyboard-response,230,952960,learnblock1,447.9999999998836,img/planet14_left.png,14,Community 2,NA,FALSE,j,f,NA,NA,NA,3,6,"5,3,9,15,10,14,8,12,11,6,4,1,7,13,2"
14981,commdev-image-keyboard-response,231,954213,learnblock1,861,img/planet8_left.png,8,Community 2,NA,TRUE,f,f,NA,NA,NA,3,6,"5,3,9,15,10,14,8,12,11,6,4,1,7,13,2"
14981,commdev-image-keyboard-response,232,955463,learnblock1,706,img/planet12_left.png,12,Community 2,NA,TRUE,f,f,NA,NA,NA,3,6,"5,3,9,15,10,14,8,12,11,6,4,1,7,13,2"
14981,commdev-image-keyboard-response,233,956715,learnblock1,784.9999999998836,img/planet8_left.png,8,Community 2,NA,TRUE,f,f,NA,NA,NA,3,6,"5,3,9,15,10,14,8,12,11,6,4,1,7,13,2"
14981,commdev-image-keyboard-response,234,957967,learnblock1,872,img/planet14_right.png,14,Community 2,NA,TRUE,j,j,NA,NA,NA,3,6,"5,3,9,15,10,14,8,12,11,6,4,1,7,13,2"
14981,commdev-image-keyboard-response,235,959218,learnblock1,679.0000000001164,img/planet6_left.png,6,Community 2,NA,TRUE,f,f,NA,NA,NA,3,6,"5,3,9,15,10,14,8,12,11,6,4,1,7,13,2"
14981,commdev-image-keyboard-response,236,960470,learnblock1,1029,img/planet14_left.png,14,Community 2,NA,TRUE,f,f,NA,NA,NA,3,6,"5,3,9,15,10,14,8,12,11,6,4,1,7,13,2"
14981,commdev-image-keyboard-response,237,961722,learnblock1,710,img/planet15_right.png,15,Community 1,NA,TRUE,j,j,NA,NA,NA,3,6,"5,3,9,15,10,14,8,12,11,6,4,1,7,13,2"
14981,commdev-image-keyboard-response,238,962974,learnblock1,580,img/planet14_left.png,14,Community 2,NA,TRUE,f,f,NA,NA,NA,3,6,"5,3,9,15,10,14,8,12,11,6,4,1,7,13,2"
14981,commdev-image-keyboard-response,239,964225,learnblock1,575.9999999998836,img/planet11_left.png,11,Community 2,NA,TRUE,f,f,NA,NA,NA,3,6,"5,3,9,15,10,14,8,12,11,6,4,1,7,13,2"
14981,commdev-image-keyboard-response,240,965477,learnblock1,1055,img/planet14_left.png,14,Community 2,NA,TRUE,f,f,NA,NA,NA,3,6,"5,3,9,15,10,14,8,12,11,6,4,1,7,13,2"
14981,commdev-image-keyboard-response,241,966729,learnblock1,834,img/planet15_left.png,15,Community 1,NA,TRUE,f,f,NA,NA,NA,3,6,"5,3,9,15,10,14,8,12,11,6,4,1,7,13,2"
14981,commdev-image-keyboard-response,242,967982,learnblock1,704,img/planet5_left.png,5,Community 1,NA,TRUE,f,f,NA,NA,NA,3,6,"5,3,9,15,10,14,8,12,11,6,4,1,7,13,2"
14981,commdev-image-keyboard-response,243,969233,learnblock1,313,img/planet9_right.png,9,Community 1,NA,FALSE,f,j,NA,NA,NA,3,6,"5,3,9,15,10,14,8,12,11,6,4,1,7,13,2"
14981,commdev-image-keyboard-response,244,970486,learnblock1,876,img/planet5_right.png,5,Community 1,NA,TRUE,j,j,NA,NA,NA,3,6,"5,3,9,15,10,14,8,12,11,6,4,1,7,13,2"
14981,commdev-image-keyboard-response,245,971739,learnblock1,1146,img/planet10_left.png,10,Community 1,NA,FALSE,j,f,NA,NA,NA,3,6,"5,3,9,15,10,14,8,12,11,6,4,1,7,13,2"
14981,commdev-image-keyboard-response,246,972991,learnblock1,null,img/planet5_right.png,5,Community 1,NA,FALSE,null,j,NA,NA,NA,3,6,"5,3,9,15,10,14,8,12,11,6,4,1,7,13,2"
14981,commdev-image-keyboard-response,247,974244,learnblock1,694,img/planet9_right.png,9,Community 1,NA,TRUE,j,j,NA,NA,NA,3,6,"5,3,9,15,10,14,8,12,11,6,4,1,7,13,2"
14981,commdev-image-keyboard-response,248,975496,learnblock1,594,img/planet5_right.png,5,Community 1,NA,TRUE,j,j,NA,NA,NA,3,6,"5,3,9,15,10,14,8,12,11,6,4,1,7,13,2"
14981,commdev-image-keyboard-response,249,976748,learnblock1,498,img/planet9_left.png,9,Community 1,NA,FALSE,j,f,NA,NA,NA,3,6,"5,3,9,15,10,14,8,12,11,6,4,1,7,13,2"
14981,commdev-image-keyboard-response,250,977999,learnblock1,966,img/planet3_left.png,3,Community 1,NA,TRUE,f,f,NA,NA,NA,3,6,"5,3,9,15,10,14,8,12,11,6,4,1,7,13,2"
14981,commdev-image-keyboard-response,251,979251,learnblock1,1096,img/planet5_left.png,5,Community 1,NA,TRUE,f,f,NA,NA,NA,3,6,"5,3,9,15,10,14,8,12,11,6,4,1,7,13,2"
14981,commdev-image-keyboard-response,252,980504,learnblock1,1006,img/planet3_left.png,3,Community 1,NA,TRUE,f,f,NA,NA,NA,3,6,"5,3,9,15,10,14,8,12,11,6,4,1,7,13,2"
14981,commdev-image-keyboard-response,253,981756,learnblock1,966,img/planet5_left.png,5,Community 1,NA,TRUE,f,f,NA,NA,NA,3,6,"5,3,9,15,10,14,8,12,11,6,4,1,7,13,2"
14981,commdev-image-keyboard-response,254,983008,learnblock1,null,img/planet15_left.png,15,Community 1,NA,FALSE,null,f,NA,NA,NA,3,6,"5,3,9,15,10,14,8,12,11,6,4,1,7,13,2"
14981,commdev-image-keyboard-response,255,984260,learnblock1,294,img/planet3_right.png,3,Community 1,NA,TRUE,j,j,NA,NA,NA,3,6,"5,3,9,15,10,14,8,12,11,6,4,1,7,13,2"
14981,commdev-image-keyboard-response,256,985512,learnblock1,638,img/planet9_right.png,9,Community 1,NA,TRUE,j,j,NA,NA,NA,3,6,"5,3,9,15,10,14,8,12,11,6,4,1,7,13,2"
14981,commdev-image-keyboard-response,257,986766,learnblock1,493,img/planet10_left.png,10,Community 1,NA,FALSE,j,f,NA,NA,NA,3,6,"5,3,9,15,10,14,8,12,11,6,4,1,7,13,2"
14981,commdev-image-keyboard-response,258,988019,learnblock1,685.9999999998836,img/planet5_left.png,5,Community 1,NA,TRUE,f,f,NA,NA,NA,3,6,"5,3,9,15,10,14,8,12,11,6,4,1,7,13,2"
14981,commdev-image-keyboard-response,259,989272,learnblock1,364,img/planet9_right.png,9,Community 1,NA,FALSE,f,j,NA,NA,NA,3,6,"5,3,9,15,10,14,8,12,11,6,4,1,7,13,2"
14981,commdev-image-keyboard-response,260,990525,learnblock1,null,img/planet3_right.png,3,Community 1,NA,FALSE,null,j,NA,NA,NA,3,6,"5,3,9,15,10,14,8,12,11,6,4,1,7,13,2"
14981,commdev-image-keyboard-response,261,991777,learnblock1,780,img/planet10_left.png,10,Community 1,NA,FALSE,j,f,NA,NA,NA,3,6,"5,3,9,15,10,14,8,12,11,6,4,1,7,13,2"
14981,commdev-image-keyboard-response,262,993030,learnblock1,976,img/planet4_left.png,4,Community 3,NA,TRUE,f,f,NA,NA,NA,3,6,"5,3,9,15,10,14,8,12,11,6,4,1,7,13,2"
14981,commdev-image-keyboard-response,263,994283,learnblock1,664.9999999998836,img/planet13_left.png,13,Community 3,NA,TRUE,f,f,NA,NA,NA,3,6,"5,3,9,15,10,14,8,12,11,6,4,1,7,13,2"
14981,commdev-image-keyboard-response,264,995534,learnblock1,528,img/planet1_left.png,1,Community 3,NA,TRUE,f,f,NA,NA,NA,3,6,"5,3,9,15,10,14,8,12,11,6,4,1,7,13,2"
14981,commdev-image-keyboard-response,265,996787,learnblock1,394,img/planet13_left.png,13,Community 3,NA,TRUE,f,f,NA,NA,NA,3,6,"5,3,9,15,10,14,8,12,11,6,4,1,7,13,2"
14981,commdev-image-keyboard-response,266,998039,learnblock1,944,img/planet7_left.png,7,Community 3,NA,TRUE,f,f,NA,NA,NA,3,6,"5,3,9,15,10,14,8,12,11,6,4,1,7,13,2"
14981,commdev-image-keyboard-response,267,999291,learnblock1,561,img/planet1_left.png,1,Community 3,NA,TRUE,f,f,NA,NA,NA,3,6,"5,3,9,15,10,14,8,12,11,6,4,1,7,13,2"
14981,commdev-image-keyboard-response,268,1000543,learnblock1,817.9999999998836,img/planet13_right.png,13,Community 3,NA,TRUE,j,j,NA,NA,NA,3,6,"5,3,9,15,10,14,8,12,11,6,4,1,7,13,2"
14981,commdev-image-keyboard-response,269,1001796,learnblock1,867.0000000001164,img/planet1_right.png,1,Community 3,NA,TRUE,j,j,NA,NA,NA,3,6,"5,3,9,15,10,14,8,12,11,6,4,1,7,13,2"
14981,commdev-image-keyboard-response,270,1003048,learnblock1,530,img/planet13_right.png,13,Community 3,NA,TRUE,j,j,NA,NA,NA,3,6,"5,3,9,15,10,14,8,12,11,6,4,1,7,13,2"
14981,commdev-image-keyboard-response,271,1004299,learnblock1,215,img/planet2_left.png,2,Community 3,NA,FALSE,j,f,NA,NA,NA,3,6,"5,3,9,15,10,14,8,12,11,6,4,1,7,13,2"
14981,commdev-image-keyboard-response,272,1005551,learnblock1,592,img/planet13_right.png,13,Community 3,NA,FALSE,f,j,NA,NA,NA,3,6,"5,3,9,15,10,14,8,12,11,6,4,1,7,13,2"
14981,commdev-image-keyboard-response,273,1006804,learnblock1,663,img/planet4_right.png,4,Community 3,NA,TRUE,j,j,NA,NA,NA,3,6,"5,3,9,15,10,14,8,12,11,6,4,1,7,13,2"
14981,commdev-image-keyboard-response,274,1008056,learnblock1,null,img/planet2_right.png,2,Community 3,NA,FALSE,null,j,NA,NA,NA,3,6,"5,3,9,15,10,14,8,12,11,6,4,1,7,13,2"
14981,commdev-image-keyboard-response,275,1009308,learnblock1,170,img/planet13_right.png,13,Community 3,NA,TRUE,j,j,NA,NA,NA,3,6,"5,3,9,15,10,14,8,12,11,6,4,1,7,13,2"
14981,commdev-image-keyboard-response,276,1010559,learnblock1,511,img/planet2_left.png,2,Community 3,NA,FALSE,j,f,NA,NA,NA,3,6,"5,3,9,15,10,14,8,12,11,6,4,1,7,13,2"
14981,commdev-image-keyboard-response,277,1011812,learnblock1,782.9999999998836,img/planet4_left.png,4,Community 3,NA,TRUE,f,f,NA,NA,NA,3,6,"5,3,9,15,10,14,8,12,11,6,4,1,7,13,2"
14981,commdev-image-keyboard-response,278,1013064,learnblock1,null,img/planet2_right.png,2,Community 3,NA,FALSE,null,j,NA,NA,NA,3,6,"5,3,9,15,10,14,8,12,11,6,4,1,7,13,2"
14981,commdev-image-keyboard-response,279,1014317,learnblock1,550.9999999998836,img/planet1_right.png,1,Community 3,NA,TRUE,j,j,NA,NA,NA,3,6,"5,3,9,15,10,14,8,12,11,6,4,1,7,13,2"
14981,commdev-image-keyboard-response,280,1015569,learnblock1,null,img/planet7_right.png,7,Community 3,NA,FALSE,null,j,NA,NA,NA,3,6,"5,3,9,15,10,14,8,12,11,6,4,1,7,13,2"
14981,commdev-image-keyboard-response,281,1016822,learnblock1,8.999999999883585,img/planet2_left.png,2,Community 3,NA,FALSE,j,f,NA,NA,NA,3,6,"5,3,9,15,10,14,8,12,11,6,4,1,7,13,2"
14981,commdev-image-keyboard-response,282,1018075,learnblock1,640,img/planet4_right.png,4,Community 3,NA,TRUE,j,j,NA,NA,NA,3,6,"5,3,9,15,10,14,8,12,11,6,4,1,7,13,2"
14981,commdev-image-keyboard-response,283,1019327,learnblock1,693,img/planet10_left.png,10,Community 1,NA,FALSE,j,f,NA,NA,NA,3,6,"5,3,9,15,10,14,8,12,11,6,4,1,7,13,2"
14981,commdev-image-keyboard-response,284,1020580,learnblock1,809.0000000001164,img/planet3_left.png,3,Community 1,NA,TRUE,f,f,NA,NA,NA,3,6,"5,3,9,15,10,14,8,12,11,6,4,1,7,13,2"
14981,commdev-image-keyboard-response,285,1021832,learnblock1,662,img/planet10_left.png,10,Community 1,NA,TRUE,f,f,NA,NA,NA,3,6,"5,3,9,15,10,14,8,12,11,6,4,1,7,13,2"
14981,commdev-image-keyboard-response,286,1023084,learnblock1,401,img/planet3_left.png,3,Community 1,NA,TRUE,f,f,NA,NA,NA,3,6,"5,3,9,15,10,14,8,12,11,6,4,1,7,13,2"
14981,commdev-image-keyboard-response,287,1024336,learnblock1,610.9999999998836,img/planet10_left.png,10,Community 1,NA,TRUE,f,f,NA,NA,NA,3,6,"5,3,9,15,10,14,8,12,11,6,4,1,7,13,2"
14981,commdev-image-keyboard-response,288,1025588,learnblock1,717.0000000001164,img/planet4_left.png,4,Community 3,NA,TRUE,f,f,NA,NA,NA,3,6,"5,3,9,15,10,14,8,12,11,6,4,1,7,13,2"
14981,commdev-image-keyboard-response,289,1026841,learnblock1,616,img/planet2_left.png,2,Community 3,NA,TRUE,f,f,NA,NA,NA,3,6,"5,3,9,15,10,14,8,12,11,6,4,1,7,13,2"
14981,commdev-image-keyboard-response,290,1028094,learnblock1,359.9999999998836,img/planet4_left.png,4,Community 3,NA,TRUE,f,f,NA,NA,NA,3,6,"5,3,9,15,10,14,8,12,11,6,4,1,7,13,2"
14981,commdev-image-keyboard-response,291,1029347,learnblock1,848,img/planet13_left.png,13,Community 3,NA,TRUE,f,f,NA,NA,NA,3,6,"5,3,9,15,10,14,8,12,11,6,4,1,7,13,2"
14981,commdev-image-keyboard-response,292,1030599,learnblock1,813.0000000001164,img/planet7_right.png,7,Community 3,NA,FALSE,f,j,NA,NA,NA,3,6,"5,3,9,15,10,14,8,12,11,6,4,1,7,13,2"
14981,commdev-image-keyboard-response,293,1031852,learnblock1,871.0000000001164,img/planet4_right.png,4,Community 3,NA,TRUE,j,j,NA,NA,NA,3,6,"5,3,9,15,10,14,8,12,11,6,4,1,7,13,2"
14981,commdev-image-keyboard-response,294,1033105,learnblock1,645,img/planet7_right.png,7,Community 3,NA,TRUE,j,j,NA,NA,NA,3,6,"5,3,9,15,10,14,8,12,11,6,4,1,7,13,2"
14981,commdev-image-keyboard-response,295,1034357,learnblock1,520,img/planet4_left.png,4,Community 3,NA,FALSE,j,f,NA,NA,NA,3,6,"5,3,9,15,10,14,8,12,11,6,4,1,7,13,2"
14981,commdev-image-keyboard-response,296,1035610,learnblock1,591.0000000001164,img/planet10_left.png,10,Community 1,NA,FALSE,j,f,NA,NA,NA,3,6,"5,3,9,15,10,14,8,12,11,6,4,1,7,13,2"
14981,commdev-image-keyboard-response,297,1036862,learnblock1,282.9999999998836,img/planet3_right.png,3,Community 1,NA,FALSE,f,j,NA,NA,NA,3,6,"5,3,9,15,10,14,8,12,11,6,4,1,7,13,2"
14981,commdev-image-keyboard-response,298,1038115,learnblock1,1067,img/planet10_right.png,10,Community 1,NA,TRUE,j,j,NA,NA,NA,3,6,"5,3,9,15,10,14,8,12,11,6,4,1,7,13,2"
14981,commdev-image-keyboard-response,299,1039367,learnblock1,723.9999999998836,img/planet3_right.png,3,Community 1,NA,TRUE,j,j,NA,NA,NA,3,6,"5,3,9,15,10,14,8,12,11,6,4,1,7,13,2"
14981,commdev-image-keyboard-response,300,1040620,learnblock1,326,img/planet9_right.png,9,Community 1,NA,TRUE,j,j,NA,NA,NA,3,6,"5,3,9,15,10,14,8,12,11,6,4,1,7,13,2"
14981,commdev-image-keyboard-response,301,1041872,learnblock1,16.99999999976717,img/planet10_right.png,10,Community 1,NA,TRUE,j,j,NA,NA,NA,3,6,"5,3,9,15,10,14,8,12,11,6,4,1,7,13,2"
14981,commdev-image-keyboard-response,302,1043124,learnblock1,575,img/planet4_right.png,4,Community 3,NA,TRUE,j,j,NA,NA,NA,3,6,"5,3,9,15,10,14,8,12,11,6,4,1,7,13,2"
14981,commdev-image-keyboard-response,303,1044376,learnblock1,158.99999999988358,img/planet2_left.png,2,Community 3,NA,FALSE,j,f,NA,NA,NA,3,6,"5,3,9,15,10,14,8,12,11,6,4,1,7,13,2"
14981,commdev-image-keyboard-response,304,1045628,learnblock1,440,img/planet1_right.png,1,Community 3,NA,FALSE,f,j,NA,NA,NA,3,6,"5,3,9,15,10,14,8,12,11,6,4,1,7,13,2"
14981,commdev-image-keyboard-response,305,1046880,learnblock1,1042.0000000001164,img/planet12_left.png,12,Community 2,NA,TRUE,f,f,NA,NA,NA,3,6,"5,3,9,15,10,14,8,12,11,6,4,1,7,13,2"
14981,commdev-image-keyboard-response,306,1048133,learnblock1,720.9999999998836,img/planet8_right.png,8,Community 2,NA,TRUE,j,j,NA,NA,NA,3,6,"5,3,9,15,10,14,8,12,11,6,4,1,7,13,2"
14981,commdev-image-keyboard-response,307,1049388,learnblock1,889,img/planet6_left.png,6,Community 2,NA,TRUE,f,f,NA,NA,NA,3,6,"5,3,9,15,10,14,8,12,11,6,4,1,7,13,2"
14981,commdev-image-keyboard-response,308,1050641,learnblock1,736,img/planet11_left.png,11,Community 2,NA,FALSE,j,f,NA,NA,NA,3,6,"5,3,9,15,10,14,8,12,11,6,4,1,7,13,2"
14981,commdev-image-keyboard-response,309,1051894,learnblock1,815.0000000002328,img/planet14_right.png,14,Community 2,NA,TRUE,j,j,NA,NA,NA,3,6,"5,3,9,15,10,14,8,12,11,6,4,1,7,13,2"
14981,commdev-image-keyboard-response,310,1053146,learnblock1,699,img/planet11_right.png,11,Community 2,NA,TRUE,j,j,NA,NA,NA,3,6,"5,3,9,15,10,14,8,12,11,6,4,1,7,13,2"
14981,commdev-image-keyboard-response,311,1054400,learnblock1,735,img/planet6_left.png,6,Community 2,NA,TRUE,f,f,NA,NA,NA,3,6,"5,3,9,15,10,14,8,12,11,6,4,1,7,13,2"
14981,commdev-image-keyboard-response,312,1055652,learnblock1,751,img/planet14_right.png,14,Community 2,NA,TRUE,j,j,NA,NA,NA,3,6,"5,3,9,15,10,14,8,12,11,6,4,1,7,13,2"
14981,commdev-image-keyboard-response,313,1056904,learnblock1,null,img/planet15_left.png,15,Community 1,NA,FALSE,null,f,NA,NA,NA,3,6,"5,3,9,15,10,14,8,12,11,6,4,1,7,13,2"
14981,commdev-image-keyboard-response,314,1058157,learnblock1,491,img/planet14_left.png,14,Community 2,NA,TRUE,f,f,NA,NA,NA,3,6,"5,3,9,15,10,14,8,12,11,6,4,1,7,13,2"
14981,commdev-image-keyboard-response,315,1059409,learnblock1,846,img/planet6_right.png,6,Community 2,NA,TRUE,j,j,NA,NA,NA,3,6,"5,3,9,15,10,14,8,12,11,6,4,1,7,13,2"
14981,commdev-image-keyboard-response,316,1060661,learnblock1,1141.9999999997672,img/planet14_right.png,14,Community 2,NA,TRUE,j,j,NA,NA,NA,3,6,"5,3,9,15,10,14,8,12,11,6,4,1,7,13,2"
14981,commdev-image-keyboard-response,317,1061913,learnblock1,981,img/planet11_right.png,11,Community 2,NA,TRUE,j,j,NA,NA,NA,3,6,"5,3,9,15,10,14,8,12,11,6,4,1,7,13,2"
14981,commdev-image-keyboard-response,318,1063165,learnblock1,808,img/planet14_left.png,14,Community 2,NA,FALSE,j,f,NA,NA,NA,3,6,"5,3,9,15,10,14,8,12,11,6,4,1,7,13,2"
14981,commdev-image-keyboard-response,319,1064417,learnblock1,544,img/planet8_right.png,8,Community 2,NA,FALSE,f,j,NA,NA,NA,3,6,"5,3,9,15,10,14,8,12,11,6,4,1,7,13,2"
14981,commdev-image-keyboard-response,320,1065668,learnblock1,441,img/planet14_right.png,14,Community 2,NA,TRUE,j,j,NA,NA,NA,3,6,"5,3,9,15,10,14,8,12,11,6,4,1,7,13,2"
14981,commdev-image-keyboard-response,321,1066921,learnblock1,790,img/planet8_left.png,8,Community 2,NA,TRUE,f,f,NA,NA,NA,3,6,"5,3,9,15,10,14,8,12,11,6,4,1,7,13,2"
14981,commdev-image-keyboard-response,322,1068173,learnblock1,846,img/planet12_right.png,12,Community 2,NA,TRUE,j,j,NA,NA,NA,3,6,"5,3,9,15,10,14,8,12,11,6,4,1,7,13,2"
14981,commdev-image-keyboard-response,323,1069425,learnblock1,1083,img/planet8_left.png,8,Community 2,NA,TRUE,f,f,NA,NA,NA,3,6,"5,3,9,15,10,14,8,12,11,6,4,1,7,13,2"
14981,commdev-image-keyboard-response,324,1070678,learnblock1,null,img/planet6_right.png,6,Community 2,NA,FALSE,null,j,NA,NA,NA,3,6,"5,3,9,15,10,14,8,12,11,6,4,1,7,13,2"
14981,commdev-image-keyboard-response,325,1071931,learnblock1,null,img/planet11_right.png,11,Community 2,NA,FALSE,null,j,NA,NA,NA,3,6,"5,3,9,15,10,14,8,12,11,6,4,1,7,13,2"
14981,commdev-image-keyboard-response,326,1073183,learnblock1,7,img/planet12_left.png,12,Community 2,NA,FALSE,j,f,NA,NA,NA,3,6,"5,3,9,15,10,14,8,12,11,6,4,1,7,13,2"
14981,commdev-image-keyboard-response,327,1074436,learnblock1,714,img/planet1_left.png,1,Community 3,NA,TRUE,f,f,NA,NA,NA,3,6,"5,3,9,15,10,14,8,12,11,6,4,1,7,13,2"
14981,commdev-image-keyboard-response,328,1075688,learnblock1,860,img/planet13_left.png,13,Community 3,NA,TRUE,f,f,NA,NA,NA,3,6,"5,3,9,15,10,14,8,12,11,6,4,1,7,13,2"
14981,commdev-image-keyboard-response,329,1076940,learnblock1,412.00000000023283,img/planet2_right.png,2,Community 3,NA,FALSE,f,j,NA,NA,NA,3,6,"5,3,9,15,10,14,8,12,11,6,4,1,7,13,2"
14981,commdev-image-keyboard-response,330,1078193,learnblock1,854,img/planet7_left.png,7,Community 3,NA,TRUE,f,f,NA,NA,NA,3,6,"5,3,9,15,10,14,8,12,11,6,4,1,7,13,2"
14981,commdev-image-keyboard-response,331,1079445,learnblock1,713,img/planet4_right.png,4,Community 3,NA,TRUE,j,j,NA,NA,NA,3,6,"5,3,9,15,10,14,8,12,11,6,4,1,7,13,2"
14981,commdev-image-keyboard-response,332,1080700,learnblock1,528.0000000002328,img/planet2_left.png,2,Community 3,NA,TRUE,f,f,NA,NA,NA,3,6,"5,3,9,15,10,14,8,12,11,6,4,1,7,13,2"
14981,commdev-image-keyboard-response,333,1081952,learnblock1,721,img/planet4_left.png,4,Community 3,NA,TRUE,f,f,NA,NA,NA,3,6,"5,3,9,15,10,14,8,12,11,6,4,1,7,13,2"
14981,commdev-image-keyboard-response,334,1083204,learnblock1,805,img/planet2_right.png,2,Community 3,NA,FALSE,f,j,NA,NA,NA,3,6,"5,3,9,15,10,14,8,12,11,6,4,1,7,13,2"
14981,commdev-image-keyboard-response,335,1084456,learnblock1,615,img/planet13_left.png,13,Community 3,NA,TRUE,f,f,NA,NA,NA,3,6,"5,3,9,15,10,14,8,12,11,6,4,1,7,13,2"
14981,commdev-image-keyboard-response,336,1085708,learnblock1,748,img/planet7_left.png,7,Community 3,NA,TRUE,f,f,NA,NA,NA,3,6,"5,3,9,15,10,14,8,12,11,6,4,1,7,13,2"
14981,commdev-image-keyboard-response,337,1086961,learnblock1,557,img/planet2_left.png,2,Community 3,NA,TRUE,f,f,NA,NA,NA,3,6,"5,3,9,15,10,14,8,12,11,6,4,1,7,13,2"
14981,commdev-image-keyboard-response,338,1088214,learnblock1,765,img/planet1_left.png,1,Community 3,NA,TRUE,f,f,NA,NA,NA,3,6,"5,3,9,15,10,14,8,12,11,6,4,1,7,13,2"
14981,commdev-image-keyboard-response,339,1089466,learnblock1,619,img/planet12_right.png,12,Community 2,NA,TRUE,j,j,NA,NA,NA,3,6,"5,3,9,15,10,14,8,12,11,6,4,1,7,13,2"
14981,commdev-image-keyboard-response,340,1090719,learnblock1,604,img/planet1_right.png,1,Community 3,NA,TRUE,j,j,NA,NA,NA,3,6,"5,3,9,15,10,14,8,12,11,6,4,1,7,13,2"
14981,commdev-image-keyboard-response,341,1091971,learnblock1,584.0000000002328,img/planet2_left.png,2,Community 3,NA,TRUE,f,f,NA,NA,NA,3,6,"5,3,9,15,10,14,8,12,11,6,4,1,7,13,2"
14981,commdev-image-keyboard-response,342,1093222,learnblock1,719,img/planet1_left.png,1,Community 3,NA,TRUE,f,f,NA,NA,NA,3,6,"5,3,9,15,10,14,8,12,11,6,4,1,7,13,2"
14981,commdev-image-keyboard-response,343,1094475,learnblock1,744,img/planet13_right.png,13,Community 3,NA,TRUE,j,j,NA,NA,NA,3,6,"5,3,9,15,10,14,8,12,11,6,4,1,7,13,2"
14981,commdev-image-keyboard-response,344,1095728,learnblock1,589.9999999997672,img/planet4_left.png,4,Community 3,NA,TRUE,f,f,NA,NA,NA,3,6,"5,3,9,15,10,14,8,12,11,6,4,1,7,13,2"
14981,commdev-image-keyboard-response,345,1096980,learnblock1,593,img/planet7_right.png,7,Community 3,NA,TRUE,j,j,NA,NA,NA,3,6,"5,3,9,15,10,14,8,12,11,6,4,1,7,13,2"
14981,commdev-image-keyboard-response,346,1098232,learnblock1,644,img/planet2_left.png,2,Community 3,NA,TRUE,f,f,NA,NA,NA,3,6,"5,3,9,15,10,14,8,12,11,6,4,1,7,13,2"
14981,commdev-image-keyboard-response,347,1099483,learnblock1,629.0000000002328,img/planet7_right.png,7,Community 3,NA,TRUE,j,j,NA,NA,NA,3,6,"5,3,9,15,10,14,8,12,11,6,4,1,7,13,2"
14981,commdev-image-keyboard-response,348,1100736,learnblock1,324,img/planet13_right.png,13,Community 3,NA,FALSE,f,j,NA,NA,NA,3,6,"5,3,9,15,10,14,8,12,11,6,4,1,7,13,2"
14981,commdev-image-keyboard-response,349,1101988,learnblock1,870.9999999997672,img/planet1_right.png,1,Community 3,NA,TRUE,j,j,NA,NA,NA,3,6,"5,3,9,15,10,14,8,12,11,6,4,1,7,13,2"
14981,commdev-image-keyboard-response,350,1103240,learnblock1,658,img/planet2_left.png,2,Community 3,NA,TRUE,f,f,NA,NA,NA,3,6,"5,3,9,15,10,14,8,12,11,6,4,1,7,13,2"
14981,commdev-image-keyboard-response,351,1104491,learnblock1,1189,img/planet13_right.png,13,Community 3,NA,TRUE,j,j,NA,NA,NA,3,6,"5,3,9,15,10,14,8,12,11,6,4,1,7,13,2"
14981,commdev-image-keyboard-response,352,1105743,learnblock1,926.0000000002328,img/planet2_left.png,2,Community 3,NA,TRUE,f,f,NA,NA,NA,3,6,"5,3,9,15,10,14,8,12,11,6,4,1,7,13,2"
14981,commdev-image-keyboard-response,353,1106996,learnblock1,1055,img/planet4_right.png,4,Community 3,NA,TRUE,j,j,NA,NA,NA,3,6,"5,3,9,15,10,14,8,12,11,6,4,1,7,13,2"
14981,commdev-image-keyboard-response,354,1108248,learnblock1,581,img/planet7_left.png,7,Community 3,NA,TRUE,f,f,NA,NA,NA,3,6,"5,3,9,15,10,14,8,12,11,6,4,1,7,13,2"
14981,commdev-image-keyboard-response,355,1109500,learnblock1,687,img/planet13_right.png,13,Community 3,NA,TRUE,j,j,NA,NA,NA,3,6,"5,3,9,15,10,14,8,12,11,6,4,1,7,13,2"
14981,commdev-image-keyboard-response,356,1110752,learnblock1,958,img/planet4_right.png,4,Community 3,NA,TRUE,j,j,NA,NA,NA,3,6,"5,3,9,15,10,14,8,12,11,6,4,1,7,13,2"
14981,commdev-image-keyboard-response,357,1112004,learnblock1,1026,img/planet10_right.png,10,Community 1,NA,TRUE,j,j,NA,NA,NA,3,6,"5,3,9,15,10,14,8,12,11,6,4,1,7,13,2"
14981,commdev-image-keyboard-response,358,1113255,learnblock1,630,img/planet9_right.png,9,Community 1,NA,TRUE,j,j,NA,NA,NA,3,6,"5,3,9,15,10,14,8,12,11,6,4,1,7,13,2"
14981,commdev-image-keyboard-response,359,1114507,learnblock1,366.99999999976717,img/planet5_right.png,5,Community 1,NA,TRUE,j,j,NA,NA,NA,3,6,"5,3,9,15,10,14,8,12,11,6,4,1,7,13,2"
14981,commdev-image-keyboard-response,360,1115758,learnblock1,733,img/planet3_right.png,3,Community 1,NA,TRUE,j,j,NA,NA,NA,3,6,"5,3,9,15,10,14,8,12,11,6,4,1,7,13,2"
14981,commdev-image-keyboard-response,361,1117011,learnblock1,null,img/planet15_right.png,15,Community 1,NA,FALSE,null,j,NA,NA,NA,3,6,"5,3,9,15,10,14,8,12,11,6,4,1,7,13,2"
14981,commdev-image-keyboard-response,362,1118263,learnblock1,null,img/planet3_right.png,3,Community 1,NA,FALSE,null,j,NA,NA,NA,3,6,"5,3,9,15,10,14,8,12,11,6,4,1,7,13,2"
14981,commdev-image-keyboard-response,363,1119515,learnblock1,622,img/planet5_left.png,5,Community 1,NA,TRUE,f,f,NA,NA,NA,3,6,"5,3,9,15,10,14,8,12,11,6,4,1,7,13,2"
14981,commdev-image-keyboard-response,364,1120768,learnblock1,318,img/planet10_left.png,10,Community 1,NA,TRUE,f,f,NA,NA,NA,3,6,"5,3,9,15,10,14,8,12,11,6,4,1,7,13,2"
14981,commdev-image-keyboard-response,365,1122021,learnblock1,326,img/planet9_left.png,9,Community 1,NA,TRUE,f,f,NA,NA,NA,3,6,"5,3,9,15,10,14,8,12,11,6,4,1,7,13,2"
14981,commdev-image-keyboard-response,366,1123273,learnblock1,258,img/planet5_right.png,5,Community 1,NA,FALSE,f,j,NA,NA,NA,3,6,"5,3,9,15,10,14,8,12,11,6,4,1,7,13,2"
14981,commdev-image-keyboard-response,367,1124525,learnblock1,654,img/planet10_right.png,10,Community 1,NA,TRUE,j,j,NA,NA,NA,3,6,"5,3,9,15,10,14,8,12,11,6,4,1,7,13,2"
14981,commdev-image-keyboard-response,368,1125777,learnblock1,670,img/planet5_right.png,5,Community 1,NA,TRUE,j,j,NA,NA,NA,3,6,"5,3,9,15,10,14,8,12,11,6,4,1,7,13,2"
14981,commdev-image-keyboard-response,369,1127028,learnblock1,840,img/planet9_right.png,9,Community 1,NA,TRUE,j,j,NA,NA,NA,3,6,"5,3,9,15,10,14,8,12,11,6,4,1,7,13,2"
14981,commdev-image-keyboard-response,370,1128280,learnblock1,658,img/planet5_right.png,5,Community 1,NA,TRUE,j,j,NA,NA,NA,3,6,"5,3,9,15,10,14,8,12,11,6,4,1,7,13,2"
14981,commdev-image-keyboard-response,371,1129532,learnblock1,644,img/planet15_left.png,15,Community 1,NA,TRUE,f,f,NA,NA,NA,3,6,"5,3,9,15,10,14,8,12,11,6,4,1,7,13,2"
14981,commdev-image-keyboard-response,372,1130784,learnblock1,757,img/planet5_left.png,5,Community 1,NA,TRUE,f,f,NA,NA,NA,3,6,"5,3,9,15,10,14,8,12,11,6,4,1,7,13,2"
14981,commdev-image-keyboard-response,373,1132036,learnblock1,647.9999999997672,img/planet3_left.png,3,Community 1,NA,TRUE,f,f,NA,NA,NA,3,6,"5,3,9,15,10,14,8,12,11,6,4,1,7,13,2"
14981,commdev-image-keyboard-response,374,1133288,learnblock1,975,img/planet9_left.png,9,Community 1,NA,TRUE,f,f,NA,NA,NA,3,6,"5,3,9,15,10,14,8,12,11,6,4,1,7,13,2"
14981,commdev-image-keyboard-response,375,1134541,learnblock1,472,img/planet5_right.png,5,Community 1,NA,FALSE,f,j,NA,NA,NA,3,6,"5,3,9,15,10,14,8,12,11,6,4,1,7,13,2"
14981,commdev-image-keyboard-response,376,1135793,learnblock1,581,img/planet9_right.png,9,Community 1,NA,TRUE,j,j,NA,NA,NA,3,6,"5,3,9,15,10,14,8,12,11,6,4,1,7,13,2"
14981,commdev-image-keyboard-response,377,1137045,learnblock1,703.9999999997672,img/planet10_right.png,10,Community 1,NA,TRUE,j,j,NA,NA,NA,3,6,"5,3,9,15,10,14,8,12,11,6,4,1,7,13,2"
14981,commdev-image-keyboard-response,378,1138297,learnblock1,680,img/planet5_left.png,5,Community 1,NA,TRUE,f,f,NA,NA,NA,3,6,"5,3,9,15,10,14,8,12,11,6,4,1,7,13,2"
14981,commdev-image-keyboard-response,379,1139549,learnblock1,459,img/planet10_right.png,10,Community 1,NA,FALSE,f,j,NA,NA,NA,3,6,"5,3,9,15,10,14,8,12,11,6,4,1,7,13,2"
14981,commdev-image-keyboard-response,380,1140801,learnblock1,615,img/planet4_left.png,4,Community 3,NA,TRUE,f,f,NA,NA,NA,3,6,"5,3,9,15,10,14,8,12,11,6,4,1,7,13,2"
14981,commdev-image-keyboard-response,381,1142053,learnblock1,590,img/planet2_right.png,2,Community 3,NA,TRUE,j,j,NA,NA,NA,3,6,"5,3,9,15,10,14,8,12,11,6,4,1,7,13,2"
14981,commdev-image-keyboard-response,382,1143305,learnblock1,486,img/planet4_left.png,4,Community 3,NA,TRUE,f,f,NA,NA,NA,3,6,"5,3,9,15,10,14,8,12,11,6,4,1,7,13,2"
14981,commdev-image-keyboard-response,383,1144557,learnblock1,602,img/planet2_left.png,2,Community 3,NA,TRUE,f,f,NA,NA,NA,3,6,"5,3,9,15,10,14,8,12,11,6,4,1,7,13,2"
14981,commdev-image-keyboard-response,384,1145810,learnblock1,366,img/planet7_right.png,7,Community 3,NA,FALSE,f,j,NA,NA,NA,3,6,"5,3,9,15,10,14,8,12,11,6,4,1,7,13,2"
14981,commdev-image-keyboard-response,385,1147064,learnblock1,606,img/planet4_right.png,4,Community 3,NA,TRUE,j,j,NA,NA,NA,3,6,"5,3,9,15,10,14,8,12,11,6,4,1,7,13,2"
14981,commdev-image-keyboard-response,386,1148316,learnblock1,554,img/planet13_left.png,13,Community 3,NA,TRUE,f,f,NA,NA,NA,3,6,"5,3,9,15,10,14,8,12,11,6,4,1,7,13,2"
14981,commdev-image-keyboard-response,387,1149569,learnblock1,680,img/planet7_left.png,7,Community 3,NA,TRUE,f,f,NA,NA,NA,3,6,"5,3,9,15,10,14,8,12,11,6,4,1,7,13,2"
14981,commdev-image-keyboard-response,388,1150820,learnblock1,584,img/planet2_left.png,2,Community 3,NA,TRUE,f,f,NA,NA,NA,3,6,"5,3,9,15,10,14,8,12,11,6,4,1,7,13,2"
14981,commdev-image-keyboard-response,389,1152073,learnblock1,298,img/planet4_right.png,4,Community 3,NA,FALSE,f,j,NA,NA,NA,3,6,"5,3,9,15,10,14,8,12,11,6,4,1,7,13,2"
14981,commdev-image-keyboard-response,390,1153325,learnblock1,686,img/planet10_right.png,10,Community 1,NA,TRUE,j,j,NA,NA,NA,3,6,"5,3,9,15,10,14,8,12,11,6,4,1,7,13,2"
14981,commdev-image-keyboard-response,391,1154578,learnblock1,681,img/planet4_right.png,4,Community 3,NA,FALSE,f,j,NA,NA,NA,3,6,"5,3,9,15,10,14,8,12,11,6,4,1,7,13,2"
14981,commdev-image-keyboard-response,392,1155831,learnblock1,578,img/planet13_right.png,13,Community 3,NA,TRUE,j,j,NA,NA,NA,3,6,"5,3,9,15,10,14,8,12,11,6,4,1,7,13,2"
14981,commdev-image-keyboard-response,393,1157083,learnblock1,null,img/planet4_left.png,4,Community 3,NA,FALSE,null,f,NA,NA,NA,3,6,"5,3,9,15,10,14,8,12,11,6,4,1,7,13,2"
14981,commdev-image-keyboard-response,394,1158335,learnblock1,123,img/planet13_right.png,13,Community 3,NA,TRUE,j,j,NA,NA,NA,3,6,"5,3,9,15,10,14,8,12,11,6,4,1,7,13,2"
14981,commdev-image-keyboard-response,395,1159587,learnblock1,null,img/planet1_left.png,1,Community 3,NA,FALSE,null,f,NA,NA,NA,3,6,"5,3,9,15,10,14,8,12,11,6,4,1,7,13,2"
14981,commdev-image-keyboard-response,396,1160838,learnblock1,607,img/planet12_right.png,12,Community 2,NA,TRUE,j,j,NA,NA,NA,3,6,"5,3,9,15,10,14,8,12,11,6,4,1,7,13,2"
14981,commdev-image-keyboard-response,397,1162090,learnblock1,707,img/planet6_right.png,6,Community 2,NA,TRUE,j,j,NA,NA,NA,3,6,"5,3,9,15,10,14,8,12,11,6,4,1,7,13,2"
14981,commdev-image-keyboard-response,398,1163342,learnblock1,1210.9999999997672,img/planet11_right.png,11,Community 2,NA,TRUE,j,j,NA,NA,NA,3,6,"5,3,9,15,10,14,8,12,11,6,4,1,7,13,2"
14981,commdev-image-keyboard-response,399,1164595,learnblock1,735,img/planet12_left.png,12,Community 2,NA,TRUE,f,f,NA,NA,NA,3,6,"5,3,9,15,10,14,8,12,11,6,4,1,7,13,2"
14981,commdev-image-keyboard-response,400,1165846,learnblock1,609,img/planet8_left.png,8,Community 2,NA,FALSE,j,f,NA,NA,NA,3,6,"5,3,9,15,10,14,8,12,11,6,4,1,7,13,2"
14981,commdev-image-keyboard-response,401,1167098,learnblock1,589,img/planet6_right.png,6,Community 2,NA,TRUE,j,j,NA,NA,NA,3,6,"5,3,9,15,10,14,8,12,11,6,4,1,7,13,2"
14981,commdev-image-keyboard-response,402,1168350,learnblock1,580,img/planet8_left.png,8,Community 2,NA,FALSE,j,f,NA,NA,NA,3,6,"5,3,9,15,10,14,8,12,11,6,4,1,7,13,2"
14981,commdev-image-keyboard-response,403,1169603,learnblock1,806.9999999997672,img/planet6_right.png,6,Community 2,NA,TRUE,j,j,NA,NA,NA,3,6,"5,3,9,15,10,14,8,12,11,6,4,1,7,13,2"
14981,commdev-image-keyboard-response,404,1170855,learnblock1,636,img/planet11_left.png,11,Community 2,NA,TRUE,f,f,NA,NA,NA,3,6,"5,3,9,15,10,14,8,12,11,6,4,1,7,13,2"
14981,commdev-image-keyboard-response,405,1172108,learnblock1,760,img/planet8_right.png,8,Community 2,NA,TRUE,j,j,NA,NA,NA,3,6,"5,3,9,15,10,14,8,12,11,6,4,1,7,13,2"
14981,commdev-image-keyboard-response,406,1173359,learnblock1,865,img/planet14_right.png,14,Community 2,NA,TRUE,j,j,NA,NA,NA,3,6,"5,3,9,15,10,14,8,12,11,6,4,1,7,13,2"
14981,commdev-image-keyboard-response,407,1174610,learnblock1,706,img/planet11_right.png,11,Community 2,NA,TRUE,j,j,NA,NA,NA,3,6,"5,3,9,15,10,14,8,12,11,6,4,1,7,13,2"
14981,commdev-image-keyboard-response,408,1175863,learnblock1,591.9999999997672,img/planet14_right.png,14,Community 2,NA,TRUE,j,j,NA,NA,NA,3,6,"5,3,9,15,10,14,8,12,11,6,4,1,7,13,2"
14981,commdev-image-keyboard-response,409,1177114,learnblock1,578,img/planet6_right.png,6,Community 2,NA,TRUE,j,j,NA,NA,NA,3,6,"5,3,9,15,10,14,8,12,11,6,4,1,7,13,2"
14981,commdev-image-keyboard-response,410,1178366,learnblock1,552,img/planet11_left.png,11,Community 2,NA,FALSE,j,f,NA,NA,NA,3,6,"5,3,9,15,10,14,8,12,11,6,4,1,7,13,2"
14981,commdev-image-keyboard-response,411,1179619,learnblock1,600,img/planet14_right.png,14,Community 2,NA,TRUE,j,j,NA,NA,NA,3,6,"5,3,9,15,10,14,8,12,11,6,4,1,7,13,2"
14981,commdev-image-keyboard-response,412,1180871,learnblock1,602,img/planet6_left.png,6,Community 2,NA,TRUE,f,f,NA,NA,NA,3,6,"5,3,9,15,10,14,8,12,11,6,4,1,7,13,2"
14981,commdev-image-keyboard-response,413,1182124,learnblock1,814,img/planet14_left.png,14,Community 2,NA,TRUE,f,f,NA,NA,NA,3,6,"5,3,9,15,10,14,8,12,11,6,4,1,7,13,2"
14981,commdev-image-keyboard-response,414,1183376,learnblock1,819,img/planet11_right.png,11,Community 2,NA,TRUE,j,j,NA,NA,NA,3,6,"5,3,9,15,10,14,8,12,11,6,4,1,7,13,2"
14981,commdev-image-keyboard-response,415,1184629,learnblock1,703,img/planet12_right.png,12,Community 2,NA,TRUE,j,j,NA,NA,NA,3,6,"5,3,9,15,10,14,8,12,11,6,4,1,7,13,2"
14981,commdev-image-keyboard-response,416,1185881,learnblock1,981,img/planet6_right.png,6,Community 2,NA,TRUE,j,j,NA,NA,NA,3,6,"5,3,9,15,10,14,8,12,11,6,4,1,7,13,2"
14981,commdev-image-keyboard-response,417,1187133,learnblock1,307,img/planet14_left.png,14,Community 2,NA,FALSE,j,f,NA,NA,NA,3,6,"5,3,9,15,10,14,8,12,11,6,4,1,7,13,2"
14981,commdev-image-keyboard-response,418,1188385,learnblock1,null,img/planet15_left.png,15,Community 1,NA,FALSE,null,f,NA,NA,NA,3,6,"5,3,9,15,10,14,8,12,11,6,4,1,7,13,2"
14981,commdev-image-keyboard-response,419,1189638,learnblock1,null,img/planet9_left.png,9,Community 1,NA,FALSE,null,f,NA,NA,NA,3,6,"5,3,9,15,10,14,8,12,11,6,4,1,7,13,2"
14981,commdev-image-keyboard-response,420,1190891,learnblock1,174.99999999976717,img/planet5_left.png,5,Community 1,NA,FALSE,j,f,NA,NA,NA,3,6,"5,3,9,15,10,14,8,12,11,6,4,1,7,13,2"
14981,commdev-image-keyboard-response,421,1192143,learnblock1,419,img/planet9_left.png,9,Community 1,NA,TRUE,f,f,NA,NA,NA,3,6,"5,3,9,15,10,14,8,12,11,6,4,1,7,13,2"
14981,commdev-image-keyboard-response,422,1193394,learnblock1,524,img/planet3_right.png,3,Community 1,NA,FALSE,f,j,NA,NA,NA,3,6,"5,3,9,15,10,14,8,12,11,6,4,1,7,13,2"
14981,commdev-image-keyboard-response,423,1194647,learnblock1,265.00000000023283,img/planet10_left.png,10,Community 1,NA,FALSE,j,f,NA,NA,NA,3,6,"5,3,9,15,10,14,8,12,11,6,4,1,7,13,2"
14981,commdev-image-keyboard-response,424,1195899,learnblock1,723.0000000002328,img/planet4_left.png,4,Community 3,NA,TRUE,f,f,NA,NA,NA,3,6,"5,3,9,15,10,14,8,12,11,6,4,1,7,13,2"
14981,commdev-image-keyboard-response,425,1197151,learnblock1,665.9999999997672,img/planet7_left.png,7,Community 3,NA,TRUE,f,f,NA,NA,NA,3,6,"5,3,9,15,10,14,8,12,11,6,4,1,7,13,2"
14981,commdev-image-keyboard-response,426,1198403,learnblock1,660,img/planet13_right.png,13,Community 3,NA,TRUE,j,j,NA,NA,NA,3,6,"5,3,9,15,10,14,8,12,11,6,4,1,7,13,2"
14981,commdev-image-keyboard-response,427,1199655,learnblock1,550,img/planet1_left.png,1,Community 3,NA,TRUE,f,f,NA,NA,NA,3,6,"5,3,9,15,10,14,8,12,11,6,4,1,7,13,2"
14981,commdev-image-keyboard-response,428,1200907,learnblock1,579,img/planet13_left.png,13,Community 3,NA,FALSE,j,f,NA,NA,NA,3,6,"5,3,9,15,10,14,8,12,11,6,4,1,7,13,2"
14981,commdev-image-keyboard-response,429,1202159,learnblock1,594,img/planet4_left.png,4,Community 3,NA,TRUE,f,f,NA,NA,NA,3,6,"5,3,9,15,10,14,8,12,11,6,4,1,7,13,2"
14981,commdev-image-keyboard-response,433,13035137,learnblock2,750,img/planet1_right.png,1,Community 3,NA,TRUE,j,j,NA,NA,NA,3,6,"5,3,9,15,10,14,8,12,11,6,4,1,7,13,2"
14981,commdev-image-keyboard-response,434,13036391,learnblock2,638,img/planet7_left.png,7,Community 3,NA,TRUE,f,f,NA,NA,NA,3,6,"5,3,9,15,10,14,8,12,11,6,4,1,7,13,2"
14981,commdev-image-keyboard-response,435,13037643,learnblock2,742.0000000002328,img/planet1_left.png,1,Community 3,NA,TRUE,f,f,NA,NA,NA,3,6,"5,3,9,15,10,14,8,12,11,6,4,1,7,13,2"
14981,commdev-image-keyboard-response,436,13038896,learnblock2,618.9999999997672,img/planet13_left.png,13,Community 3,NA,TRUE,f,f,NA,NA,NA,3,6,"5,3,9,15,10,14,8,12,11,6,4,1,7,13,2"
14981,commdev-image-keyboard-response,437,13040148,learnblock2,472,img/planet2_left.png,2,Community 3,NA,TRUE,f,f,NA,NA,NA,3,6,"5,3,9,15,10,14,8,12,11,6,4,1,7,13,2"
14981,commdev-image-keyboard-response,438,13041400,learnblock2,546,img/planet1_left.png,1,Community 3,NA,TRUE,f,f,NA,NA,NA,3,6,"5,3,9,15,10,14,8,12,11,6,4,1,7,13,2"
14981,commdev-image-keyboard-response,439,13042652,learnblock2,474.00000000023283,img/planet7_right.png,7,Community 3,NA,TRUE,j,j,NA,NA,NA,3,6,"5,3,9,15,10,14,8,12,11,6,4,1,7,13,2"
14981,commdev-image-keyboard-response,440,13043908,learnblock2,477,img/planet1_right.png,1,Community 3,NA,TRUE,j,j,NA,NA,NA,3,6,"5,3,9,15,10,14,8,12,11,6,4,1,7,13,2"
14981,commdev-image-keyboard-response,441,13045160,learnblock2,457.00000000023283,img/planet12_left.png,12,Community 2,NA,TRUE,f,f,NA,NA,NA,3,6,"5,3,9,15,10,14,8,12,11,6,4,1,7,13,2"
14981,commdev-image-keyboard-response,442,13046413,learnblock2,522,img/planet6_right.png,6,Community 2,NA,TRUE,j,j,NA,NA,NA,3,6,"5,3,9,15,10,14,8,12,11,6,4,1,7,13,2"
14981,commdev-image-keyboard-response,443,13047666,learnblock2,796.9999999997672,img/planet8_right.png,8,Community 2,NA,FALSE,f,j,NA,NA,NA,3,6,"5,3,9,15,10,14,8,12,11,6,4,1,7,13,2"
14981,commdev-image-keyboard-response,444,13048919,learnblock2,579,img/planet11_left.png,11,Community 2,NA,TRUE,f,f,NA,NA,NA,3,6,"5,3,9,15,10,14,8,12,11,6,4,1,7,13,2"
14981,commdev-image-keyboard-response,445,13050171,learnblock2,530,img/planet6_left.png,6,Community 2,NA,TRUE,f,f,NA,NA,NA,3,6,"5,3,9,15,10,14,8,12,11,6,4,1,7,13,2"
14981,commdev-image-keyboard-response,446,13051423,learnblock2,571,img/planet11_left.png,11,Community 2,NA,TRUE,f,f,NA,NA,NA,3,6,"5,3,9,15,10,14,8,12,11,6,4,1,7,13,2"
14981,commdev-image-keyboard-response,447,13052675,learnblock2,698.9999999997672,img/planet8_left.png,8,Community 2,NA,TRUE,f,f,NA,NA,NA,3,6,"5,3,9,15,10,14,8,12,11,6,4,1,7,13,2"
14981,commdev-image-keyboard-response,448,13053929,learnblock2,599,img/planet14_left.png,14,Community 2,NA,TRUE,f,f,NA,NA,NA,3,6,"5,3,9,15,10,14,8,12,11,6,4,1,7,13,2"
14981,commdev-image-keyboard-response,449,13055182,learnblock2,577,img/planet15_right.png,15,Community 1,NA,TRUE,j,j,NA,NA,NA,3,6,"5,3,9,15,10,14,8,12,11,6,4,1,7,13,2"
14981,commdev-image-keyboard-response,450,13056434,learnblock2,590,img/planet14_left.png,14,Community 2,NA,TRUE,f,f,NA,NA,NA,3,6,"5,3,9,15,10,14,8,12,11,6,4,1,7,13,2"
14981,commdev-image-keyboard-response,451,13057686,learnblock2,602,img/planet11_left.png,11,Community 2,NA,TRUE,f,f,NA,NA,NA,3,6,"5,3,9,15,10,14,8,12,11,6,4,1,7,13,2"
14981,commdev-image-keyboard-response,452,13058939,learnblock2,550,img/planet6_right.png,6,Community 2,NA,TRUE,j,j,NA,NA,NA,3,6,"5,3,9,15,10,14,8,12,11,6,4,1,7,13,2"
14981,commdev-image-keyboard-response,453,13060191,learnblock2,629.0000000002328,img/planet12_right.png,12,Community 2,NA,TRUE,j,j,NA,NA,NA,3,6,"5,3,9,15,10,14,8,12,11,6,4,1,7,13,2"
14981,commdev-image-keyboard-response,454,13061444,learnblock2,576,img/planet1_left.png,1,Community 3,NA,TRUE,f,f,NA,NA,NA,3,6,"5,3,9,15,10,14,8,12,11,6,4,1,7,13,2"
14981,commdev-image-keyboard-response,455,13062695,learnblock2,640,img/planet7_left.png,7,Community 3,NA,TRUE,f,f,NA,NA,NA,3,6,"5,3,9,15,10,14,8,12,11,6,4,1,7,13,2"
14981,commdev-image-keyboard-response,456,13063947,learnblock2,499,img/planet4_right.png,4,Community 3,NA,TRUE,j,j,NA,NA,NA,3,6,"5,3,9,15,10,14,8,12,11,6,4,1,7,13,2"
14981,commdev-image-keyboard-response,457,13065199,learnblock2,658,img/planet7_right.png,7,Community 3,NA,TRUE,j,j,NA,NA,NA,3,6,"5,3,9,15,10,14,8,12,11,6,4,1,7,13,2"
14981,commdev-image-keyboard-response,458,13066451,learnblock2,637,img/planet4_left.png,4,Community 3,NA,TRUE,f,f,NA,NA,NA,3,6,"5,3,9,15,10,14,8,12,11,6,4,1,7,13,2"
14981,commdev-image-keyboard-response,459,13067704,learnblock2,550,img/planet10_right.png,10,Community 1,NA,TRUE,j,j,NA,NA,NA,3,6,"5,3,9,15,10,14,8,12,11,6,4,1,7,13,2"
14981,commdev-image-keyboard-response,460,13068956,learnblock2,535,img/planet5_left.png,5,Community 1,NA,TRUE,f,f,NA,NA,NA,3,6,"5,3,9,15,10,14,8,12,11,6,4,1,7,13,2"
14981,commdev-image-keyboard-response,461,13070208,learnblock2,557,img/planet10_right.png,10,Community 1,NA,TRUE,j,j,NA,NA,NA,3,6,"5,3,9,15,10,14,8,12,11,6,4,1,7,13,2"
14981,commdev-image-keyboard-response,462,13071460,learnblock2,504,img/planet5_right.png,5,Community 1,NA,TRUE,j,j,NA,NA,NA,3,6,"5,3,9,15,10,14,8,12,11,6,4,1,7,13,2"
14981,commdev-image-keyboard-response,463,13072712,learnblock2,536,img/planet9_left.png,9,Community 1,NA,TRUE,f,f,NA,NA,NA,3,6,"5,3,9,15,10,14,8,12,11,6,4,1,7,13,2"
14981,commdev-image-keyboard-response,464,13073965,learnblock2,532.9999999997672,img/planet5_right.png,5,Community 1,NA,TRUE,j,j,NA,NA,NA,3,6,"5,3,9,15,10,14,8,12,11,6,4,1,7,13,2"
14981,commdev-image-keyboard-response,465,13075217,learnblock2,512,img/planet15_right.png,15,Community 1,NA,TRUE,j,j,NA,NA,NA,3,6,"5,3,9,15,10,14,8,12,11,6,4,1,7,13,2"
14981,commdev-image-keyboard-response,466,13076469,learnblock2,693,img/planet3_right.png,3,Community 1,NA,TRUE,j,j,NA,NA,NA,3,6,"5,3,9,15,10,14,8,12,11,6,4,1,7,13,2"
14981,commdev-image-keyboard-response,467,13077723,learnblock2,789,img/planet15_right.png,15,Community 1,NA,TRUE,j,j,NA,NA,NA,3,6,"5,3,9,15,10,14,8,12,11,6,4,1,7,13,2"
14981,commdev-image-keyboard-response,468,13078976,learnblock2,537.0000000002328,img/planet14_right.png,14,Community 2,NA,TRUE,j,j,NA,NA,NA,3,6,"5,3,9,15,10,14,8,12,11,6,4,1,7,13,2"
14981,commdev-image-keyboard-response,469,13080228,learnblock2,529,img/planet15_right.png,15,Community 1,NA,TRUE,j,j,NA,NA,NA,3,6,"5,3,9,15,10,14,8,12,11,6,4,1,7,13,2"
14981,commdev-image-keyboard-response,470,13081480,learnblock2,561,img/planet14_right.png,14,Community 2,NA,TRUE,j,j,NA,NA,NA,3,6,"5,3,9,15,10,14,8,12,11,6,4,1,7,13,2"
14981,commdev-image-keyboard-response,471,13082731,learnblock2,755,img/planet8_right.png,8,Community 2,NA,TRUE,j,j,NA,NA,NA,3,6,"5,3,9,15,10,14,8,12,11,6,4,1,7,13,2"
14981,commdev-image-keyboard-response,472,13083982,learnblock2,523.9999999997672,img/planet12_right.png,12,Community 2,NA,TRUE,j,j,NA,NA,NA,3,6,"5,3,9,15,10,14,8,12,11,6,4,1,7,13,2"
14981,commdev-image-keyboard-response,473,13085234,learnblock2,567,img/planet11_right.png,11,Community 2,NA,TRUE,j,j,NA,NA,NA,3,6,"5,3,9,15,10,14,8,12,11,6,4,1,7,13,2"
14981,commdev-image-keyboard-response,474,13086486,learnblock2,580,img/planet6_right.png,6,Community 2,NA,TRUE,j,j,NA,NA,NA,3,6,"5,3,9,15,10,14,8,12,11,6,4,1,7,13,2"
14981,commdev-image-keyboard-response,475,13087739,learnblock2,563,img/planet8_right.png,8,Community 2,NA,TRUE,j,j,NA,NA,NA,3,6,"5,3,9,15,10,14,8,12,11,6,4,1,7,13,2"
14981,commdev-image-keyboard-response,476,13088992,learnblock2,539,img/planet6_right.png,6,Community 2,NA,TRUE,j,j,NA,NA,NA,3,6,"5,3,9,15,10,14,8,12,11,6,4,1,7,13,2"
14981,commdev-image-keyboard-response,477,13090244,learnblock2,523,img/planet14_right.png,14,Community 2,NA,TRUE,j,j,NA,NA,NA,3,6,"5,3,9,15,10,14,8,12,11,6,4,1,7,13,2"
14981,commdev-image-keyboard-response,478,13091496,learnblock2,516.0000000002328,img/planet6_right.png,6,Community 2,NA,TRUE,j,j,NA,NA,NA,3,6,"5,3,9,15,10,14,8,12,11,6,4,1,7,13,2"
14981,commdev-image-keyboard-response,479,13092749,learnblock2,623,img/planet8_left.png,8,Community 2,NA,TRUE,f,f,NA,NA,NA,3,6,"5,3,9,15,10,14,8,12,11,6,4,1,7,13,2"
14981,commdev-image-keyboard-response,480,13094001,learnblock2,512.0000000002328,img/planet6_left.png,6,Community 2,NA,TRUE,f,f,NA,NA,NA,3,6,"5,3,9,15,10,14,8,12,11,6,4,1,7,13,2"
14981,commdev-image-keyboard-response,481,13095253,learnblock2,492,img/planet11_right.png,11,Community 2,NA,TRUE,j,j,NA,NA,NA,3,6,"5,3,9,15,10,14,8,12,11,6,4,1,7,13,2"
14981,commdev-image-keyboard-response,482,13096505,learnblock2,600,img/planet6_left.png,6,Community 2,NA,TRUE,f,f,NA,NA,NA,3,6,"5,3,9,15,10,14,8,12,11,6,4,1,7,13,2"
14981,commdev-image-keyboard-response,483,13097757,learnblock2,592.0000000002328,img/planet14_left.png,14,Community 2,NA,FALSE,j,f,NA,NA,NA,3,6,"5,3,9,15,10,14,8,12,11,6,4,1,7,13,2"
14981,commdev-image-keyboard-response,484,13099009,learnblock2,628.0000000002328,img/planet6_right.png,6,Community 2,NA,TRUE,j,j,NA,NA,NA,3,6,"5,3,9,15,10,14,8,12,11,6,4,1,7,13,2"
14981,commdev-image-keyboard-response,485,13100262,learnblock2,661,img/planet14_right.png,14,Community 2,NA,TRUE,j,j,NA,NA,NA,3,6,"5,3,9,15,10,14,8,12,11,6,4,1,7,13,2"
14981,commdev-image-keyboard-response,486,13101514,learnblock2,652.0000000002328,img/planet6_right.png,6,Community 2,NA,TRUE,j,j,NA,NA,NA,3,6,"5,3,9,15,10,14,8,12,11,6,4,1,7,13,2"
14981,commdev-image-keyboard-response,487,13102766,learnblock2,565,img/planet12_right.png,12,Community 2,NA,TRUE,j,j,NA,NA,NA,3,6,"5,3,9,15,10,14,8,12,11,6,4,1,7,13,2"
14981,commdev-image-keyboard-response,488,13104019,learnblock2,553,img/planet11_left.png,11,Community 2,NA,TRUE,f,f,NA,NA,NA,3,6,"5,3,9,15,10,14,8,12,11,6,4,1,7,13,2"
14981,commdev-image-keyboard-response,489,13105269,learnblock2,489,img/planet6_right.png,6,Community 2,NA,TRUE,j,j,NA,NA,NA,3,6,"5,3,9,15,10,14,8,12,11,6,4,1,7,13,2"
14981,commdev-image-keyboard-response,490,13106521,learnblock2,548,img/planet11_left.png,11,Community 2,NA,TRUE,f,f,NA,NA,NA,3,6,"5,3,9,15,10,14,8,12,11,6,4,1,7,13,2"
14981,commdev-image-keyboard-response,491,13107773,learnblock2,640,img/planet14_left.png,14,Community 2,NA,TRUE,f,f,NA,NA,NA,3,6,"5,3,9,15,10,14,8,12,11,6,4,1,7,13,2"
14981,commdev-image-keyboard-response,492,13109026,learnblock2,580,img/planet15_left.png,15,Community 1,NA,TRUE,f,f,NA,NA,NA,3,6,"5,3,9,15,10,14,8,12,11,6,4,1,7,13,2"
14981,commdev-image-keyboard-response,493,13110278,learnblock2,681,img/planet9_left.png,9,Community 1,NA,TRUE,f,f,NA,NA,NA,3,6,"5,3,9,15,10,14,8,12,11,6,4,1,7,13,2"
14981,commdev-image-keyboard-response,494,13111530,learnblock2,543,img/planet5_left.png,5,Community 1,NA,TRUE,f,f,NA,NA,NA,3,6,"5,3,9,15,10,14,8,12,11,6,4,1,7,13,2"
14981,commdev-image-keyboard-response,495,13112782,learnblock2,605.0000000002328,img/planet15_right.png,15,Community 1,NA,TRUE,j,j,NA,NA,NA,3,6,"5,3,9,15,10,14,8,12,11,6,4,1,7,13,2"
14981,commdev-image-keyboard-response,496,13114034,learnblock2,743,img/planet3_left.png,3,Community 1,NA,TRUE,f,f,NA,NA,NA,3,6,"5,3,9,15,10,14,8,12,11,6,4,1,7,13,2"
14981,commdev-image-keyboard-response,497,13115286,learnblock2,538,img/planet5_right.png,5,Community 1,NA,TRUE,j,j,NA,NA,NA,3,6,"5,3,9,15,10,14,8,12,11,6,4,1,7,13,2"
14981,commdev-image-keyboard-response,498,13116539,learnblock2,467,img/planet9_right.png,9,Community 1,NA,TRUE,j,j,NA,NA,NA,3,6,"5,3,9,15,10,14,8,12,11,6,4,1,7,13,2"
14981,commdev-image-keyboard-response,499,13117792,learnblock2,502.99999999976717,img/planet10_left.png,10,Community 1,NA,TRUE,f,f,NA,NA,NA,3,6,"5,3,9,15,10,14,8,12,11,6,4,1,7,13,2"
14981,commdev-image-keyboard-response,500,13119044,learnblock2,712,img/planet3_right.png,3,Community 1,NA,TRUE,j,j,NA,NA,NA,3,6,"5,3,9,15,10,14,8,12,11,6,4,1,7,13,2"
14981,commdev-image-keyboard-response,501,13120297,learnblock2,512,img/planet9_left.png,9,Community 1,NA,FALSE,j,f,NA,NA,NA,3,6,"5,3,9,15,10,14,8,12,11,6,4,1,7,13,2"
14981,commdev-image-keyboard-response,502,13121549,learnblock2,567,img/planet5_right.png,5,Community 1,NA,TRUE,j,j,NA,NA,NA,3,6,"5,3,9,15,10,14,8,12,11,6,4,1,7,13,2"
14981,commdev-image-keyboard-response,503,13122801,learnblock2,684.9999999997672,img/planet10_right.png,10,Community 1,NA,TRUE,j,j,NA,NA,NA,3,6,"5,3,9,15,10,14,8,12,11,6,4,1,7,13,2"
14981,commdev-image-keyboard-response,504,13124054,learnblock2,820,img/planet5_left.png,5,Community 1,NA,TRUE,f,f,NA,NA,NA,3,6,"5,3,9,15,10,14,8,12,11,6,4,1,7,13,2"
14981,commdev-image-keyboard-response,505,13125306,learnblock2,515.0000000002328,img/planet10_right.png,10,Community 1,NA,TRUE,j,j,NA,NA,NA,3,6,"5,3,9,15,10,14,8,12,11,6,4,1,7,13,2"
14981,commdev-image-keyboard-response,506,13126558,learnblock2,606,img/planet4_right.png,4,Community 3,NA,TRUE,j,j,NA,NA,NA,3,6,"5,3,9,15,10,14,8,12,11,6,4,1,7,13,2"
14981,commdev-image-keyboard-response,507,13127810,learnblock2,614,img/planet10_right.png,10,Community 1,NA,TRUE,j,j,NA,NA,NA,3,6,"5,3,9,15,10,14,8,12,11,6,4,1,7,13,2"
14981,commdev-image-keyboard-response,508,13129063,learnblock2,532,img/planet5_right.png,5,Community 1,NA,TRUE,j,j,NA,NA,NA,3,6,"5,3,9,15,10,14,8,12,11,6,4,1,7,13,2"
14981,commdev-image-keyboard-response,509,13130315,learnblock2,568,img/planet9_left.png,9,Community 1,NA,TRUE,f,f,NA,NA,NA,3,6,"5,3,9,15,10,14,8,12,11,6,4,1,7,13,2"
14981,commdev-image-keyboard-response,510,13131567,learnblock2,551.0000000002328,img/planet5_right.png,5,Community 1,NA,TRUE,j,j,NA,NA,NA,3,6,"5,3,9,15,10,14,8,12,11,6,4,1,7,13,2"
14981,commdev-image-keyboard-response,511,13132820,learnblock2,755.9999999997672,img/planet9_left.png,9,Community 1,NA,TRUE,f,f,NA,NA,NA,3,6,"5,3,9,15,10,14,8,12,11,6,4,1,7,13,2"
14981,commdev-image-keyboard-response,512,13134071,learnblock2,499.00000000023283,img/planet10_left.png,10,Community 1,NA,TRUE,f,f,NA,NA,NA,3,6,"5,3,9,15,10,14,8,12,11,6,4,1,7,13,2"
14981,commdev-image-keyboard-response,513,13135323,learnblock2,474,img/planet5_left.png,5,Community 1,NA,TRUE,f,f,NA,NA,NA,3,6,"5,3,9,15,10,14,8,12,11,6,4,1,7,13,2"
14981,commdev-image-keyboard-response,514,13136575,learnblock2,506,img/planet9_right.png,9,Community 1,NA,TRUE,j,j,NA,NA,NA,3,6,"5,3,9,15,10,14,8,12,11,6,4,1,7,13,2"
14981,commdev-image-keyboard-response,515,13137828,learnblock2,522,img/planet15_left.png,15,Community 1,NA,TRUE,f,f,NA,NA,NA,3,6,"5,3,9,15,10,14,8,12,11,6,4,1,7,13,2"
14981,commdev-image-keyboard-response,516,13139080,learnblock2,551,img/planet9_left.png,9,Community 1,NA,TRUE,f,f,NA,NA,NA,3,6,"5,3,9,15,10,14,8,12,11,6,4,1,7,13,2"
14981,commdev-image-keyboard-response,517,13140332,learnblock2,571,img/planet3_right.png,3,Community 1,NA,TRUE,j,j,NA,NA,NA,3,6,"5,3,9,15,10,14,8,12,11,6,4,1,7,13,2"
14981,commdev-image-keyboard-response,518,13141584,learnblock2,636,img/planet10_right.png,10,Community 1,NA,TRUE,j,j,NA,NA,NA,3,6,"5,3,9,15,10,14,8,12,11,6,4,1,7,13,2"
14981,commdev-image-keyboard-response,519,13142837,learnblock2,582,img/planet3_right.png,3,Community 1,NA,TRUE,j,j,NA,NA,NA,3,6,"5,3,9,15,10,14,8,12,11,6,4,1,7,13,2"
14981,commdev-image-keyboard-response,520,13144091,learnblock2,558.9999999997672,img/planet15_right.png,15,Community 1,NA,TRUE,j,j,NA,NA,NA,3,6,"5,3,9,15,10,14,8,12,11,6,4,1,7,13,2"
14981,commdev-image-keyboard-response,521,13145344,learnblock2,603.0000000002328,img/planet3_left.png,3,Community 1,NA,TRUE,f,f,NA,NA,NA,3,6,"5,3,9,15,10,14,8,12,11,6,4,1,7,13,2"
14981,commdev-image-keyboard-response,522,13146597,learnblock2,586,img/planet9_right.png,9,Community 1,NA,TRUE,j,j,NA,NA,NA,3,6,"5,3,9,15,10,14,8,12,11,6,4,1,7,13,2"
14981,commdev-image-keyboard-response,523,13147849,learnblock2,523.9999999997672,img/planet10_left.png,10,Community 1,NA,TRUE,f,f,NA,NA,NA,3,6,"5,3,9,15,10,14,8,12,11,6,4,1,7,13,2"
14981,commdev-image-keyboard-response,524,13149102,learnblock2,527,img/planet4_right.png,4,Community 3,NA,TRUE,j,j,NA,NA,NA,3,6,"5,3,9,15,10,14,8,12,11,6,4,1,7,13,2"
14981,commdev-image-keyboard-response,525,13150355,learnblock2,596,img/planet10_right.png,10,Community 1,NA,TRUE,j,j,NA,NA,NA,3,6,"5,3,9,15,10,14,8,12,11,6,4,1,7,13,2"
14981,commdev-image-keyboard-response,526,13151607,learnblock2,507,img/planet9_right.png,9,Community 1,NA,TRUE,j,j,NA,NA,NA,3,6,"5,3,9,15,10,14,8,12,11,6,4,1,7,13,2"
14981,commdev-image-keyboard-response,527,13152859,learnblock2,630.9999999997672,img/planet5_left.png,5,Community 1,NA,TRUE,f,f,NA,NA,NA,3,6,"5,3,9,15,10,14,8,12,11,6,4,1,7,13,2"
14981,commdev-image-keyboard-response,528,13154112,learnblock2,457,img/planet15_left.png,15,Community 1,NA,TRUE,f,f,NA,NA,NA,3,6,"5,3,9,15,10,14,8,12,11,6,4,1,7,13,2"
14981,commdev-image-keyboard-response,529,13155365,learnblock2,575,img/planet5_left.png,5,Community 1,NA,TRUE,f,f,NA,NA,NA,3,6,"5,3,9,15,10,14,8,12,11,6,4,1,7,13,2"
14981,commdev-image-keyboard-response,530,13156617,learnblock2,595,img/planet10_right.png,10,Community 1,NA,TRUE,j,j,NA,NA,NA,3,6,"5,3,9,15,10,14,8,12,11,6,4,1,7,13,2"
14981,commdev-image-keyboard-response,531,13157869,learnblock2,501.99999999976717,img/planet5_left.png,5,Community 1,NA,TRUE,f,f,NA,NA,NA,3,6,"5,3,9,15,10,14,8,12,11,6,4,1,7,13,2"
14981,commdev-image-keyboard-response,532,13159122,learnblock2,518,img/planet9_left.png,9,Community 1,NA,TRUE,f,f,NA,NA,NA,3,6,"5,3,9,15,10,14,8,12,11,6,4,1,7,13,2"
14981,commdev-image-keyboard-response,533,13160373,learnblock2,544,img/planet5_left.png,5,Community 1,NA,TRUE,f,f,NA,NA,NA,3,6,"5,3,9,15,10,14,8,12,11,6,4,1,7,13,2"
14981,commdev-image-keyboard-response,534,13161624,learnblock2,515,img/planet10_right.png,10,Community 1,NA,TRUE,j,j,NA,NA,NA,3,6,"5,3,9,15,10,14,8,12,11,6,4,1,7,13,2"
14981,commdev-image-keyboard-response,535,13162876,learnblock2,558,img/planet3_left.png,3,Community 1,NA,TRUE,f,f,NA,NA,NA,3,6,"5,3,9,15,10,14,8,12,11,6,4,1,7,13,2"
14981,commdev-image-keyboard-response,536,13164128,learnblock2,641.9999999997672,img/planet15_right.png,15,Community 1,NA,TRUE,j,j,NA,NA,NA,3,6,"5,3,9,15,10,14,8,12,11,6,4,1,7,13,2"
14981,commdev-image-keyboard-response,537,13165380,learnblock2,577,img/planet3_right.png,3,Community 1,NA,TRUE,j,j,NA,NA,NA,3,6,"5,3,9,15,10,14,8,12,11,6,4,1,7,13,2"
14981,commdev-image-keyboard-response,538,13166632,learnblock2,547,img/planet15_right.png,15,Community 1,NA,TRUE,j,j,NA,NA,NA,3,6,"5,3,9,15,10,14,8,12,11,6,4,1,7,13,2"
14981,commdev-image-keyboard-response,539,13167883,learnblock2,471,img/planet5_left.png,5,Community 1,NA,TRUE,f,f,NA,NA,NA,3,6,"5,3,9,15,10,14,8,12,11,6,4,1,7,13,2"
14981,commdev-image-keyboard-response,540,13169135,learnblock2,514,img/planet15_right.png,15,Community 1,NA,TRUE,j,j,NA,NA,NA,3,6,"5,3,9,15,10,14,8,12,11,6,4,1,7,13,2"
14981,commdev-image-keyboard-response,541,13170387,learnblock2,570,img/planet5_right.png,5,Community 1,NA,TRUE,j,j,NA,NA,NA,3,6,"5,3,9,15,10,14,8,12,11,6,4,1,7,13,2"
14981,commdev-image-keyboard-response,542,13171639,learnblock2,704.9999999997672,img/planet15_left.png,15,Community 1,NA,TRUE,f,f,NA,NA,NA,3,6,"5,3,9,15,10,14,8,12,11,6,4,1,7,13,2"
14981,commdev-image-keyboard-response,543,13172891,learnblock2,783,img/planet5_right.png,5,Community 1,NA,TRUE,j,j,NA,NA,NA,3,6,"5,3,9,15,10,14,8,12,11,6,4,1,7,13,2"
14981,commdev-image-keyboard-response,544,13174143,learnblock2,408,img/planet15_right.png,15,Community 1,NA,FALSE,f,j,NA,NA,NA,3,6,"5,3,9,15,10,14,8,12,11,6,4,1,7,13,2"
14981,commdev-image-keyboard-response,545,13175394,learnblock2,605,img/planet9_right.png,9,Community 1,NA,TRUE,j,j,NA,NA,NA,3,6,"5,3,9,15,10,14,8,12,11,6,4,1,7,13,2"
14981,commdev-image-keyboard-response,546,13176646,learnblock2,516,img/planet5_left.png,5,Community 1,NA,TRUE,f,f,NA,NA,NA,3,6,"5,3,9,15,10,14,8,12,11,6,4,1,7,13,2"
14981,commdev-image-keyboard-response,547,13177899,learnblock2,613,img/planet3_right.png,3,Community 1,NA,TRUE,j,j,NA,NA,NA,3,6,"5,3,9,15,10,14,8,12,11,6,4,1,7,13,2"
14981,commdev-image-keyboard-response,548,13179152,learnblock2,491,img/planet10_right.png,10,Community 1,NA,TRUE,j,j,NA,NA,NA,3,6,"5,3,9,15,10,14,8,12,11,6,4,1,7,13,2"
14981,commdev-image-keyboard-response,549,13180404,learnblock2,532.0000000002328,img/planet9_left.png,9,Community 1,NA,TRUE,f,f,NA,NA,NA,3,6,"5,3,9,15,10,14,8,12,11,6,4,1,7,13,2"
14981,commdev-image-keyboard-response,550,13181656,learnblock2,557,img/planet10_left.png,10,Community 1,NA,TRUE,f,f,NA,NA,NA,3,6,"5,3,9,15,10,14,8,12,11,6,4,1,7,13,2"
14981,commdev-image-keyboard-response,551,13182908,learnblock2,490,img/planet5_right.png,5,Community 1,NA,TRUE,j,j,NA,NA,NA,3,6,"5,3,9,15,10,14,8,12,11,6,4,1,7,13,2"
14981,commdev-image-keyboard-response,552,13184159,learnblock2,546.0000000002328,img/planet10_right.png,10,Community 1,NA,TRUE,j,j,NA,NA,NA,3,6,"5,3,9,15,10,14,8,12,11,6,4,1,7,13,2"
14981,commdev-image-keyboard-response,553,13185411,learnblock2,581.0000000002328,img/planet9_left.png,9,Community 1,NA,TRUE,f,f,NA,NA,NA,3,6,"5,3,9,15,10,14,8,12,11,6,4,1,7,13,2"
14981,commdev-image-keyboard-response,554,13186663,learnblock2,488,img/planet5_right.png,5,Community 1,NA,TRUE,j,j,NA,NA,NA,3,6,"5,3,9,15,10,14,8,12,11,6,4,1,7,13,2"
14981,commdev-image-keyboard-response,555,13187915,learnblock2,586,img/planet9_right.png,9,Community 1,NA,TRUE,j,j,NA,NA,NA,3,6,"5,3,9,15,10,14,8,12,11,6,4,1,7,13,2"
14981,commdev-image-keyboard-response,556,13189167,learnblock2,556.9999999997672,img/planet10_left.png,10,Community 1,NA,TRUE,f,f,NA,NA,NA,3,6,"5,3,9,15,10,14,8,12,11,6,4,1,7,13,2"
14981,commdev-image-keyboard-response,557,13190418,learnblock2,732,img/planet3_left.png,3,Community 1,NA,TRUE,f,f,NA,NA,NA,3,6,"5,3,9,15,10,14,8,12,11,6,4,1,7,13,2"
14981,commdev-image-keyboard-response,558,13191670,learnblock2,461,img/planet10_right.png,10,Community 1,NA,TRUE,j,j,NA,NA,NA,3,6,"5,3,9,15,10,14,8,12,11,6,4,1,7,13,2"
14981,commdev-image-keyboard-response,559,13192922,learnblock2,664,img/planet3_right.png,3,Community 1,NA,TRUE,j,j,NA,NA,NA,3,6,"5,3,9,15,10,14,8,12,11,6,4,1,7,13,2"
14981,commdev-image-keyboard-response,560,13194175,learnblock2,539,img/planet9_left.png,9,Community 1,NA,TRUE,f,f,NA,NA,NA,3,6,"5,3,9,15,10,14,8,12,11,6,4,1,7,13,2"
14981,commdev-image-keyboard-response,561,13195428,learnblock2,463,img/planet5_right.png,5,Community 1,NA,TRUE,j,j,NA,NA,NA,3,6,"5,3,9,15,10,14,8,12,11,6,4,1,7,13,2"
14981,commdev-image-keyboard-response,562,13196680,learnblock2,596,img/planet15_right.png,15,Community 1,NA,TRUE,j,j,NA,NA,NA,3,6,"5,3,9,15,10,14,8,12,11,6,4,1,7,13,2"
14981,commdev-image-keyboard-response,563,13197933,learnblock2,496,img/planet14_right.png,14,Community 2,NA,TRUE,j,j,NA,NA,NA,3,6,"5,3,9,15,10,14,8,12,11,6,4,1,7,13,2"
14981,commdev-image-keyboard-response,564,13199185,learnblock2,726,img/planet8_right.png,8,Community 2,NA,TRUE,j,j,NA,NA,NA,3,6,"5,3,9,15,10,14,8,12,11,6,4,1,7,13,2"
14981,commdev-image-keyboard-response,565,13200437,learnblock2,533.9999999997672,img/planet14_right.png,14,Community 2,NA,TRUE,j,j,NA,NA,NA,3,6,"5,3,9,15,10,14,8,12,11,6,4,1,7,13,2"
14981,commdev-image-keyboard-response,566,13201690,learnblock2,734,img/planet8_right.png,8,Community 2,NA,TRUE,j,j,NA,NA,NA,3,6,"5,3,9,15,10,14,8,12,11,6,4,1,7,13,2"
14981,commdev-image-keyboard-response,567,13202943,learnblock2,581,img/planet14_right.png,14,Community 2,NA,TRUE,j,j,NA,NA,NA,3,6,"5,3,9,15,10,14,8,12,11,6,4,1,7,13,2"
14981,commdev-image-keyboard-response,568,13204196,learnblock2,627.9999999997672,img/planet15_left.png,15,Community 1,NA,TRUE,f,f,NA,NA,NA,3,6,"5,3,9,15,10,14,8,12,11,6,4,1,7,13,2"
14981,commdev-image-keyboard-response,569,13205448,learnblock2,500,img/planet9_left.png,9,Community 1,NA,FALSE,j,f,NA,NA,NA,3,6,"5,3,9,15,10,14,8,12,11,6,4,1,7,13,2"
14981,commdev-image-keyboard-response,570,13206701,learnblock2,730,img/planet5_left.png,5,Community 1,NA,TRUE,f,f,NA,NA,NA,3,6,"5,3,9,15,10,14,8,12,11,6,4,1,7,13,2"
14981,commdev-image-keyboard-response,571,13207953,learnblock2,543,img/planet15_left.png,15,Community 1,NA,TRUE,f,f,NA,NA,NA,3,6,"5,3,9,15,10,14,8,12,11,6,4,1,7,13,2"
14981,commdev-image-keyboard-response,572,13209205,learnblock2,972.9999999997672,img/planet5_left.png,5,Community 1,NA,TRUE,f,f,NA,NA,NA,3,6,"5,3,9,15,10,14,8,12,11,6,4,1,7,13,2"
14981,commdev-image-keyboard-response,573,13210457,learnblock2,571,img/planet9_right.png,9,Community 1,NA,TRUE,j,j,NA,NA,NA,3,6,"5,3,9,15,10,14,8,12,11,6,4,1,7,13,2"
14981,commdev-image-keyboard-response,574,13211709,learnblock2,698.0000000002328,img/planet15_right.png,15,Community 1,NA,TRUE,j,j,NA,NA,NA,3,6,"5,3,9,15,10,14,8,12,11,6,4,1,7,13,2"
14981,commdev-image-keyboard-response,575,13212961,learnblock2,662,img/planet3_right.png,3,Community 1,NA,TRUE,j,j,NA,NA,NA,3,6,"5,3,9,15,10,14,8,12,11,6,4,1,7,13,2"
14981,commdev-image-keyboard-response,576,13214213,learnblock2,501,img/planet15_right.png,15,Community 1,NA,TRUE,j,j,NA,NA,NA,3,6,"5,3,9,15,10,14,8,12,11,6,4,1,7,13,2"
14981,commdev-image-keyboard-response,577,13215465,learnblock2,543.9999999997672,img/planet5_left.png,5,Community 1,NA,TRUE,f,f,NA,NA,NA,3,6,"5,3,9,15,10,14,8,12,11,6,4,1,7,13,2"
14981,commdev-image-keyboard-response,578,13216718,learnblock2,488.00000000023283,img/planet10_left.png,10,Community 1,NA,TRUE,f,f,NA,NA,NA,3,6,"5,3,9,15,10,14,8,12,11,6,4,1,7,13,2"
14981,commdev-image-keyboard-response,579,13217972,learnblock2,461,img/planet9_right.png,9,Community 1,NA,FALSE,f,j,NA,NA,NA,3,6,"5,3,9,15,10,14,8,12,11,6,4,1,7,13,2"
14981,commdev-image-keyboard-response,580,13219225,learnblock2,553.9999999997672,img/planet10_right.png,10,Community 1,NA,TRUE,j,j,NA,NA,NA,3,6,"5,3,9,15,10,14,8,12,11,6,4,1,7,13,2"
14981,commdev-image-keyboard-response,581,13220477,learnblock2,593,img/planet3_right.png,3,Community 1,NA,TRUE,j,j,NA,NA,NA,3,6,"5,3,9,15,10,14,8,12,11,6,4,1,7,13,2"
14981,commdev-image-keyboard-response,582,13221729,learnblock2,770,img/planet10_left.png,10,Community 1,NA,TRUE,f,f,NA,NA,NA,3,6,"5,3,9,15,10,14,8,12,11,6,4,1,7,13,2"
14981,commdev-image-keyboard-response,583,13222981,learnblock2,507,img/planet9_right.png,9,Community 1,NA,TRUE,j,j,NA,NA,NA,3,6,"5,3,9,15,10,14,8,12,11,6,4,1,7,13,2"
14981,commdev-image-keyboard-response,584,13224233,learnblock2,641,img/planet15_right.png,15,Community 1,NA,TRUE,j,j,NA,NA,NA,3,6,"5,3,9,15,10,14,8,12,11,6,4,1,7,13,2"
14981,commdev-image-keyboard-response,585,13225485,learnblock2,593.9999999997672,img/planet14_left.png,14,Community 2,NA,TRUE,f,f,NA,NA,NA,3,6,"5,3,9,15,10,14,8,12,11,6,4,1,7,13,2"
14981,commdev-image-keyboard-response,586,13226737,learnblock2,769,img/planet15_left.png,15,Community 1,NA,TRUE,f,f,NA,NA,NA,3,6,"5,3,9,15,10,14,8,12,11,6,4,1,7,13,2"
14981,commdev-image-keyboard-response,587,13227989,learnblock2,569,img/planet3_left.png,3,Community 1,NA,FALSE,j,f,NA,NA,NA,3,6,"5,3,9,15,10,14,8,12,11,6,4,1,7,13,2"
14981,commdev-image-keyboard-response,588,13229241,learnblock2,499,img/planet5_left.png,5,Community 1,NA,TRUE,f,f,NA,NA,NA,3,6,"5,3,9,15,10,14,8,12,11,6,4,1,7,13,2"
14981,commdev-image-keyboard-response,589,13230493,learnblock2,510.99999999976717,img/planet15_right.png,15,Community 1,NA,TRUE,j,j,NA,NA,NA,3,6,"5,3,9,15,10,14,8,12,11,6,4,1,7,13,2"
14981,commdev-image-keyboard-response,590,13231745,learnblock2,423,img/planet5_right.png,5,Community 1,NA,TRUE,j,j,NA,NA,NA,3,6,"5,3,9,15,10,14,8,12,11,6,4,1,7,13,2"
14981,commdev-image-keyboard-response,591,13232998,learnblock2,500,img/planet9_left.png,9,Community 1,NA,TRUE,f,f,NA,NA,NA,3,6,"5,3,9,15,10,14,8,12,11,6,4,1,7,13,2"
14981,commdev-image-keyboard-response,592,13234249,learnblock2,510,img/planet10_right.png,10,Community 1,NA,TRUE,j,j,NA,NA,NA,3,6,"5,3,9,15,10,14,8,12,11,6,4,1,7,13,2"
14981,commdev-image-keyboard-response,593,13235501,learnblock2,541.0000000002328,img/planet9_left.png,9,Community 1,NA,TRUE,f,f,NA,NA,NA,3,6,"5,3,9,15,10,14,8,12,11,6,4,1,7,13,2"
14981,commdev-image-keyboard-response,594,13236754,learnblock2,520.9999999997672,img/planet10_right.png,10,Community 1,NA,TRUE,j,j,NA,NA,NA,3,6,"5,3,9,15,10,14,8,12,11,6,4,1,7,13,2"
14981,commdev-image-keyboard-response,595,13238006,learnblock2,819,img/planet5_right.png,5,Community 1,NA,TRUE,j,j,NA,NA,NA,3,6,"5,3,9,15,10,14,8,12,11,6,4,1,7,13,2"
14981,commdev-image-keyboard-response,596,13239258,learnblock2,589,img/planet15_right.png,15,Community 1,NA,TRUE,j,j,NA,NA,NA,3,6,"5,3,9,15,10,14,8,12,11,6,4,1,7,13,2"
14981,commdev-image-keyboard-response,597,13240510,learnblock2,501,img/planet3_right.png,3,Community 1,NA,TRUE,j,j,NA,NA,NA,3,6,"5,3,9,15,10,14,8,12,11,6,4,1,7,13,2"
14981,commdev-image-keyboard-response,598,13241762,learnblock2,502,img/planet9_left.png,9,Community 1,NA,TRUE,f,f,NA,NA,NA,3,6,"5,3,9,15,10,14,8,12,11,6,4,1,7,13,2"
14981,commdev-image-keyboard-response,599,13243014,learnblock2,654,img/planet5_right.png,5,Community 1,NA,FALSE,f,j,NA,NA,NA,3,6,"5,3,9,15,10,14,8,12,11,6,4,1,7,13,2"
14981,commdev-image-keyboard-response,600,13244266,learnblock2,598,img/planet15_right.png,15,Community 1,NA,TRUE,j,j,NA,NA,NA,3,6,"5,3,9,15,10,14,8,12,11,6,4,1,7,13,2"
14981,commdev-image-keyboard-response,601,13245519,learnblock2,600.0000000002328,img/planet9_left.png,9,Community 1,NA,TRUE,f,f,NA,NA,NA,3,6,"5,3,9,15,10,14,8,12,11,6,4,1,7,13,2"
14981,commdev-image-keyboard-response,602,13246771,learnblock2,733,img/planet3_left.png,3,Community 1,NA,TRUE,f,f,NA,NA,NA,3,6,"5,3,9,15,10,14,8,12,11,6,4,1,7,13,2"
14981,commdev-image-keyboard-response,603,13248024,learnblock2,497,img/planet5_right.png,5,Community 1,NA,TRUE,j,j,NA,NA,NA,3,6,"5,3,9,15,10,14,8,12,11,6,4,1,7,13,2"
14981,commdev-image-keyboard-response,604,13249276,learnblock2,486,img/planet9_left.png,9,Community 1,NA,TRUE,f,f,NA,NA,NA,3,6,"5,3,9,15,10,14,8,12,11,6,4,1,7,13,2"
14981,commdev-image-keyboard-response,605,13250528,learnblock2,523,img/planet10_left.png,10,Community 1,NA,TRUE,f,f,NA,NA,NA,3,6,"5,3,9,15,10,14,8,12,11,6,4,1,7,13,2"
14981,commdev-image-keyboard-response,606,13251780,learnblock2,669,img/planet4_left.png,4,Community 3,NA,TRUE,f,f,NA,NA,NA,3,6,"5,3,9,15,10,14,8,12,11,6,4,1,7,13,2"
14981,commdev-image-keyboard-response,607,13253035,learnblock2,604,img/planet13_right.png,13,Community 3,NA,TRUE,j,j,NA,NA,NA,3,6,"5,3,9,15,10,14,8,12,11,6,4,1,7,13,2"
14981,commdev-image-keyboard-response,608,13254287,learnblock2,459,img/planet7_right.png,7,Community 3,NA,TRUE,j,j,NA,NA,NA,3,6,"5,3,9,15,10,14,8,12,11,6,4,1,7,13,2"
14981,commdev-image-keyboard-response,609,13255539,learnblock2,535,img/planet13_left.png,13,Community 3,NA,TRUE,f,f,NA,NA,NA,3,6,"5,3,9,15,10,14,8,12,11,6,4,1,7,13,2"
14981,commdev-image-keyboard-response,610,13256791,learnblock2,460,img/planet1_right.png,1,Community 3,NA,FALSE,f,j,NA,NA,NA,3,6,"5,3,9,15,10,14,8,12,11,6,4,1,7,13,2"
14981,commdev-image-keyboard-response,611,13258043,learnblock2,586.9999999997672,img/planet7_right.png,7,Community 3,NA,TRUE,j,j,NA,NA,NA,3,6,"5,3,9,15,10,14,8,12,11,6,4,1,7,13,2"
14981,commdev-image-keyboard-response,612,13259295,learnblock2,607,img/planet13_right.png,13,Community 3,NA,TRUE,j,j,NA,NA,NA,3,6,"5,3,9,15,10,14,8,12,11,6,4,1,7,13,2"
14981,commdev-image-keyboard-response,613,13260547,learnblock2,496,img/planet7_right.png,7,Community 3,NA,TRUE,j,j,NA,NA,NA,3,6,"5,3,9,15,10,14,8,12,11,6,4,1,7,13,2"
14981,commdev-image-keyboard-response,614,13261799,learnblock2,544,img/planet4_left.png,4,Community 3,NA,TRUE,f,f,NA,NA,NA,3,6,"5,3,9,15,10,14,8,12,11,6,4,1,7,13,2"
14981,commdev-image-keyboard-response,615,13263050,learnblock2,589,img/planet2_left.png,2,Community 3,NA,TRUE,f,f,NA,NA,NA,3,6,"5,3,9,15,10,14,8,12,11,6,4,1,7,13,2"
14981,commdev-image-keyboard-response,616,13264302,learnblock2,550,img/planet1_right.png,1,Community 3,NA,TRUE,j,j,NA,NA,NA,3,6,"5,3,9,15,10,14,8,12,11,6,4,1,7,13,2"
14981,commdev-image-keyboard-response,617,13265554,learnblock2,736,img/planet13_left.png,13,Community 3,NA,TRUE,f,f,NA,NA,NA,3,6,"5,3,9,15,10,14,8,12,11,6,4,1,7,13,2"
14981,commdev-image-keyboard-response,618,13266806,learnblock2,642,img/planet7_right.png,7,Community 3,NA,TRUE,j,j,NA,NA,NA,3,6,"5,3,9,15,10,14,8,12,11,6,4,1,7,13,2"
14981,commdev-image-keyboard-response,619,13268058,learnblock2,459,img/planet2_right.png,2,Community 3,NA,TRUE,j,j,NA,NA,NA,3,6,"5,3,9,15,10,14,8,12,11,6,4,1,7,13,2"
14981,commdev-image-keyboard-response,620,13269310,learnblock2,547,img/planet13_left.png,13,Community 3,NA,TRUE,f,f,NA,NA,NA,3,6,"5,3,9,15,10,14,8,12,11,6,4,1,7,13,2"
14981,commdev-image-keyboard-response,621,13270562,learnblock2,490.99999999976717,img/planet2_left.png,2,Community 3,NA,TRUE,f,f,NA,NA,NA,3,6,"5,3,9,15,10,14,8,12,11,6,4,1,7,13,2"
14981,commdev-image-keyboard-response,622,13271814,learnblock2,583,img/planet7_left.png,7,Community 3,NA,TRUE,f,f,NA,NA,NA,3,6,"5,3,9,15,10,14,8,12,11,6,4,1,7,13,2"
14981,commdev-image-keyboard-response,623,13273066,learnblock2,720,img/planet1_left.png,1,Community 3,NA,TRUE,f,f,NA,NA,NA,3,6,"5,3,9,15,10,14,8,12,11,6,4,1,7,13,2"
14981,commdev-image-keyboard-response,624,13274319,learnblock2,787,img/planet7_left.png,7,Community 3,NA,TRUE,f,f,NA,NA,NA,3,6,"5,3,9,15,10,14,8,12,11,6,4,1,7,13,2"
14981,commdev-image-keyboard-response,625,13275571,learnblock2,568.9999999997672,img/planet13_left.png,13,Community 3,NA,TRUE,f,f,NA,NA,NA,3,6,"5,3,9,15,10,14,8,12,11,6,4,1,7,13,2"
14981,commdev-image-keyboard-response,626,13276823,learnblock2,480,img/planet1_left.png,1,Community 3,NA,TRUE,f,f,NA,NA,NA,3,6,"5,3,9,15,10,14,8,12,11,6,4,1,7,13,2"
14981,commdev-image-keyboard-response,627,13278076,learnblock2,509,img/planet13_right.png,13,Community 3,NA,TRUE,j,j,NA,NA,NA,3,6,"5,3,9,15,10,14,8,12,11,6,4,1,7,13,2"
14981,commdev-image-keyboard-response,628,13279329,learnblock2,513,img/planet4_left.png,4,Community 3,NA,TRUE,f,f,NA,NA,NA,3,6,"5,3,9,15,10,14,8,12,11,6,4,1,7,13,2"
14981,commdev-image-keyboard-response,629,13280581,learnblock2,637.9999999997672,img/planet7_left.png,7,Community 3,NA,TRUE,f,f,NA,NA,NA,3,6,"5,3,9,15,10,14,8,12,11,6,4,1,7,13,2"
14981,commdev-image-keyboard-response,630,13281834,learnblock2,593.0000000002328,img/planet1_right.png,1,Community 3,NA,TRUE,j,j,NA,NA,NA,3,6,"5,3,9,15,10,14,8,12,11,6,4,1,7,13,2"
14981,commdev-image-keyboard-response,631,13283086,learnblock2,559,img/planet7_right.png,7,Community 3,NA,TRUE,j,j,NA,NA,NA,3,6,"5,3,9,15,10,14,8,12,11,6,4,1,7,13,2"
14981,commdev-image-keyboard-response,632,13284338,learnblock2,550,img/planet13_left.png,13,Community 3,NA,TRUE,f,f,NA,NA,NA,3,6,"5,3,9,15,10,14,8,12,11,6,4,1,7,13,2"
14981,commdev-image-keyboard-response,633,13285591,learnblock2,616.9999999997672,img/planet7_left.png,7,Community 3,NA,TRUE,f,f,NA,NA,NA,3,6,"5,3,9,15,10,14,8,12,11,6,4,1,7,13,2"
14981,commdev-image-keyboard-response,634,13286844,learnblock2,464,img/planet2_right.png,2,Community 3,NA,FALSE,f,j,NA,NA,NA,3,6,"5,3,9,15,10,14,8,12,11,6,4,1,7,13,2"
14981,commdev-image-keyboard-response,635,13288097,learnblock2,626,img/planet13_left.png,13,Community 3,NA,TRUE,f,f,NA,NA,NA,3,6,"5,3,9,15,10,14,8,12,11,6,4,1,7,13,2"
14981,commdev-image-keyboard-response,636,13289348,learnblock2,633,img/planet4_right.png,4,Community 3,NA,FALSE,f,j,NA,NA,NA,3,6,"5,3,9,15,10,14,8,12,11,6,4,1,7,13,2"
14981,commdev-image-keyboard-response,637,13290601,learnblock2,572,img/planet7_left.png,7,Community 3,NA,TRUE,f,f,NA,NA,NA,3,6,"5,3,9,15,10,14,8,12,11,6,4,1,7,13,2"
14981,commdev-image-keyboard-response,638,13291852,learnblock2,612.0000000002328,img/planet2_right.png,2,Community 3,NA,TRUE,j,j,NA,NA,NA,3,6,"5,3,9,15,10,14,8,12,11,6,4,1,7,13,2"
14981,commdev-image-keyboard-response,639,13293104,learnblock2,668,img/planet4_right.png,4,Community 3,NA,TRUE,j,j,NA,NA,NA,3,6,"5,3,9,15,10,14,8,12,11,6,4,1,7,13,2"
14981,commdev-image-keyboard-response,640,13294357,learnblock2,629,img/planet7_left.png,7,Community 3,NA,TRUE,f,f,NA,NA,NA,3,6,"5,3,9,15,10,14,8,12,11,6,4,1,7,13,2"
14981,commdev-image-keyboard-response,641,13295608,learnblock2,544,img/planet4_right.png,4,Community 3,NA,TRUE,j,j,NA,NA,NA,3,6,"5,3,9,15,10,14,8,12,11,6,4,1,7,13,2"
14981,commdev-image-keyboard-response,642,13296861,learnblock2,570.9999999997672,img/planet7_left.png,7,Community 3,NA,TRUE,f,f,NA,NA,NA,3,6,"5,3,9,15,10,14,8,12,11,6,4,1,7,13,2"
14981,commdev-image-keyboard-response,643,13298113,learnblock2,535.0000000002328,img/planet1_left.png,1,Community 3,NA,TRUE,f,f,NA,NA,NA,3,6,"5,3,9,15,10,14,8,12,11,6,4,1,7,13,2"
14981,commdev-image-keyboard-response,644,13299366,learnblock2,601,img/planet13_left.png,13,Community 3,NA,TRUE,f,f,NA,NA,NA,3,6,"5,3,9,15,10,14,8,12,11,6,4,1,7,13,2"
14981,commdev-image-keyboard-response,645,13300618,learnblock2,635,img/planet1_right.png,1,Community 3,NA,TRUE,j,j,NA,NA,NA,3,6,"5,3,9,15,10,14,8,12,11,6,4,1,7,13,2"
14981,commdev-image-keyboard-response,646,13301871,learnblock2,702,img/planet7_right.png,7,Community 3,NA,TRUE,j,j,NA,NA,NA,3,6,"5,3,9,15,10,14,8,12,11,6,4,1,7,13,2"
14981,commdev-image-keyboard-response,647,13303124,learnblock2,682,img/planet2_right.png,2,Community 3,NA,TRUE,j,j,NA,NA,NA,3,6,"5,3,9,15,10,14,8,12,11,6,4,1,7,13,2"
14981,commdev-image-keyboard-response,648,13304378,learnblock2,900,img/planet13_right.png,13,Community 3,NA,TRUE,j,j,NA,NA,NA,3,6,"5,3,9,15,10,14,8,12,11,6,4,1,7,13,2"
14981,commdev-image-keyboard-response,649,13305631,learnblock2,606,img/planet2_left.png,2,Community 3,NA,TRUE,f,f,NA,NA,NA,3,6,"5,3,9,15,10,14,8,12,11,6,4,1,7,13,2"
14981,commdev-image-keyboard-response,650,13306884,learnblock2,618,img/planet13_left.png,13,Community 3,NA,TRUE,f,f,NA,NA,NA,3,6,"5,3,9,15,10,14,8,12,11,6,4,1,7,13,2"
14981,commdev-image-keyboard-response,651,13308135,learnblock2,536,img/planet7_right.png,7,Community 3,NA,TRUE,j,j,NA,NA,NA,3,6,"5,3,9,15,10,14,8,12,11,6,4,1,7,13,2"
14981,commdev-image-keyboard-response,652,13309387,learnblock2,587,img/planet4_right.png,4,Community 3,NA,TRUE,j,j,NA,NA,NA,3,6,"5,3,9,15,10,14,8,12,11,6,4,1,7,13,2"
14981,commdev-image-keyboard-response,653,13310640,learnblock2,699,img/planet13_right.png,13,Community 3,NA,TRUE,j,j,NA,NA,NA,3,6,"5,3,9,15,10,14,8,12,11,6,4,1,7,13,2"
14981,commdev-image-keyboard-response,654,13311893,learnblock2,649.0000000002328,img/planet1_left.png,1,Community 3,NA,TRUE,f,f,NA,NA,NA,3,6,"5,3,9,15,10,14,8,12,11,6,4,1,7,13,2"
14981,commdev-image-keyboard-response,655,13313146,learnblock2,583,img/planet2_left.png,2,Community 3,NA,TRUE,f,f,NA,NA,NA,3,6,"5,3,9,15,10,14,8,12,11,6,4,1,7,13,2"
14981,commdev-image-keyboard-response,656,13314398,learnblock2,559,img/planet4_right.png,4,Community 3,NA,TRUE,j,j,NA,NA,NA,3,6,"5,3,9,15,10,14,8,12,11,6,4,1,7,13,2"
14981,commdev-image-keyboard-response,657,13315651,learnblock2,527,img/planet10_left.png,10,Community 1,NA,TRUE,f,f,NA,NA,NA,3,6,"5,3,9,15,10,14,8,12,11,6,4,1,7,13,2"
14981,commdev-image-keyboard-response,658,13316903,learnblock2,803.0000000002328,img/planet3_left.png,3,Community 1,NA,FALSE,j,f,NA,NA,NA,3,6,"5,3,9,15,10,14,8,12,11,6,4,1,7,13,2"
14981,commdev-image-keyboard-response,659,13318154,learnblock2,625,img/planet10_left.png,10,Community 1,NA,TRUE,f,f,NA,NA,NA,3,6,"5,3,9,15,10,14,8,12,11,6,4,1,7,13,2"
14981,commdev-image-keyboard-response,660,13319405,learnblock2,569.0000000002328,img/planet4_left.png,4,Community 3,NA,TRUE,f,f,NA,NA,NA,3,6,"5,3,9,15,10,14,8,12,11,6,4,1,7,13,2"
14981,commdev-image-keyboard-response,661,13320657,learnblock2,433.00000000023283,img/planet10_right.png,10,Community 1,NA,FALSE,f,j,NA,NA,NA,3,6,"5,3,9,15,10,14,8,12,11,6,4,1,7,13,2"
14981,commdev-image-keyboard-response,662,13321908,learnblock2,554.9999999997672,img/planet5_left.png,5,Community 1,NA,TRUE,f,f,NA,NA,NA,3,6,"5,3,9,15,10,14,8,12,11,6,4,1,7,13,2"
14981,commdev-image-keyboard-response,663,13323160,learnblock2,651,img/planet9_right.png,9,Community 1,NA,TRUE,j,j,NA,NA,NA,3,6,"5,3,9,15,10,14,8,12,11,6,4,1,7,13,2"
14981,commdev-image-keyboard-response,664,13324412,learnblock2,679,img/planet15_left.png,15,Community 1,NA,TRUE,f,f,NA,NA,NA,3,6,"5,3,9,15,10,14,8,12,11,6,4,1,7,13,2"
14981,commdev-image-keyboard-response,665,13325665,learnblock2,606,img/planet14_right.png,14,Community 2,NA,TRUE,j,j,NA,NA,NA,3,6,"5,3,9,15,10,14,8,12,11,6,4,1,7,13,2"
14981,commdev-image-keyboard-response,666,13326916,learnblock2,588.0000000002328,img/planet15_left.png,15,Community 1,NA,TRUE,f,f,NA,NA,NA,3,6,"5,3,9,15,10,14,8,12,11,6,4,1,7,13,2"
14981,commdev-image-keyboard-response,667,13328169,learnblock2,711,img/planet3_left.png,3,Community 1,NA,TRUE,f,f,NA,NA,NA,3,6,"5,3,9,15,10,14,8,12,11,6,4,1,7,13,2"
14981,commdev-image-keyboard-response,668,13329420,learnblock2,536,img/planet15_right.png,15,Community 1,NA,TRUE,j,j,NA,NA,NA,3,6,"5,3,9,15,10,14,8,12,11,6,4,1,7,13,2"
14981,commdev-image-keyboard-response,669,13330673,learnblock2,766,img/planet9_left.png,9,Community 1,NA,TRUE,f,f,NA,NA,NA,3,6,"5,3,9,15,10,14,8,12,11,6,4,1,7,13,2"
14981,commdev-image-keyboard-response,670,13331926,learnblock2,642,img/planet10_right.png,10,Community 1,NA,TRUE,j,j,NA,NA,NA,3,6,"5,3,9,15,10,14,8,12,11,6,4,1,7,13,2"
14981,commdev-image-keyboard-response,671,13333178,learnblock2,644.0000000002328,img/planet4_right.png,4,Community 3,NA,TRUE,j,j,NA,NA,NA,3,6,"5,3,9,15,10,14,8,12,11,6,4,1,7,13,2"
14981,commdev-image-keyboard-response,672,13334430,learnblock2,920.0000000002328,img/planet13_right.png,13,Community 3,NA,TRUE,j,j,NA,NA,NA,3,6,"5,3,9,15,10,14,8,12,11,6,4,1,7,13,2"
14981,commdev-image-keyboard-response,673,13335682,learnblock2,743,img/planet7_right.png,7,Community 3,NA,TRUE,j,j,NA,NA,NA,3,6,"5,3,9,15,10,14,8,12,11,6,4,1,7,13,2"
14981,commdev-image-keyboard-response,674,13336933,learnblock2,716,img/planet13_right.png,13,Community 3,NA,FALSE,f,j,NA,NA,NA,3,6,"5,3,9,15,10,14,8,12,11,6,4,1,7,13,2"
14981,commdev-image-keyboard-response,675,13338186,learnblock2,651,img/planet4_left.png,4,Community 3,NA,TRUE,f,f,NA,NA,NA,3,6,"5,3,9,15,10,14,8,12,11,6,4,1,7,13,2"
14981,commdev-image-keyboard-response,676,13339439,learnblock2,441,img/planet2_left.png,2,Community 3,NA,TRUE,f,f,NA,NA,NA,3,6,"5,3,9,15,10,14,8,12,11,6,4,1,7,13,2"
14981,commdev-image-keyboard-response,677,13340693,learnblock2,426,img/planet4_left.png,4,Community 3,NA,TRUE,f,f,NA,NA,NA,3,6,"5,3,9,15,10,14,8,12,11,6,4,1,7,13,2"
14981,commdev-image-keyboard-response,678,13341945,learnblock2,457,img/planet7_right.png,7,Community 3,NA,TRUE,j,j,NA,NA,NA,3,6,"5,3,9,15,10,14,8,12,11,6,4,1,7,13,2"
14981,commdev-image-keyboard-response,679,13343198,learnblock2,647.9999999997672,img/planet13_left.png,13,Community 3,NA,TRUE,f,f,NA,NA,NA,3,6,"5,3,9,15,10,14,8,12,11,6,4,1,7,13,2"
14981,commdev-image-keyboard-response,680,13344450,learnblock2,479,img/planet2_right.png,2,Community 3,NA,TRUE,j,j,NA,NA,NA,3,6,"5,3,9,15,10,14,8,12,11,6,4,1,7,13,2"
14981,commdev-image-keyboard-response,681,13345703,learnblock2,684,img/planet1_right.png,1,Community 3,NA,TRUE,j,j,NA,NA,NA,3,6,"5,3,9,15,10,14,8,12,11,6,4,1,7,13,2"
14981,commdev-image-keyboard-response,682,13346955,learnblock2,646,img/planet2_left.png,2,Community 3,NA,TRUE,f,f,NA,NA,NA,3,6,"5,3,9,15,10,14,8,12,11,6,4,1,7,13,2"
