subject_id,trial_type,trial_index,time_elapsed,block,rt,stimulus,planet,community,response,correct,key_press,learning_correct_response,parse,init_locations,final_locations,browser_interactions,num_comp,planet_map
14821,commdev-instructions,7,52292,NA,1142.2000000476837,"<p>In this game, you will be shown a 3x3 grid of patterns.</p> <p>The last one in the bottom right-hand corner, <strong>will be missing:</strong></p> <div style='width: 700px;'><div style='float: top;'><img style='width: 200px;' src='practice/p1_M1.png'></img><p class='small'>You need to select<strong> which of the four possible patterns </strong>along the bottom<strong> fits into the gap:</strong></p></div><div style='float: top;'><img style='width: 300px;' src='practice/p1_T1.png'></img></div><br>",NA,NA,NA,NA,NA,NA,NA,NA,NA,1,6,"10,4,7,2,13,14,12,15,9,11,8,1,6,5,3"
14821,commdev-instructions,8,72871,NA,1306.4000000953674,"<p>Try to be as fast and as accurate as you can be.</p> <p>If you cannot solve the puzzle then you should guess - you will not be penalised for an incorrect answer.</p> <p>The task contains a shuffled mix of easy, medium and hard puzzles.</p> <p>You will have <strong>30 seconds</strong> to complete each puzzle.</p><br>",NA,NA,NA,NA,NA,NA,NA,NA,NA,1,6,"10,4,7,2,13,14,12,15,9,11,8,1,6,5,3"
14821,commdev-instructions,15,96493,NA,912.3999999761581,<p><strong>Success!</strong></p> <p>You seem to be getting the hang of this...</p> <p>Let's move on to the real trials.</p><br>,NA,NA,NA,NA,NA,NA,NA,NA,NA,1,6,"10,4,7,2,13,14,12,15,9,11,8,1,6,5,3"
14821,commdev-instructions,77,592792,NA,3945.100000023842,"<p>In this game, you are a scientist on board a space shuttle. </p><p> On each mission, you will visit planets all across the universe.</p><img src=""img/controlroom.jpg"" width=300vw>",NA,NA,NA,NA,NA,NA,NA,NA,NA,1,6,"10,4,7,2,13,14,12,15,9,11,8,1,6,5,3"
14821,commdev-instructions,78,597170,NA,2303.6999999284744,"<p>Here are a few planets you might see:</p><img src=""img/practice1.png"" width=200vw><img src=""img/practice2.png"" width=200vw><img src=""img/practice3.png"" width=200vw>",NA,NA,NA,NA,NA,NA,NA,NA,NA,1,6,"10,4,7,2,13,14,12,15,9,11,8,1,6,5,3"
14821,commdev-instructions,79,606537,NA,1960.1000000238419,"<p>Your job as a scientist is to record which direction the winds are moving on each planet.</p><p>There are two types of wind directions:</p><img src=""img/practice1_left.png"" width=200vw><img src=""img/practice1_right.png"" width=200vw>",NA,NA,NA,NA,NA,NA,NA,NA,NA,1,6,"10,4,7,2,13,14,12,15,9,11,8,1,6,5,3"
14821,commdev-instructions,80,613122,NA,1695.0999999046326,"<p>If the winds are moving this way, press the letter <strong>F</strong> on the keyboard as fast as you can.</p><img src=""img/leftwind.png"" width=250vw>",NA,NA,NA,NA,NA,NA,NA,NA,NA,1,6,"10,4,7,2,13,14,12,15,9,11,8,1,6,5,3"
14821,commdev-instructions,81,619633,NA,2005.8999999761581,"<p>If the winds are moving this way, press the letter <strong>J</strong> on the keyboard as fast as you can.</p><img src=""img/rightwind.png"" width=350vw>",NA,NA,NA,NA,NA,NA,NA,NA,NA,1,6,"10,4,7,2,13,14,12,15,9,11,8,1,6,5,3"
14821,commdev-instructions,82,625410,NA,1352.5,<p>You will have 1 second to respond. Try to respond before the time runs out!,NA,NA,NA,NA,NA,NA,NA,NA,NA,1,6,"10,4,7,2,13,14,12,15,9,11,8,1,6,5,3"
14821,commdev-instructions,83,632208,NA,1362.5,<p>The planets you will visit will look different from each other.</p><p>You should respond <strong>only</strong> based on wind direction.,NA,NA,NA,NA,NA,NA,NA,NA,NA,1,6,"10,4,7,2,13,14,12,15,9,11,8,1,6,5,3"
14821,commdev-instructions,84,638985,NA,1588.2999999523163,"<p> Ready to start the practice round? </p><p> Remember, press <strong>F</strong> or <strong>J</strong> depending on the wind direction.<br><img src=""img/categorize_planet_example.png""",NA,NA,NA,NA,NA,NA,NA,NA,NA,1,6,"10,4,7,2,13,14,12,15,9,11,8,1,6,5,3"
14821,commdev-instructions,96,690802,NA,1593,"<p>Great, now try a short practice mission. </p><p> This time, you will have 1 second to respond and you won't know whether you pressed the right or wrong key for each planet.</p>",NA,NA,NA,NA,NA,NA,NA,NA,NA,1,6,"10,4,7,2,13,14,12,15,9,11,8,1,6,5,3"
14821,commdev-image-keyboard-response,97,692176,practice,1210,img/practice1_right.png,NA,Number not found in mappings,NA,TRUE,j,j,NA,NA,NA,1,6,"10,4,7,2,13,14,12,15,9,11,8,1,6,5,3"
14821,commdev-image-keyboard-response,98,693442,practice,702,img/practice4_right.png,NA,Number not found in mappings,NA,TRUE,j,j,NA,NA,NA,1,6,"10,4,7,2,13,14,12,15,9,11,8,1,6,5,3"
14821,commdev-image-keyboard-response,99,694707,practice,877.6000000238419,img/practice2_left.png,NA,Number not found in mappings,NA,TRUE,f,f,NA,NA,NA,1,6,"10,4,7,2,13,14,12,15,9,11,8,1,6,5,3"
14821,commdev-image-keyboard-response,100,695968,practice,842.4000000953674,img/practice4_left.png,NA,Number not found in mappings,NA,TRUE,f,f,NA,NA,NA,1,6,"10,4,7,2,13,14,12,15,9,11,8,1,6,5,3"
14821,commdev-image-keyboard-response,101,697227,practice,592.7999999523163,img/practice1_left.png,NA,Number not found in mappings,NA,TRUE,f,f,NA,NA,NA,1,6,"10,4,7,2,13,14,12,15,9,11,8,1,6,5,3"
14821,commdev-image-keyboard-response,102,698480,practice,517.1000000238419,img/practice2_right.png,NA,Number not found in mappings,NA,TRUE,j,j,NA,NA,NA,1,6,"10,4,7,2,13,14,12,15,9,11,8,1,6,5,3"
14821,commdev-image-keyboard-response,103,699732,practice,534.8999999761581,img/practice1_left.png,NA,Number not found in mappings,NA,TRUE,f,f,NA,NA,NA,1,6,"10,4,7,2,13,14,12,15,9,11,8,1,6,5,3"
14821,commdev-image-keyboard-response,104,700989,practice,570.0999999046326,img/practice4_left.png,NA,Number not found in mappings,NA,TRUE,f,f,NA,NA,NA,1,6,"10,4,7,2,13,14,12,15,9,11,8,1,6,5,3"
14821,commdev-instructions,105,712984,NA,2444.5,"<p>Great job with the practice round.</p><p>During real missions, you won't know whether you pressed the right or wrong key for each planet.</p><p>But between missions, we will tell you how you did overall.</p>",NA,NA,NA,NA,NA,NA,NA,NA,NA,1,6,"10,4,7,2,13,14,12,15,9,11,8,1,6,5,3"
14821,commdev-instructions,106,723383,NA,2154,<p>Try your best! You will be paid a bonus based on how many correct responses you make!</p><p>Responses that are too slow will not count toward your bonus.</p>,NA,NA,NA,NA,NA,NA,NA,NA,NA,1,6,"10,4,7,2,13,14,12,15,9,11,8,1,6,5,3"
14821,commdev-instructions,107,730680,NA,1081.9000000953674,"<p>You are almost ready to start the real game.</p><p> First, we are going to ask you some questions about how the game works.</p>",NA,NA,NA,NA,NA,NA,NA,NA,NA,1,6,"10,4,7,2,13,14,12,15,9,11,8,1,6,5,3"
14821,commdev-instructions,116,810492,NA,3702,"<p> Nice work! It is now time to start the real game.<p></p>You will go on two missions to record wind directions of different planets.<p></p>Each one will take about 5 minutes. You will get to take a break between missions.<p><p> Remember, press <strong>F</strong> or <strong>J</strong> depending on the wind direction. Good luck!<br><img src=""img/categorize_planet_example.png""",NA,NA,NA,NA,NA,NA,NA,NA,NA,1,6,"10,4,7,2,13,14,12,15,9,11,8,1,6,5,3"
14821,commdev-image-keyboard-response,118,816197,learnblock1,null,img/planet12_right.png,12,Community 2,NA,FALSE,null,j,NA,NA,NA,1,6,"10,4,7,2,13,14,12,15,9,11,8,1,6,5,3"
14821,commdev-image-keyboard-response,119,817459,learnblock1,764.8999999761581,img/planet11_left.png,11,Community 2,NA,TRUE,f,f,NA,NA,NA,1,6,"10,4,7,2,13,14,12,15,9,11,8,1,6,5,3"
14821,commdev-image-keyboard-response,120,818725,learnblock1,769.0999999046326,img/planet12_right.png,12,Community 2,NA,TRUE,j,j,NA,NA,NA,1,6,"10,4,7,2,13,14,12,15,9,11,8,1,6,5,3"
14821,commdev-image-keyboard-response,121,819989,learnblock1,1157.7999999523163,img/planet9_left.png,9,Community 2,NA,TRUE,f,f,NA,NA,NA,1,6,"10,4,7,2,13,14,12,15,9,11,8,1,6,5,3"
14821,commdev-image-keyboard-response,122,821254,learnblock1,901.7000000476837,img/planet14_right.png,14,Community 2,NA,TRUE,j,j,NA,NA,NA,1,6,"10,4,7,2,13,14,12,15,9,11,8,1,6,5,3"
14821,commdev-image-keyboard-response,123,822520,learnblock1,677.6000000238419,img/planet12_right.png,12,Community 2,NA,TRUE,j,j,NA,NA,NA,1,6,"10,4,7,2,13,14,12,15,9,11,8,1,6,5,3"
14821,commdev-image-keyboard-response,124,823781,learnblock1,702.7000000476837,img/planet9_right.png,9,Community 2,NA,TRUE,j,j,NA,NA,NA,1,6,"10,4,7,2,13,14,12,15,9,11,8,1,6,5,3"
14821,commdev-image-keyboard-response,125,825033,learnblock1,530.5999999046326,img/planet12_left.png,12,Community 2,NA,TRUE,f,f,NA,NA,NA,1,6,"10,4,7,2,13,14,12,15,9,11,8,1,6,5,3"
14821,commdev-image-keyboard-response,126,826289,learnblock1,660.9000000953674,img/planet15_left.png,15,Community 2,NA,TRUE,f,f,NA,NA,NA,1,6,"10,4,7,2,13,14,12,15,9,11,8,1,6,5,3"
14821,commdev-image-keyboard-response,127,827552,learnblock1,599.1999999284744,img/planet11_left.png,11,Community 2,NA,TRUE,f,f,NA,NA,NA,1,6,"10,4,7,2,13,14,12,15,9,11,8,1,6,5,3"
14821,commdev-image-keyboard-response,128,828813,learnblock1,564.6000000238419,img/planet14_left.png,14,Community 2,NA,TRUE,f,f,NA,NA,NA,1,6,"10,4,7,2,13,14,12,15,9,11,8,1,6,5,3"
14821,commdev-image-keyboard-response,129,830074,learnblock1,565.6999999284744,img/planet9_left.png,9,Community 2,NA,TRUE,f,f,NA,NA,NA,1,6,"10,4,7,2,13,14,12,15,9,11,8,1,6,5,3"
14821,commdev-image-keyboard-response,130,831330,learnblock1,410.1999999284744,img/planet11_left.png,11,Community 2,NA,TRUE,f,f,NA,NA,NA,1,6,"10,4,7,2,13,14,12,15,9,11,8,1,6,5,3"
14821,commdev-image-keyboard-response,131,832584,learnblock1,369.2000000476837,img/planet12_left.png,12,Community 2,NA,TRUE,f,f,NA,NA,NA,1,6,"10,4,7,2,13,14,12,15,9,11,8,1,6,5,3"
14821,commdev-image-keyboard-response,132,833847,learnblock1,466.59999990463257,img/planet11_right.png,11,Community 2,NA,TRUE,j,j,NA,NA,NA,1,6,"10,4,7,2,13,14,12,15,9,11,8,1,6,5,3"
14821,commdev-image-keyboard-response,133,835110,learnblock1,730,img/planet15_left.png,15,Community 2,NA,TRUE,f,f,NA,NA,NA,1,6,"10,4,7,2,13,14,12,15,9,11,8,1,6,5,3"
14821,commdev-image-keyboard-response,134,836369,learnblock1,632.6999999284744,img/planet9_right.png,9,Community 2,NA,TRUE,j,j,NA,NA,NA,1,6,"10,4,7,2,13,14,12,15,9,11,8,1,6,5,3"
14821,commdev-image-keyboard-response,135,837623,learnblock1,980.3999999761581,img/planet14_right.png,14,Community 2,NA,TRUE,j,j,NA,NA,NA,1,6,"10,4,7,2,13,14,12,15,9,11,8,1,6,5,3"
14821,commdev-image-keyboard-response,136,838881,learnblock1,749.7999999523163,img/planet2_left.png,2,Community 1,NA,TRUE,f,f,NA,NA,NA,1,6,"10,4,7,2,13,14,12,15,9,11,8,1,6,5,3"
14821,commdev-image-keyboard-response,137,840137,learnblock1,548.2000000476837,img/planet4_right.png,4,Community 1,NA,TRUE,j,j,NA,NA,NA,1,6,"10,4,7,2,13,14,12,15,9,11,8,1,6,5,3"
14821,commdev-image-keyboard-response,138,841392,learnblock1,558.5,img/planet2_left.png,2,Community 1,NA,TRUE,f,f,NA,NA,NA,1,6,"10,4,7,2,13,14,12,15,9,11,8,1,6,5,3"
14821,commdev-image-keyboard-response,139,842651,learnblock1,593.0999999046326,img/planet14_right.png,14,Community 2,NA,FALSE,f,j,NA,NA,NA,1,6,"10,4,7,2,13,14,12,15,9,11,8,1,6,5,3"
14821,commdev-image-keyboard-response,140,843912,learnblock1,956.1000000238419,img/planet2_right.png,2,Community 1,NA,FALSE,f,j,NA,NA,NA,1,6,"10,4,7,2,13,14,12,15,9,11,8,1,6,5,3"
14821,commdev-image-keyboard-response,141,845166,learnblock1,893.7999999523163,img/planet4_left.png,4,Community 1,NA,FALSE,j,f,NA,NA,NA,1,6,"10,4,7,2,13,14,12,15,9,11,8,1,6,5,3"
14821,commdev-image-keyboard-response,142,846420,learnblock1,738.3999999761581,img/planet7_right.png,7,Community 1,NA,TRUE,j,j,NA,NA,NA,1,6,"10,4,7,2,13,14,12,15,9,11,8,1,6,5,3"
14821,commdev-image-keyboard-response,143,847683,learnblock1,640.3000000715256,img/planet4_left.png,4,Community 1,NA,TRUE,f,f,NA,NA,NA,1,6,"10,4,7,2,13,14,12,15,9,11,8,1,6,5,3"
14821,commdev-image-keyboard-response,144,848940,learnblock1,629.8999999761581,img/planet2_right.png,2,Community 1,NA,TRUE,j,j,NA,NA,NA,1,6,"10,4,7,2,13,14,12,15,9,11,8,1,6,5,3"
14821,commdev-image-keyboard-response,145,850194,learnblock1,584.1000000238419,img/planet10_left.png,10,Community 1,NA,TRUE,f,f,NA,NA,NA,1,6,"10,4,7,2,13,14,12,15,9,11,8,1,6,5,3"
14821,commdev-image-keyboard-response,146,851452,learnblock1,546.6000000238419,img/planet13_right.png,13,Community 1,NA,FALSE,f,j,NA,NA,NA,1,6,"10,4,7,2,13,14,12,15,9,11,8,1,6,5,3"
14821,commdev-image-keyboard-response,147,852706,learnblock1,809.8999999761581,img/planet7_right.png,7,Community 1,NA,TRUE,j,j,NA,NA,NA,1,6,"10,4,7,2,13,14,12,15,9,11,8,1,6,5,3"
14821,commdev-image-keyboard-response,148,853965,learnblock1,575.6000000238419,img/planet13_left.png,13,Community 1,NA,TRUE,f,f,NA,NA,NA,1,6,"10,4,7,2,13,14,12,15,9,11,8,1,6,5,3"
14821,commdev-image-keyboard-response,149,855218,learnblock1,1097.2000000476837,img/planet8_left.png,8,Community 3,NA,TRUE,f,f,NA,NA,NA,1,6,"10,4,7,2,13,14,12,15,9,11,8,1,6,5,3"
14821,commdev-image-keyboard-response,150,856484,learnblock1,647,img/planet13_right.png,13,Community 1,NA,TRUE,j,j,NA,NA,NA,1,6,"10,4,7,2,13,14,12,15,9,11,8,1,6,5,3"
14821,commdev-image-keyboard-response,151,857741,learnblock1,595.6000000238419,img/planet4_left.png,4,Community 1,NA,TRUE,f,f,NA,NA,NA,1,6,"10,4,7,2,13,14,12,15,9,11,8,1,6,5,3"
14821,commdev-image-keyboard-response,152,859007,learnblock1,474.39999997615814,img/planet10_left.png,10,Community 1,NA,TRUE,f,f,NA,NA,NA,1,6,"10,4,7,2,13,14,12,15,9,11,8,1,6,5,3"
14821,commdev-image-keyboard-response,153,860271,learnblock1,461.7000000476837,img/planet4_left.png,4,Community 1,NA,TRUE,f,f,NA,NA,NA,1,6,"10,4,7,2,13,14,12,15,9,11,8,1,6,5,3"
14821,commdev-image-keyboard-response,154,861530,learnblock1,543.2999999523163,img/planet13_right.png,13,Community 1,NA,FALSE,f,j,NA,NA,NA,1,6,"10,4,7,2,13,14,12,15,9,11,8,1,6,5,3"
14821,commdev-image-keyboard-response,155,862781,learnblock1,729.1000000238419,img/planet4_left.png,4,Community 1,NA,TRUE,f,f,NA,NA,NA,1,6,"10,4,7,2,13,14,12,15,9,11,8,1,6,5,3"
14821,commdev-image-keyboard-response,156,864039,learnblock1,761.8000000715256,img/planet13_left.png,13,Community 1,NA,TRUE,f,f,NA,NA,NA,1,6,"10,4,7,2,13,14,12,15,9,11,8,1,6,5,3"
14821,commdev-image-keyboard-response,157,865296,learnblock1,497.7999999523163,img/planet10_left.png,10,Community 1,NA,TRUE,f,f,NA,NA,NA,1,6,"10,4,7,2,13,14,12,15,9,11,8,1,6,5,3"
14821,commdev-image-keyboard-response,158,866554,learnblock1,362.89999997615814,img/planet4_right.png,4,Community 1,NA,TRUE,j,j,NA,NA,NA,1,6,"10,4,7,2,13,14,12,15,9,11,8,1,6,5,3"
14821,commdev-image-keyboard-response,159,867809,learnblock1,667.6000000238419,img/planet2_right.png,2,Community 1,NA,TRUE,j,j,NA,NA,NA,1,6,"10,4,7,2,13,14,12,15,9,11,8,1,6,5,3"
14821,commdev-image-keyboard-response,160,869066,learnblock1,545.1000000238419,img/planet7_left.png,7,Community 1,NA,TRUE,f,f,NA,NA,NA,1,6,"10,4,7,2,13,14,12,15,9,11,8,1,6,5,3"
14821,commdev-image-keyboard-response,161,870324,learnblock1,427.7000000476837,img/planet10_right.png,10,Community 1,NA,TRUE,j,j,NA,NA,NA,1,6,"10,4,7,2,13,14,12,15,9,11,8,1,6,5,3"
14821,commdev-image-keyboard-response,162,871576,learnblock1,709.2000000476837,img/planet2_right.png,2,Community 1,NA,TRUE,j,j,NA,NA,NA,1,6,"10,4,7,2,13,14,12,15,9,11,8,1,6,5,3"
14821,commdev-image-keyboard-response,163,872835,learnblock1,579.3000000715256,img/planet4_left.png,4,Community 1,NA,TRUE,f,f,NA,NA,NA,1,6,"10,4,7,2,13,14,12,15,9,11,8,1,6,5,3"
14821,commdev-image-keyboard-response,164,874089,learnblock1,456.2999999523163,img/planet7_right.png,7,Community 1,NA,TRUE,j,j,NA,NA,NA,1,6,"10,4,7,2,13,14,12,15,9,11,8,1,6,5,3"
14821,commdev-image-keyboard-response,165,875350,learnblock1,559.8000000715256,img/planet10_right.png,10,Community 1,NA,FALSE,f,j,NA,NA,NA,1,6,"10,4,7,2,13,14,12,15,9,11,8,1,6,5,3"
14821,commdev-image-keyboard-response,166,876636,learnblock1,600.5,img/planet13_left.png,13,Community 1,NA,TRUE,f,f,NA,NA,NA,1,6,"10,4,7,2,13,14,12,15,9,11,8,1,6,5,3"
14821,commdev-image-keyboard-response,167,877888,learnblock1,625.0999999046326,img/planet7_left.png,7,Community 1,NA,TRUE,f,f,NA,NA,NA,1,6,"10,4,7,2,13,14,12,15,9,11,8,1,6,5,3"
14821,commdev-image-keyboard-response,168,879145,learnblock1,575.3999999761581,img/planet13_right.png,13,Community 1,NA,TRUE,j,j,NA,NA,NA,1,6,"10,4,7,2,13,14,12,15,9,11,8,1,6,5,3"
14821,commdev-image-keyboard-response,169,880400,learnblock1,529.3000000715256,img/planet7_left.png,7,Community 1,NA,TRUE,f,f,NA,NA,NA,1,6,"10,4,7,2,13,14,12,15,9,11,8,1,6,5,3"
14821,commdev-image-keyboard-response,170,881661,learnblock1,420,img/planet4_right.png,4,Community 1,NA,TRUE,j,j,NA,NA,NA,1,6,"10,4,7,2,13,14,12,15,9,11,8,1,6,5,3"
14821,commdev-image-keyboard-response,171,882916,learnblock1,453.10000002384186,img/planet2_left.png,2,Community 1,NA,TRUE,f,f,NA,NA,NA,1,6,"10,4,7,2,13,14,12,15,9,11,8,1,6,5,3"
14821,commdev-image-keyboard-response,172,884179,learnblock1,582.8999999761581,img/planet10_left.png,10,Community 1,NA,TRUE,f,f,NA,NA,NA,1,6,"10,4,7,2,13,14,12,15,9,11,8,1,6,5,3"
14821,commdev-image-keyboard-response,173,885438,learnblock1,542.5,img/planet2_left.png,2,Community 1,NA,FALSE,j,f,NA,NA,NA,1,6,"10,4,7,2,13,14,12,15,9,11,8,1,6,5,3"
14821,commdev-image-keyboard-response,174,886693,learnblock1,490.2999999523163,img/planet10_right.png,10,Community 1,NA,TRUE,j,j,NA,NA,NA,1,6,"10,4,7,2,13,14,12,15,9,11,8,1,6,5,3"
14821,commdev-image-keyboard-response,175,887947,learnblock1,510.5,img/planet4_left.png,4,Community 1,NA,TRUE,f,f,NA,NA,NA,1,6,"10,4,7,2,13,14,12,15,9,11,8,1,6,5,3"
14821,commdev-image-keyboard-response,176,889205,learnblock1,552.3999999761581,img/planet7_left.png,7,Community 1,NA,TRUE,f,f,NA,NA,NA,1,6,"10,4,7,2,13,14,12,15,9,11,8,1,6,5,3"
14821,commdev-image-keyboard-response,177,890460,learnblock1,565.8000000715256,img/planet13_right.png,13,Community 1,NA,TRUE,j,j,NA,NA,NA,1,6,"10,4,7,2,13,14,12,15,9,11,8,1,6,5,3"
14821,commdev-image-keyboard-response,178,891711,learnblock1,789.7999999523163,img/planet8_right.png,8,Community 3,NA,TRUE,j,j,NA,NA,NA,1,6,"10,4,7,2,13,14,12,15,9,11,8,1,6,5,3"
14821,commdev-image-keyboard-response,179,892972,learnblock1,682.1000000238419,img/planet3_left.png,3,Community 3,NA,TRUE,f,f,NA,NA,NA,1,6,"10,4,7,2,13,14,12,15,9,11,8,1,6,5,3"
14821,commdev-image-keyboard-response,180,894225,learnblock1,497.60000002384186,img/planet1_left.png,1,Community 3,NA,TRUE,f,f,NA,NA,NA,1,6,"10,4,7,2,13,14,12,15,9,11,8,1,6,5,3"
14821,commdev-image-keyboard-response,181,895479,learnblock1,550.8999999761581,img/planet6_right.png,6,Community 3,NA,TRUE,j,j,NA,NA,NA,1,6,"10,4,7,2,13,14,12,15,9,11,8,1,6,5,3"
14821,commdev-image-keyboard-response,182,896736,learnblock1,626.7999999523163,img/planet1_left.png,1,Community 3,NA,TRUE,f,f,NA,NA,NA,1,6,"10,4,7,2,13,14,12,15,9,11,8,1,6,5,3"
14821,commdev-image-keyboard-response,183,897990,learnblock1,581.1999999284744,img/planet5_right.png,5,Community 3,NA,TRUE,j,j,NA,NA,NA,1,6,"10,4,7,2,13,14,12,15,9,11,8,1,6,5,3"
14821,commdev-image-keyboard-response,184,899247,learnblock1,660.5,img/planet8_left.png,8,Community 3,NA,TRUE,f,f,NA,NA,NA,1,6,"10,4,7,2,13,14,12,15,9,11,8,1,6,5,3"
14821,commdev-image-keyboard-response,185,900505,learnblock1,732.2999999523163,img/planet3_left.png,3,Community 3,NA,TRUE,f,f,NA,NA,NA,1,6,"10,4,7,2,13,14,12,15,9,11,8,1,6,5,3"
14821,commdev-image-keyboard-response,186,901761,learnblock1,615.1000000238419,img/planet5_right.png,5,Community 3,NA,TRUE,j,j,NA,NA,NA,1,6,"10,4,7,2,13,14,12,15,9,11,8,1,6,5,3"
14821,commdev-image-keyboard-response,187,903014,learnblock1,584.6000000238419,img/planet6_left.png,6,Community 3,NA,TRUE,f,f,NA,NA,NA,1,6,"10,4,7,2,13,14,12,15,9,11,8,1,6,5,3"
14821,commdev-image-keyboard-response,188,904266,learnblock1,560.1000000238419,img/planet8_right.png,8,Community 3,NA,TRUE,j,j,NA,NA,NA,1,6,"10,4,7,2,13,14,12,15,9,11,8,1,6,5,3"
14821,commdev-image-keyboard-response,189,905523,learnblock1,526.2000000476837,img/planet6_right.png,6,Community 3,NA,FALSE,f,j,NA,NA,NA,1,6,"10,4,7,2,13,14,12,15,9,11,8,1,6,5,3"
14821,commdev-image-keyboard-response,190,906781,learnblock1,594.1000000238419,img/planet5_left.png,5,Community 3,NA,TRUE,f,f,NA,NA,NA,1,6,"10,4,7,2,13,14,12,15,9,11,8,1,6,5,3"
14821,commdev-image-keyboard-response,191,908045,learnblock1,602.1000000238419,img/planet6_right.png,6,Community 3,NA,TRUE,j,j,NA,NA,NA,1,6,"10,4,7,2,13,14,12,15,9,11,8,1,6,5,3"
14821,commdev-image-keyboard-response,192,909302,learnblock1,718,img/planet5_right.png,5,Community 3,NA,TRUE,j,j,NA,NA,NA,1,6,"10,4,7,2,13,14,12,15,9,11,8,1,6,5,3"
14821,commdev-image-keyboard-response,193,910559,learnblock1,636.3000000715256,img/planet6_right.png,6,Community 3,NA,TRUE,j,j,NA,NA,NA,1,6,"10,4,7,2,13,14,12,15,9,11,8,1,6,5,3"
14821,commdev-image-keyboard-response,194,911812,learnblock1,591,img/planet8_left.png,8,Community 3,NA,TRUE,f,f,NA,NA,NA,1,6,"10,4,7,2,13,14,12,15,9,11,8,1,6,5,3"
14821,commdev-image-keyboard-response,195,913070,learnblock1,640.7999999523163,img/planet13_right.png,13,Community 1,NA,TRUE,j,j,NA,NA,NA,1,6,"10,4,7,2,13,14,12,15,9,11,8,1,6,5,3"
14821,commdev-image-keyboard-response,196,914328,learnblock1,805.2999999523163,img/planet10_right.png,10,Community 1,NA,TRUE,j,j,NA,NA,NA,1,6,"10,4,7,2,13,14,12,15,9,11,8,1,6,5,3"
14821,commdev-image-keyboard-response,197,915586,learnblock1,571.7000000476837,img/planet13_left.png,13,Community 1,NA,TRUE,f,f,NA,NA,NA,1,6,"10,4,7,2,13,14,12,15,9,11,8,1,6,5,3"
14821,commdev-image-keyboard-response,198,916843,learnblock1,483.7999999523163,img/planet4_right.png,4,Community 1,NA,TRUE,j,j,NA,NA,NA,1,6,"10,4,7,2,13,14,12,15,9,11,8,1,6,5,3"
14821,commdev-image-keyboard-response,199,918096,learnblock1,751.4000000953674,img/planet7_right.png,7,Community 1,NA,TRUE,j,j,NA,NA,NA,1,6,"10,4,7,2,13,14,12,15,9,11,8,1,6,5,3"
14821,commdev-image-keyboard-response,200,919355,learnblock1,838.5999999046326,img/planet2_right.png,2,Community 1,NA,TRUE,j,j,NA,NA,NA,1,6,"10,4,7,2,13,14,12,15,9,11,8,1,6,5,3"
14821,commdev-image-keyboard-response,201,920610,learnblock1,622.2000000476837,img/planet10_right.png,10,Community 1,NA,TRUE,j,j,NA,NA,NA,1,6,"10,4,7,2,13,14,12,15,9,11,8,1,6,5,3"
14821,commdev-image-keyboard-response,202,921865,learnblock1,477.7999999523163,img/planet2_left.png,2,Community 1,NA,TRUE,f,f,NA,NA,NA,1,6,"10,4,7,2,13,14,12,15,9,11,8,1,6,5,3"
14821,commdev-image-keyboard-response,203,923123,learnblock1,548.5999999046326,img/planet7_right.png,7,Community 1,NA,TRUE,j,j,NA,NA,NA,1,6,"10,4,7,2,13,14,12,15,9,11,8,1,6,5,3"
14821,commdev-image-keyboard-response,204,924378,learnblock1,510.5,img/planet2_left.png,2,Community 1,NA,TRUE,f,f,NA,NA,NA,1,6,"10,4,7,2,13,14,12,15,9,11,8,1,6,5,3"
14821,commdev-image-keyboard-response,205,925656,learnblock1,879.6999999284744,img/planet10_left.png,10,Community 1,NA,TRUE,f,f,NA,NA,NA,1,6,"10,4,7,2,13,14,12,15,9,11,8,1,6,5,3"
14821,commdev-image-keyboard-response,206,926924,learnblock1,694.7999999523163,img/planet7_left.png,7,Community 1,NA,TRUE,f,f,NA,NA,NA,1,6,"10,4,7,2,13,14,12,15,9,11,8,1,6,5,3"
14821,commdev-image-keyboard-response,207,928179,learnblock1,801.3999999761581,img/planet4_left.png,4,Community 1,NA,TRUE,f,f,NA,NA,NA,1,6,"10,4,7,2,13,14,12,15,9,11,8,1,6,5,3"
14821,commdev-image-keyboard-response,208,929437,learnblock1,583.7999999523163,img/planet7_left.png,7,Community 1,NA,TRUE,f,f,NA,NA,NA,1,6,"10,4,7,2,13,14,12,15,9,11,8,1,6,5,3"
14821,commdev-image-keyboard-response,209,930693,learnblock1,463.5,img/planet10_left.png,10,Community 1,NA,TRUE,f,f,NA,NA,NA,1,6,"10,4,7,2,13,14,12,15,9,11,8,1,6,5,3"
14821,commdev-image-keyboard-response,210,931947,learnblock1,411.2999999523163,img/planet13_right.png,13,Community 1,NA,TRUE,j,j,NA,NA,NA,1,6,"10,4,7,2,13,14,12,15,9,11,8,1,6,5,3"
14821,commdev-image-keyboard-response,211,933204,learnblock1,1079.6999999284744,img/planet10_left.png,10,Community 1,NA,FALSE,j,f,NA,NA,NA,1,6,"10,4,7,2,13,14,12,15,9,11,8,1,6,5,3"
14821,commdev-image-keyboard-response,212,934458,learnblock1,1212.5,img/planet4_left.png,4,Community 1,NA,TRUE,f,f,NA,NA,NA,1,6,"10,4,7,2,13,14,12,15,9,11,8,1,6,5,3"
14821,commdev-image-keyboard-response,213,935713,learnblock1,620.3999999761581,img/planet7_right.png,7,Community 1,NA,TRUE,j,j,NA,NA,NA,1,6,"10,4,7,2,13,14,12,15,9,11,8,1,6,5,3"
14821,commdev-image-keyboard-response,214,936972,learnblock1,782.2000000476837,img/planet4_left.png,4,Community 1,NA,TRUE,f,f,NA,NA,NA,1,6,"10,4,7,2,13,14,12,15,9,11,8,1,6,5,3"
14821,commdev-image-keyboard-response,215,938226,learnblock1,495.2000000476837,img/planet2_left.png,2,Community 1,NA,TRUE,f,f,NA,NA,NA,1,6,"10,4,7,2,13,14,12,15,9,11,8,1,6,5,3"
14821,commdev-image-keyboard-response,216,939483,learnblock1,573.9000000953674,img/planet7_left.png,7,Community 1,NA,TRUE,f,f,NA,NA,NA,1,6,"10,4,7,2,13,14,12,15,9,11,8,1,6,5,3"
14821,commdev-image-keyboard-response,217,940739,learnblock1,807.3000000715256,img/planet2_left.png,2,Community 1,NA,TRUE,f,f,NA,NA,NA,1,6,"10,4,7,2,13,14,12,15,9,11,8,1,6,5,3"
14821,commdev-image-keyboard-response,218,941997,learnblock1,562.5,img/planet4_right.png,4,Community 1,NA,TRUE,j,j,NA,NA,NA,1,6,"10,4,7,2,13,14,12,15,9,11,8,1,6,5,3"
14821,commdev-image-keyboard-response,219,943252,learnblock1,615.1000000238419,img/planet7_right.png,7,Community 1,NA,TRUE,j,j,NA,NA,NA,1,6,"10,4,7,2,13,14,12,15,9,11,8,1,6,5,3"
14821,commdev-image-keyboard-response,220,944506,learnblock1,561.1999999284744,img/planet10_left.png,10,Community 1,NA,TRUE,f,f,NA,NA,NA,1,6,"10,4,7,2,13,14,12,15,9,11,8,1,6,5,3"
14821,commdev-image-keyboard-response,221,945757,learnblock1,527.3999999761581,img/planet13_left.png,13,Community 1,NA,TRUE,f,f,NA,NA,NA,1,6,"10,4,7,2,13,14,12,15,9,11,8,1,6,5,3"
14821,commdev-image-keyboard-response,222,947015,learnblock1,726.5,img/planet4_right.png,4,Community 1,NA,TRUE,j,j,NA,NA,NA,1,6,"10,4,7,2,13,14,12,15,9,11,8,1,6,5,3"
14821,commdev-image-keyboard-response,223,948281,learnblock1,571.2000000476837,img/planet10_right.png,10,Community 1,NA,TRUE,j,j,NA,NA,NA,1,6,"10,4,7,2,13,14,12,15,9,11,8,1,6,5,3"
14821,commdev-image-keyboard-response,224,949534,learnblock1,634.3999999761581,img/planet4_right.png,4,Community 1,NA,TRUE,j,j,NA,NA,NA,1,6,"10,4,7,2,13,14,12,15,9,11,8,1,6,5,3"
14821,commdev-image-keyboard-response,225,950790,learnblock1,610.6999999284744,img/planet13_left.png,13,Community 1,NA,TRUE,f,f,NA,NA,NA,1,6,"10,4,7,2,13,14,12,15,9,11,8,1,6,5,3"
14821,commdev-image-keyboard-response,226,952046,learnblock1,475.10000002384186,img/planet10_right.png,10,Community 1,NA,TRUE,j,j,NA,NA,NA,1,6,"10,4,7,2,13,14,12,15,9,11,8,1,6,5,3"
14821,commdev-image-keyboard-response,227,953304,learnblock1,519,img/planet7_left.png,7,Community 1,NA,TRUE,f,f,NA,NA,NA,1,6,"10,4,7,2,13,14,12,15,9,11,8,1,6,5,3"
14821,commdev-image-keyboard-response,228,954563,learnblock1,491.39999997615814,img/planet4_right.png,4,Community 1,NA,TRUE,j,j,NA,NA,NA,1,6,"10,4,7,2,13,14,12,15,9,11,8,1,6,5,3"
14821,commdev-image-keyboard-response,229,955830,learnblock1,411.7000000476837,img/planet7_left.png,7,Community 1,NA,TRUE,f,f,NA,NA,NA,1,6,"10,4,7,2,13,14,12,15,9,11,8,1,6,5,3"
14821,commdev-image-keyboard-response,230,957095,learnblock1,535.8999999761581,img/planet2_right.png,2,Community 1,NA,TRUE,j,j,NA,NA,NA,1,6,"10,4,7,2,13,14,12,15,9,11,8,1,6,5,3"
14821,commdev-image-keyboard-response,231,958354,learnblock1,553.2999999523163,img/planet10_right.png,10,Community 1,NA,TRUE,j,j,NA,NA,NA,1,6,"10,4,7,2,13,14,12,15,9,11,8,1,6,5,3"
14821,commdev-image-keyboard-response,232,959612,learnblock1,533.3000000715256,img/planet2_left.png,2,Community 1,NA,TRUE,f,f,NA,NA,NA,1,6,"10,4,7,2,13,14,12,15,9,11,8,1,6,5,3"
14821,commdev-image-keyboard-response,233,960876,learnblock1,440.6999999284744,img/planet10_right.png,10,Community 1,NA,FALSE,f,j,NA,NA,NA,1,6,"10,4,7,2,13,14,12,15,9,11,8,1,6,5,3"
14821,commdev-image-keyboard-response,234,962143,learnblock1,533.6000000238419,img/planet4_right.png,4,Community 1,NA,TRUE,j,j,NA,NA,NA,1,6,"10,4,7,2,13,14,12,15,9,11,8,1,6,5,3"
14821,commdev-image-keyboard-response,235,963397,learnblock1,508.3000000715256,img/planet13_right.png,13,Community 1,NA,TRUE,j,j,NA,NA,NA,1,6,"10,4,7,2,13,14,12,15,9,11,8,1,6,5,3"
14821,commdev-image-keyboard-response,236,964666,learnblock1,588.4000000953674,img/planet8_right.png,8,Community 3,NA,TRUE,j,j,NA,NA,NA,1,6,"10,4,7,2,13,14,12,15,9,11,8,1,6,5,3"
14821,commdev-image-keyboard-response,237,965924,learnblock1,783.2999999523163,img/planet3_right.png,3,Community 3,NA,TRUE,j,j,NA,NA,NA,1,6,"10,4,7,2,13,14,12,15,9,11,8,1,6,5,3"
14821,commdev-image-keyboard-response,238,967182,learnblock1,604.7999999523163,img/planet1_left.png,1,Community 3,NA,TRUE,f,f,NA,NA,NA,1,6,"10,4,7,2,13,14,12,15,9,11,8,1,6,5,3"
14821,commdev-image-keyboard-response,239,968438,learnblock1,727.5,img/planet3_left.png,3,Community 3,NA,TRUE,f,f,NA,NA,NA,1,6,"10,4,7,2,13,14,12,15,9,11,8,1,6,5,3"
14821,commdev-image-keyboard-response,240,969689,learnblock1,419.6999999284744,img/planet6_right.png,6,Community 3,NA,FALSE,f,j,NA,NA,NA,1,6,"10,4,7,2,13,14,12,15,9,11,8,1,6,5,3"
14821,commdev-image-keyboard-response,241,970945,learnblock1,955.5,img/planet1_right.png,1,Community 3,NA,TRUE,j,j,NA,NA,NA,1,6,"10,4,7,2,13,14,12,15,9,11,8,1,6,5,3"
14821,commdev-image-keyboard-response,242,972213,learnblock1,667,img/planet3_left.png,3,Community 3,NA,TRUE,f,f,NA,NA,NA,1,6,"10,4,7,2,13,14,12,15,9,11,8,1,6,5,3"
14821,commdev-image-keyboard-response,243,973472,learnblock1,744.8000000715256,img/planet8_left.png,8,Community 3,NA,TRUE,f,f,NA,NA,NA,1,6,"10,4,7,2,13,14,12,15,9,11,8,1,6,5,3"
14821,commdev-image-keyboard-response,244,974728,learnblock1,526,img/planet3_right.png,3,Community 3,NA,TRUE,j,j,NA,NA,NA,1,6,"10,4,7,2,13,14,12,15,9,11,8,1,6,5,3"
14821,commdev-image-keyboard-response,245,975985,learnblock1,550.2000000476837,img/planet1_left.png,1,Community 3,NA,TRUE,f,f,NA,NA,NA,1,6,"10,4,7,2,13,14,12,15,9,11,8,1,6,5,3"
14821,commdev-image-keyboard-response,246,977244,learnblock1,638.5,img/planet3_left.png,3,Community 3,NA,TRUE,f,f,NA,NA,NA,1,6,"10,4,7,2,13,14,12,15,9,11,8,1,6,5,3"
14821,commdev-image-keyboard-response,247,978504,learnblock1,451.89999997615814,img/planet1_left.png,1,Community 3,NA,TRUE,f,f,NA,NA,NA,1,6,"10,4,7,2,13,14,12,15,9,11,8,1,6,5,3"
14821,commdev-image-keyboard-response,248,979764,learnblock1,479.7000000476837,img/planet3_right.png,3,Community 3,NA,FALSE,f,j,NA,NA,NA,1,6,"10,4,7,2,13,14,12,15,9,11,8,1,6,5,3"
14821,commdev-image-keyboard-response,249,981019,learnblock1,551.1000000238419,img/planet8_left.png,8,Community 3,NA,TRUE,f,f,NA,NA,NA,1,6,"10,4,7,2,13,14,12,15,9,11,8,1,6,5,3"
14821,commdev-image-keyboard-response,250,982272,learnblock1,508.7999999523163,img/planet3_right.png,3,Community 3,NA,TRUE,j,j,NA,NA,NA,1,6,"10,4,7,2,13,14,12,15,9,11,8,1,6,5,3"
14821,commdev-image-keyboard-response,251,983529,learnblock1,851.2000000476837,img/planet6_right.png,6,Community 3,NA,TRUE,j,j,NA,NA,NA,1,6,"10,4,7,2,13,14,12,15,9,11,8,1,6,5,3"
14821,commdev-image-keyboard-response,252,984786,learnblock1,610.3000000715256,img/planet8_left.png,8,Community 3,NA,TRUE,f,f,NA,NA,NA,1,6,"10,4,7,2,13,14,12,15,9,11,8,1,6,5,3"
14821,commdev-image-keyboard-response,253,986045,learnblock1,567.3999999761581,img/planet13_right.png,13,Community 1,NA,TRUE,j,j,NA,NA,NA,1,6,"10,4,7,2,13,14,12,15,9,11,8,1,6,5,3"
14821,commdev-image-keyboard-response,254,987302,learnblock1,569.1999999284744,img/planet7_left.png,7,Community 1,NA,TRUE,f,f,NA,NA,NA,1,6,"10,4,7,2,13,14,12,15,9,11,8,1,6,5,3"
14821,commdev-image-keyboard-response,255,988567,learnblock1,458,img/planet2_right.png,2,Community 1,NA,TRUE,j,j,NA,NA,NA,1,6,"10,4,7,2,13,14,12,15,9,11,8,1,6,5,3"
14821,commdev-image-keyboard-response,256,989829,learnblock1,602.4000000953674,img/planet10_right.png,10,Community 1,NA,TRUE,j,j,NA,NA,NA,1,6,"10,4,7,2,13,14,12,15,9,11,8,1,6,5,3"
14821,commdev-image-keyboard-response,257,991087,learnblock1,494.89999997615814,img/planet2_right.png,2,Community 1,NA,TRUE,j,j,NA,NA,NA,1,6,"10,4,7,2,13,14,12,15,9,11,8,1,6,5,3"
14821,commdev-image-keyboard-response,258,992345,learnblock1,882,img/planet4_left.png,4,Community 1,NA,TRUE,f,f,NA,NA,NA,1,6,"10,4,7,2,13,14,12,15,9,11,8,1,6,5,3"
14821,commdev-image-keyboard-response,259,993599,learnblock1,702.5999999046326,img/planet13_right.png,13,Community 1,NA,TRUE,j,j,NA,NA,NA,1,6,"10,4,7,2,13,14,12,15,9,11,8,1,6,5,3"
14821,commdev-image-keyboard-response,260,994856,learnblock1,713.8999999761581,img/planet10_right.png,10,Community 1,NA,TRUE,j,j,NA,NA,NA,1,6,"10,4,7,2,13,14,12,15,9,11,8,1,6,5,3"
14821,commdev-image-keyboard-response,261,996110,learnblock1,672.8999999761581,img/planet4_left.png,4,Community 1,NA,TRUE,f,f,NA,NA,NA,1,6,"10,4,7,2,13,14,12,15,9,11,8,1,6,5,3"
14821,commdev-image-keyboard-response,262,997369,learnblock1,654,img/planet2_left.png,2,Community 1,NA,FALSE,j,f,NA,NA,NA,1,6,"10,4,7,2,13,14,12,15,9,11,8,1,6,5,3"
14821,commdev-image-keyboard-response,263,998630,learnblock1,749.3999999761581,img/planet10_left.png,10,Community 1,NA,TRUE,f,f,NA,NA,NA,1,6,"10,4,7,2,13,14,12,15,9,11,8,1,6,5,3"
14821,commdev-image-keyboard-response,264,999891,learnblock1,533.7000000476837,img/planet2_left.png,2,Community 1,NA,TRUE,f,f,NA,NA,NA,1,6,"10,4,7,2,13,14,12,15,9,11,8,1,6,5,3"
14821,commdev-image-keyboard-response,265,1001146,learnblock1,462.2000000476837,img/planet14_right.png,14,Community 2,NA,TRUE,j,j,NA,NA,NA,1,6,"10,4,7,2,13,14,12,15,9,11,8,1,6,5,3"
14821,commdev-image-keyboard-response,266,1002402,learnblock1,676.5,img/planet11_left.png,11,Community 2,NA,TRUE,f,f,NA,NA,NA,1,6,"10,4,7,2,13,14,12,15,9,11,8,1,6,5,3"
14821,commdev-image-keyboard-response,267,1003667,learnblock1,794.6000000238419,img/planet9_left.png,9,Community 2,NA,TRUE,f,f,NA,NA,NA,1,6,"10,4,7,2,13,14,12,15,9,11,8,1,6,5,3"
14821,commdev-image-keyboard-response,268,1004921,learnblock1,707,img/planet11_right.png,11,Community 2,NA,TRUE,j,j,NA,NA,NA,1,6,"10,4,7,2,13,14,12,15,9,11,8,1,6,5,3"
14821,commdev-image-keyboard-response,269,1006175,learnblock1,516.3999999761581,img/planet9_left.png,9,Community 2,NA,TRUE,f,f,NA,NA,NA,1,6,"10,4,7,2,13,14,12,15,9,11,8,1,6,5,3"
14821,commdev-image-keyboard-response,270,1007430,learnblock1,549.6000000238419,img/planet15_left.png,15,Community 2,NA,TRUE,f,f,NA,NA,NA,1,6,"10,4,7,2,13,14,12,15,9,11,8,1,6,5,3"
14821,commdev-image-keyboard-response,271,1008681,learnblock1,581.8999999761581,img/planet11_right.png,11,Community 2,NA,TRUE,j,j,NA,NA,NA,1,6,"10,4,7,2,13,14,12,15,9,11,8,1,6,5,3"
14821,commdev-image-keyboard-response,272,1009934,learnblock1,840.6000000238419,img/planet14_right.png,14,Community 2,NA,TRUE,j,j,NA,NA,NA,1,6,"10,4,7,2,13,14,12,15,9,11,8,1,6,5,3"
14821,commdev-image-keyboard-response,273,1011187,learnblock1,599.3999999761581,img/planet12_left.png,12,Community 2,NA,TRUE,f,f,NA,NA,NA,1,6,"10,4,7,2,13,14,12,15,9,11,8,1,6,5,3"
14821,commdev-image-keyboard-response,274,1012444,learnblock1,560.8000000715256,img/planet15_right.png,15,Community 2,NA,TRUE,j,j,NA,NA,NA,1,6,"10,4,7,2,13,14,12,15,9,11,8,1,6,5,3"
14821,commdev-image-keyboard-response,275,1013695,learnblock1,676.6000000238419,img/planet11_right.png,11,Community 2,NA,TRUE,j,j,NA,NA,NA,1,6,"10,4,7,2,13,14,12,15,9,11,8,1,6,5,3"
14821,commdev-image-keyboard-response,276,1014949,learnblock1,627.8999999761581,img/planet15_right.png,15,Community 2,NA,FALSE,f,j,NA,NA,NA,1,6,"10,4,7,2,13,14,12,15,9,11,8,1,6,5,3"
14821,commdev-image-keyboard-response,277,1016208,learnblock1,702.3000000715256,img/planet9_left.png,9,Community 2,NA,TRUE,f,f,NA,NA,NA,1,6,"10,4,7,2,13,14,12,15,9,11,8,1,6,5,3"
14821,commdev-image-keyboard-response,278,1017461,learnblock1,614.1999999284744,img/planet12_left.png,12,Community 2,NA,TRUE,f,f,NA,NA,NA,1,6,"10,4,7,2,13,14,12,15,9,11,8,1,6,5,3"
14821,commdev-image-keyboard-response,279,1018721,learnblock1,561.7000000476837,img/planet9_right.png,9,Community 2,NA,TRUE,j,j,NA,NA,NA,1,6,"10,4,7,2,13,14,12,15,9,11,8,1,6,5,3"
14821,commdev-image-keyboard-response,280,1019983,learnblock1,636.0999999046326,img/planet11_left.png,11,Community 2,NA,TRUE,f,f,NA,NA,NA,1,6,"10,4,7,2,13,14,12,15,9,11,8,1,6,5,3"
14821,commdev-image-keyboard-response,281,1021235,learnblock1,563.8000000715256,img/planet15_right.png,15,Community 2,NA,TRUE,j,j,NA,NA,NA,1,6,"10,4,7,2,13,14,12,15,9,11,8,1,6,5,3"
14821,commdev-image-keyboard-response,282,1022493,learnblock1,719.5,img/planet12_left.png,12,Community 2,NA,TRUE,f,f,NA,NA,NA,1,6,"10,4,7,2,13,14,12,15,9,11,8,1,6,5,3"
14821,commdev-image-keyboard-response,283,1023746,learnblock1,649.5,img/planet9_left.png,9,Community 2,NA,TRUE,f,f,NA,NA,NA,1,6,"10,4,7,2,13,14,12,15,9,11,8,1,6,5,3"
14821,commdev-image-keyboard-response,284,1025012,learnblock1,611,img/planet12_right.png,12,Community 2,NA,TRUE,j,j,NA,NA,NA,1,6,"10,4,7,2,13,14,12,15,9,11,8,1,6,5,3"
14821,commdev-image-keyboard-response,285,1026269,learnblock1,902.7000000476837,img/planet15_left.png,15,Community 2,NA,TRUE,f,f,NA,NA,NA,1,6,"10,4,7,2,13,14,12,15,9,11,8,1,6,5,3"
14821,commdev-image-keyboard-response,286,1027522,learnblock1,596.7999999523163,img/planet11_left.png,11,Community 2,NA,TRUE,f,f,NA,NA,NA,1,6,"10,4,7,2,13,14,12,15,9,11,8,1,6,5,3"
14821,commdev-image-keyboard-response,287,1028778,learnblock1,663.6000000238419,img/planet14_right.png,14,Community 2,NA,TRUE,j,j,NA,NA,NA,1,6,"10,4,7,2,13,14,12,15,9,11,8,1,6,5,3"
14821,commdev-image-keyboard-response,288,1030034,learnblock1,578.6999999284744,img/planet11_left.png,11,Community 2,NA,TRUE,f,f,NA,NA,NA,1,6,"10,4,7,2,13,14,12,15,9,11,8,1,6,5,3"
14821,commdev-image-keyboard-response,289,1031289,learnblock1,783.7000000476837,img/planet12_left.png,12,Community 2,NA,TRUE,f,f,NA,NA,NA,1,6,"10,4,7,2,13,14,12,15,9,11,8,1,6,5,3"
14821,commdev-image-keyboard-response,290,1032543,learnblock1,519.1000000238419,img/planet9_left.png,9,Community 2,NA,TRUE,f,f,NA,NA,NA,1,6,"10,4,7,2,13,14,12,15,9,11,8,1,6,5,3"
14821,commdev-image-keyboard-response,291,1033801,learnblock1,610.6000000238419,img/planet14_left.png,14,Community 2,NA,TRUE,f,f,NA,NA,NA,1,6,"10,4,7,2,13,14,12,15,9,11,8,1,6,5,3"
14821,commdev-image-keyboard-response,292,1035057,learnblock1,662.6000000238419,img/planet9_right.png,9,Community 2,NA,TRUE,j,j,NA,NA,NA,1,6,"10,4,7,2,13,14,12,15,9,11,8,1,6,5,3"
14821,commdev-image-keyboard-response,293,1036315,learnblock1,1134.8000000715256,img/planet14_left.png,14,Community 2,NA,TRUE,f,f,NA,NA,NA,1,6,"10,4,7,2,13,14,12,15,9,11,8,1,6,5,3"
14821,commdev-image-keyboard-response,294,1037568,learnblock1,830.0999999046326,img/planet12_right.png,12,Community 2,NA,TRUE,j,j,NA,NA,NA,1,6,"10,4,7,2,13,14,12,15,9,11,8,1,6,5,3"
14821,commdev-image-keyboard-response,295,1038828,learnblock1,702.2999999523163,img/planet11_left.png,11,Community 2,NA,TRUE,f,f,NA,NA,NA,1,6,"10,4,7,2,13,14,12,15,9,11,8,1,6,5,3"
14821,commdev-image-keyboard-response,296,1040088,learnblock1,647.6000000238419,img/planet15_right.png,15,Community 2,NA,TRUE,j,j,NA,NA,NA,1,6,"10,4,7,2,13,14,12,15,9,11,8,1,6,5,3"
14821,commdev-image-keyboard-response,297,1041341,learnblock1,721.2999999523163,img/planet1_right.png,1,Community 3,NA,TRUE,j,j,NA,NA,NA,1,6,"10,4,7,2,13,14,12,15,9,11,8,1,6,5,3"
14821,commdev-image-keyboard-response,298,1042594,learnblock1,735.7000000476837,img/planet15_right.png,15,Community 2,NA,TRUE,j,j,NA,NA,NA,1,6,"10,4,7,2,13,14,12,15,9,11,8,1,6,5,3"
14821,commdev-image-keyboard-response,299,1043845,learnblock1,767.9000000953674,img/planet1_right.png,1,Community 3,NA,TRUE,j,j,NA,NA,NA,1,6,"10,4,7,2,13,14,12,15,9,11,8,1,6,5,3"
14821,commdev-image-keyboard-response,300,1045102,learnblock1,832.3999999761581,img/planet6_right.png,6,Community 3,NA,TRUE,j,j,NA,NA,NA,1,6,"10,4,7,2,13,14,12,15,9,11,8,1,6,5,3"
14821,commdev-image-keyboard-response,301,1046358,learnblock1,681.7000000476837,img/planet8_right.png,8,Community 3,NA,TRUE,j,j,NA,NA,NA,1,6,"10,4,7,2,13,14,12,15,9,11,8,1,6,5,3"
14821,commdev-image-keyboard-response,302,1047613,learnblock1,714.7999999523163,img/planet6_right.png,6,Community 3,NA,TRUE,j,j,NA,NA,NA,1,6,"10,4,7,2,13,14,12,15,9,11,8,1,6,5,3"
14821,commdev-image-keyboard-response,303,1048871,learnblock1,716.7999999523163,img/planet1_right.png,1,Community 3,NA,TRUE,j,j,NA,NA,NA,1,6,"10,4,7,2,13,14,12,15,9,11,8,1,6,5,3"
14821,commdev-image-keyboard-response,304,1050127,learnblock1,488.6999999284744,img/planet6_left.png,6,Community 3,NA,TRUE,f,f,NA,NA,NA,1,6,"10,4,7,2,13,14,12,15,9,11,8,1,6,5,3"
14821,commdev-image-keyboard-response,305,1051385,learnblock1,666.5,img/planet8_right.png,8,Community 3,NA,TRUE,j,j,NA,NA,NA,1,6,"10,4,7,2,13,14,12,15,9,11,8,1,6,5,3"
14821,commdev-image-keyboard-response,306,1052641,learnblock1,630,img/planet6_right.png,6,Community 3,NA,TRUE,j,j,NA,NA,NA,1,6,"10,4,7,2,13,14,12,15,9,11,8,1,6,5,3"
14821,commdev-image-keyboard-response,307,1053892,learnblock1,756.2999999523163,img/planet3_left.png,3,Community 3,NA,TRUE,f,f,NA,NA,NA,1,6,"10,4,7,2,13,14,12,15,9,11,8,1,6,5,3"
14821,commdev-image-keyboard-response,308,1055152,learnblock1,null,img/planet1_left.png,1,Community 3,NA,FALSE,null,f,NA,NA,NA,1,6,"10,4,7,2,13,14,12,15,9,11,8,1,6,5,3"
14821,commdev-image-keyboard-response,309,1056407,learnblock1,34.10000002384186,img/planet6_right.png,6,Community 3,NA,FALSE,f,j,NA,NA,NA,1,6,"10,4,7,2,13,14,12,15,9,11,8,1,6,5,3"
14821,commdev-image-keyboard-response,310,1057665,learnblock1,771.2999999523163,img/planet8_left.png,8,Community 3,NA,TRUE,f,f,NA,NA,NA,1,6,"10,4,7,2,13,14,12,15,9,11,8,1,6,5,3"
14821,commdev-image-keyboard-response,311,1058922,learnblock1,678.2999999523163,img/planet6_right.png,6,Community 3,NA,TRUE,j,j,NA,NA,NA,1,6,"10,4,7,2,13,14,12,15,9,11,8,1,6,5,3"
14821,commdev-image-keyboard-response,312,1060182,learnblock1,1000.3000000715256,img/planet5_right.png,5,Community 3,NA,TRUE,j,j,NA,NA,NA,1,6,"10,4,7,2,13,14,12,15,9,11,8,1,6,5,3"
14821,commdev-image-keyboard-response,313,1061438,learnblock1,747.6999999284744,img/planet1_right.png,1,Community 3,NA,TRUE,j,j,NA,NA,NA,1,6,"10,4,7,2,13,14,12,15,9,11,8,1,6,5,3"
14821,commdev-image-keyboard-response,314,1062690,learnblock1,533.6999999284744,img/planet6_right.png,6,Community 3,NA,TRUE,j,j,NA,NA,NA,1,6,"10,4,7,2,13,14,12,15,9,11,8,1,6,5,3"
14821,commdev-image-keyboard-response,315,1063948,learnblock1,552.7999999523163,img/planet8_right.png,8,Community 3,NA,TRUE,j,j,NA,NA,NA,1,6,"10,4,7,2,13,14,12,15,9,11,8,1,6,5,3"
14821,commdev-image-keyboard-response,316,1065201,learnblock1,531.5999999046326,img/planet3_left.png,3,Community 3,NA,FALSE,j,f,NA,NA,NA,1,6,"10,4,7,2,13,14,12,15,9,11,8,1,6,5,3"
14821,commdev-image-keyboard-response,317,1066455,learnblock1,480.10000002384186,img/planet1_left.png,1,Community 3,NA,TRUE,f,f,NA,NA,NA,1,6,"10,4,7,2,13,14,12,15,9,11,8,1,6,5,3"
14821,commdev-image-keyboard-response,318,1067706,learnblock1,728.7999999523163,img/planet5_right.png,5,Community 3,NA,TRUE,j,j,NA,NA,NA,1,6,"10,4,7,2,13,14,12,15,9,11,8,1,6,5,3"
14821,commdev-image-keyboard-response,319,1068966,learnblock1,702.6000000238419,img/planet1_left.png,1,Community 3,NA,FALSE,j,f,NA,NA,NA,1,6,"10,4,7,2,13,14,12,15,9,11,8,1,6,5,3"
14821,commdev-image-keyboard-response,320,1070221,learnblock1,914.7999999523163,img/planet3_right.png,3,Community 3,NA,TRUE,j,j,NA,NA,NA,1,6,"10,4,7,2,13,14,12,15,9,11,8,1,6,5,3"
14821,commdev-image-keyboard-response,321,1071474,learnblock1,625.3999999761581,img/planet5_right.png,5,Community 3,NA,TRUE,j,j,NA,NA,NA,1,6,"10,4,7,2,13,14,12,15,9,11,8,1,6,5,3"
14821,commdev-image-keyboard-response,322,1072730,learnblock1,955.4000000953674,img/planet6_right.png,6,Community 3,NA,TRUE,j,j,NA,NA,NA,1,6,"10,4,7,2,13,14,12,15,9,11,8,1,6,5,3"
14821,commdev-image-keyboard-response,323,1074002,learnblock1,579.2000000476837,img/planet8_left.png,8,Community 3,NA,TRUE,f,f,NA,NA,NA,1,6,"10,4,7,2,13,14,12,15,9,11,8,1,6,5,3"
14821,commdev-image-keyboard-response,324,1075256,learnblock1,697.8999999761581,img/planet3_left.png,3,Community 3,NA,TRUE,f,f,NA,NA,NA,1,6,"10,4,7,2,13,14,12,15,9,11,8,1,6,5,3"
14821,commdev-image-keyboard-response,325,1076512,learnblock1,584.2999999523163,img/planet6_left.png,6,Community 3,NA,TRUE,f,f,NA,NA,NA,1,6,"10,4,7,2,13,14,12,15,9,11,8,1,6,5,3"
14821,commdev-image-keyboard-response,326,1077767,learnblock1,719.2000000476837,img/planet8_right.png,8,Community 3,NA,TRUE,j,j,NA,NA,NA,1,6,"10,4,7,2,13,14,12,15,9,11,8,1,6,5,3"
14821,commdev-image-keyboard-response,327,1079029,learnblock1,770.7000000476837,img/planet13_left.png,13,Community 1,NA,FALSE,j,f,NA,NA,NA,1,6,"10,4,7,2,13,14,12,15,9,11,8,1,6,5,3"
14821,commdev-image-keyboard-response,328,1080284,learnblock1,569.7999999523163,img/planet10_left.png,10,Community 1,NA,TRUE,f,f,NA,NA,NA,1,6,"10,4,7,2,13,14,12,15,9,11,8,1,6,5,3"
14821,commdev-image-keyboard-response,329,1081544,learnblock1,595,img/planet2_left.png,2,Community 1,NA,TRUE,f,f,NA,NA,NA,1,6,"10,4,7,2,13,14,12,15,9,11,8,1,6,5,3"
14821,commdev-image-keyboard-response,330,1082800,learnblock1,643.1000000238419,img/planet14_right.png,14,Community 2,NA,TRUE,j,j,NA,NA,NA,1,6,"10,4,7,2,13,14,12,15,9,11,8,1,6,5,3"
14821,commdev-image-keyboard-response,331,1084052,learnblock1,755,img/planet2_right.png,2,Community 1,NA,FALSE,f,j,NA,NA,NA,1,6,"10,4,7,2,13,14,12,15,9,11,8,1,6,5,3"
14821,commdev-image-keyboard-response,332,1085309,learnblock1,null,img/planet7_left.png,7,Community 1,NA,FALSE,null,f,NA,NA,NA,1,6,"10,4,7,2,13,14,12,15,9,11,8,1,6,5,3"
14821,commdev-image-keyboard-response,333,1086576,learnblock1,689.7000000476837,img/planet10_left.png,10,Community 1,NA,TRUE,f,f,NA,NA,NA,1,6,"10,4,7,2,13,14,12,15,9,11,8,1,6,5,3"
14821,commdev-image-keyboard-response,334,1087830,learnblock1,764,img/planet7_right.png,7,Community 1,NA,FALSE,f,j,NA,NA,NA,1,6,"10,4,7,2,13,14,12,15,9,11,8,1,6,5,3"
14821,commdev-image-keyboard-response,335,1089082,learnblock1,689.7999999523163,img/planet13_right.png,13,Community 1,NA,TRUE,j,j,NA,NA,NA,1,6,"10,4,7,2,13,14,12,15,9,11,8,1,6,5,3"
14821,commdev-image-keyboard-response,336,1090342,learnblock1,523.7999999523163,img/planet10_right.png,10,Community 1,NA,TRUE,j,j,NA,NA,NA,1,6,"10,4,7,2,13,14,12,15,9,11,8,1,6,5,3"
14821,commdev-image-keyboard-response,337,1091599,learnblock1,517.3000000715256,img/planet2_left.png,2,Community 1,NA,TRUE,f,f,NA,NA,NA,1,6,"10,4,7,2,13,14,12,15,9,11,8,1,6,5,3"
14821,commdev-image-keyboard-response,338,1092857,learnblock1,782,img/planet7_left.png,7,Community 1,NA,TRUE,f,f,NA,NA,NA,1,6,"10,4,7,2,13,14,12,15,9,11,8,1,6,5,3"
14821,commdev-image-keyboard-response,339,1094108,learnblock1,526.7000000476837,img/planet4_left.png,4,Community 1,NA,TRUE,f,f,NA,NA,NA,1,6,"10,4,7,2,13,14,12,15,9,11,8,1,6,5,3"
14821,commdev-image-keyboard-response,340,1095364,learnblock1,715.5999999046326,img/planet13_left.png,13,Community 1,NA,TRUE,f,f,NA,NA,NA,1,6,"10,4,7,2,13,14,12,15,9,11,8,1,6,5,3"
14821,commdev-image-keyboard-response,341,1096622,learnblock1,674.1000000238419,img/planet4_left.png,4,Community 1,NA,TRUE,f,f,NA,NA,NA,1,6,"10,4,7,2,13,14,12,15,9,11,8,1,6,5,3"
14821,commdev-image-keyboard-response,342,1097877,learnblock1,673.5,img/planet10_left.png,10,Community 1,NA,TRUE,f,f,NA,NA,NA,1,6,"10,4,7,2,13,14,12,15,9,11,8,1,6,5,3"
14821,commdev-image-keyboard-response,343,1099136,learnblock1,589.3000000715256,img/planet7_left.png,7,Community 1,NA,TRUE,f,f,NA,NA,NA,1,6,"10,4,7,2,13,14,12,15,9,11,8,1,6,5,3"
14821,commdev-image-keyboard-response,344,1100395,learnblock1,497.60000002384186,img/planet2_left.png,2,Community 1,NA,TRUE,f,f,NA,NA,NA,1,6,"10,4,7,2,13,14,12,15,9,11,8,1,6,5,3"
14821,commdev-image-keyboard-response,345,1101649,learnblock1,504,img/planet10_right.png,10,Community 1,NA,TRUE,j,j,NA,NA,NA,1,6,"10,4,7,2,13,14,12,15,9,11,8,1,6,5,3"
14821,commdev-image-keyboard-response,346,1102900,learnblock1,900.7999999523163,img/planet7_left.png,7,Community 1,NA,TRUE,f,f,NA,NA,NA,1,6,"10,4,7,2,13,14,12,15,9,11,8,1,6,5,3"
14821,commdev-image-keyboard-response,347,1104153,learnblock1,863.7000000476837,img/planet13_left.png,13,Community 1,NA,TRUE,f,f,NA,NA,NA,1,6,"10,4,7,2,13,14,12,15,9,11,8,1,6,5,3"
14821,commdev-image-keyboard-response,348,1105413,learnblock1,656.6999999284744,img/planet10_right.png,10,Community 1,NA,TRUE,j,j,NA,NA,NA,1,6,"10,4,7,2,13,14,12,15,9,11,8,1,6,5,3"
14821,commdev-image-keyboard-response,349,1106670,learnblock1,null,img/planet7_right.png,7,Community 1,NA,FALSE,null,j,NA,NA,NA,1,6,"10,4,7,2,13,14,12,15,9,11,8,1,6,5,3"
14821,commdev-image-keyboard-response,350,1107941,learnblock1,173.39999997615814,img/planet2_left.png,2,Community 1,NA,FALSE,j,f,NA,NA,NA,1,6,"10,4,7,2,13,14,12,15,9,11,8,1,6,5,3"
14821,commdev-image-keyboard-response,351,1109195,learnblock1,678.7999999523163,img/planet7_right.png,7,Community 1,NA,TRUE,j,j,NA,NA,NA,1,6,"10,4,7,2,13,14,12,15,9,11,8,1,6,5,3"
14821,commdev-image-keyboard-response,352,1110456,learnblock1,720.8000000715256,img/planet4_right.png,4,Community 1,NA,FALSE,f,j,NA,NA,NA,1,6,"10,4,7,2,13,14,12,15,9,11,8,1,6,5,3"
14821,commdev-image-keyboard-response,353,1111709,learnblock1,1076.6999999284744,img/planet7_right.png,7,Community 1,NA,TRUE,j,j,NA,NA,NA,1,6,"10,4,7,2,13,14,12,15,9,11,8,1,6,5,3"
14821,commdev-image-keyboard-response,354,1112967,learnblock1,693.5,img/planet2_left.png,2,Community 1,NA,TRUE,f,f,NA,NA,NA,1,6,"10,4,7,2,13,14,12,15,9,11,8,1,6,5,3"
14821,commdev-image-keyboard-response,355,1114224,learnblock1,581.7999999523163,img/planet7_right.png,7,Community 1,NA,TRUE,j,j,NA,NA,NA,1,6,"10,4,7,2,13,14,12,15,9,11,8,1,6,5,3"
14821,commdev-image-keyboard-response,356,1115479,learnblock1,513.5,img/planet10_right.png,10,Community 1,NA,TRUE,j,j,NA,NA,NA,1,6,"10,4,7,2,13,14,12,15,9,11,8,1,6,5,3"
14821,commdev-image-keyboard-response,357,1116730,learnblock1,949.6000000238419,img/planet7_right.png,7,Community 1,NA,TRUE,j,j,NA,NA,NA,1,6,"10,4,7,2,13,14,12,15,9,11,8,1,6,5,3"
14821,commdev-image-keyboard-response,358,1117982,learnblock1,829.6999999284744,img/planet13_right.png,13,Community 1,NA,TRUE,j,j,NA,NA,NA,1,6,"10,4,7,2,13,14,12,15,9,11,8,1,6,5,3"
14821,commdev-image-keyboard-response,359,1119239,learnblock1,797,img/planet8_left.png,8,Community 3,NA,TRUE,f,f,NA,NA,NA,1,6,"10,4,7,2,13,14,12,15,9,11,8,1,6,5,3"
14821,commdev-image-keyboard-response,360,1120498,learnblock1,652.7000000476837,img/planet5_right.png,5,Community 3,NA,TRUE,j,j,NA,NA,NA,1,6,"10,4,7,2,13,14,12,15,9,11,8,1,6,5,3"
14821,commdev-image-keyboard-response,361,1121756,learnblock1,783.7999999523163,img/planet6_left.png,6,Community 3,NA,TRUE,f,f,NA,NA,NA,1,6,"10,4,7,2,13,14,12,15,9,11,8,1,6,5,3"
14821,commdev-image-keyboard-response,362,1123019,learnblock1,619.3000000715256,img/planet1_right.png,1,Community 3,NA,TRUE,j,j,NA,NA,NA,1,6,"10,4,7,2,13,14,12,15,9,11,8,1,6,5,3"
14821,commdev-image-keyboard-response,363,1124280,learnblock1,282.7999999523163,img/planet15_left.png,15,Community 2,NA,FALSE,j,f,NA,NA,NA,1,6,"10,4,7,2,13,14,12,15,9,11,8,1,6,5,3"
14821,commdev-image-keyboard-response,364,1125531,learnblock1,633.7000000476837,img/planet11_right.png,11,Community 2,NA,TRUE,j,j,NA,NA,NA,1,6,"10,4,7,2,13,14,12,15,9,11,8,1,6,5,3"
14821,commdev-image-keyboard-response,365,1126782,learnblock1,793.3999999761581,img/planet14_left.png,14,Community 2,NA,TRUE,f,f,NA,NA,NA,1,6,"10,4,7,2,13,14,12,15,9,11,8,1,6,5,3"
14821,commdev-image-keyboard-response,366,1128038,learnblock1,610.1000000238419,img/planet2_left.png,2,Community 1,NA,TRUE,f,f,NA,NA,NA,1,6,"10,4,7,2,13,14,12,15,9,11,8,1,6,5,3"
14821,commdev-image-keyboard-response,367,1129291,learnblock1,761,img/planet7_left.png,7,Community 1,NA,TRUE,f,f,NA,NA,NA,1,6,"10,4,7,2,13,14,12,15,9,11,8,1,6,5,3"
14821,commdev-image-keyboard-response,368,1130549,learnblock1,575.3999999761581,img/planet2_left.png,2,Community 1,NA,TRUE,f,f,NA,NA,NA,1,6,"10,4,7,2,13,14,12,15,9,11,8,1,6,5,3"
14821,commdev-image-keyboard-response,369,1131813,learnblock1,587.8999999761581,img/planet7_right.png,7,Community 1,NA,TRUE,j,j,NA,NA,NA,1,6,"10,4,7,2,13,14,12,15,9,11,8,1,6,5,3"
14821,commdev-image-keyboard-response,370,1133073,learnblock1,666.5,img/planet2_left.png,2,Community 1,NA,FALSE,j,f,NA,NA,NA,1,6,"10,4,7,2,13,14,12,15,9,11,8,1,6,5,3"
14821,commdev-image-keyboard-response,371,1134329,learnblock1,728,img/planet10_right.png,10,Community 1,NA,TRUE,j,j,NA,NA,NA,1,6,"10,4,7,2,13,14,12,15,9,11,8,1,6,5,3"
14821,commdev-image-keyboard-response,372,1135588,learnblock1,552.6000000238419,img/planet7_left.png,7,Community 1,NA,TRUE,f,f,NA,NA,NA,1,6,"10,4,7,2,13,14,12,15,9,11,8,1,6,5,3"
14821,commdev-image-keyboard-response,373,1136855,learnblock1,693.8999999761581,img/planet4_left.png,4,Community 1,NA,TRUE,f,f,NA,NA,NA,1,6,"10,4,7,2,13,14,12,15,9,11,8,1,6,5,3"
14821,commdev-image-keyboard-response,374,1138109,learnblock1,500,img/planet10_left.png,10,Community 1,NA,TRUE,f,f,NA,NA,NA,1,6,"10,4,7,2,13,14,12,15,9,11,8,1,6,5,3"
14821,commdev-image-keyboard-response,375,1139363,learnblock1,666.0999999046326,img/planet4_right.png,4,Community 1,NA,TRUE,j,j,NA,NA,NA,1,6,"10,4,7,2,13,14,12,15,9,11,8,1,6,5,3"
14821,commdev-image-keyboard-response,376,1140619,learnblock1,731.3000000715256,img/planet10_left.png,10,Community 1,NA,FALSE,j,f,NA,NA,NA,1,6,"10,4,7,2,13,14,12,15,9,11,8,1,6,5,3"
14821,commdev-image-keyboard-response,377,1141878,learnblock1,792.1999999284744,img/planet13_left.png,13,Community 1,NA,FALSE,j,f,NA,NA,NA,1,6,"10,4,7,2,13,14,12,15,9,11,8,1,6,5,3"
14821,commdev-image-keyboard-response,378,1143134,learnblock1,958.5,img/planet10_right.png,10,Community 1,NA,TRUE,j,j,NA,NA,NA,1,6,"10,4,7,2,13,14,12,15,9,11,8,1,6,5,3"
14821,commdev-image-keyboard-response,379,1144389,learnblock1,928.6000000238419,img/planet4_right.png,4,Community 1,NA,TRUE,j,j,NA,NA,NA,1,6,"10,4,7,2,13,14,12,15,9,11,8,1,6,5,3"
14821,commdev-image-keyboard-response,380,1145642,learnblock1,707.7000000476837,img/planet10_left.png,10,Community 1,NA,TRUE,f,f,NA,NA,NA,1,6,"10,4,7,2,13,14,12,15,9,11,8,1,6,5,3"
14821,commdev-image-keyboard-response,381,1146905,learnblock1,780,img/planet13_right.png,13,Community 1,NA,TRUE,j,j,NA,NA,NA,1,6,"10,4,7,2,13,14,12,15,9,11,8,1,6,5,3"
14821,commdev-image-keyboard-response,382,1148159,learnblock1,673.3000000715256,img/planet7_left.png,7,Community 1,NA,TRUE,f,f,NA,NA,NA,1,6,"10,4,7,2,13,14,12,15,9,11,8,1,6,5,3"
14821,commdev-image-keyboard-response,383,1149419,learnblock1,702.2999999523163,img/planet13_left.png,13,Community 1,NA,TRUE,f,f,NA,NA,NA,1,6,"10,4,7,2,13,14,12,15,9,11,8,1,6,5,3"
14821,commdev-image-keyboard-response,384,1150670,learnblock1,667.9000000953674,img/planet7_left.png,7,Community 1,NA,TRUE,f,f,NA,NA,NA,1,6,"10,4,7,2,13,14,12,15,9,11,8,1,6,5,3"
14821,commdev-image-keyboard-response,385,1151928,learnblock1,673.3000000715256,img/planet2_right.png,2,Community 1,NA,TRUE,j,j,NA,NA,NA,1,6,"10,4,7,2,13,14,12,15,9,11,8,1,6,5,3"
14821,commdev-image-keyboard-response,386,1153185,learnblock1,773.7999999523163,img/planet7_right.png,7,Community 1,NA,TRUE,j,j,NA,NA,NA,1,6,"10,4,7,2,13,14,12,15,9,11,8,1,6,5,3"
14821,commdev-image-keyboard-response,387,1154447,learnblock1,678,img/planet13_left.png,13,Community 1,NA,TRUE,f,f,NA,NA,NA,1,6,"10,4,7,2,13,14,12,15,9,11,8,1,6,5,3"
14821,commdev-image-keyboard-response,388,1155700,learnblock1,915.2000000476837,img/planet8_left.png,8,Community 3,NA,TRUE,f,f,NA,NA,NA,1,6,"10,4,7,2,13,14,12,15,9,11,8,1,6,5,3"
14821,commdev-image-keyboard-response,389,1156956,learnblock1,597.3999999761581,img/planet5_right.png,5,Community 3,NA,TRUE,j,j,NA,NA,NA,1,6,"10,4,7,2,13,14,12,15,9,11,8,1,6,5,3"
14821,commdev-image-keyboard-response,390,1158219,learnblock1,829,img/planet6_right.png,6,Community 3,NA,TRUE,j,j,NA,NA,NA,1,6,"10,4,7,2,13,14,12,15,9,11,8,1,6,5,3"
14821,commdev-image-keyboard-response,391,1159474,learnblock1,545.2000000476837,img/planet8_right.png,8,Community 3,NA,TRUE,j,j,NA,NA,NA,1,6,"10,4,7,2,13,14,12,15,9,11,8,1,6,5,3"
14821,commdev-image-keyboard-response,392,1160740,learnblock1,484.7000000476837,img/planet5_right.png,5,Community 3,NA,TRUE,j,j,NA,NA,NA,1,6,"10,4,7,2,13,14,12,15,9,11,8,1,6,5,3"
14821,commdev-image-keyboard-response,393,1161992,learnblock1,639,img/planet1_left.png,1,Community 3,NA,TRUE,f,f,NA,NA,NA,1,6,"10,4,7,2,13,14,12,15,9,11,8,1,6,5,3"
14821,commdev-image-keyboard-response,394,1163252,learnblock1,735.8000000715256,img/planet3_left.png,3,Community 3,NA,TRUE,f,f,NA,NA,NA,1,6,"10,4,7,2,13,14,12,15,9,11,8,1,6,5,3"
14821,commdev-image-keyboard-response,395,1164508,learnblock1,633.3999999761581,img/planet8_right.png,8,Community 3,NA,TRUE,j,j,NA,NA,NA,1,6,"10,4,7,2,13,14,12,15,9,11,8,1,6,5,3"
14821,commdev-image-keyboard-response,396,1165764,learnblock1,621.8000000715256,img/planet5_left.png,5,Community 3,NA,TRUE,f,f,NA,NA,NA,1,6,"10,4,7,2,13,14,12,15,9,11,8,1,6,5,3"
14821,commdev-image-keyboard-response,397,1167023,learnblock1,765.3999999761581,img/planet6_left.png,6,Community 3,NA,FALSE,j,f,NA,NA,NA,1,6,"10,4,7,2,13,14,12,15,9,11,8,1,6,5,3"
14821,commdev-image-keyboard-response,398,1168277,learnblock1,654.7999999523163,img/planet8_right.png,8,Community 3,NA,TRUE,j,j,NA,NA,NA,1,6,"10,4,7,2,13,14,12,15,9,11,8,1,6,5,3"
14821,commdev-image-keyboard-response,399,1169537,learnblock1,938.9000000953674,img/planet3_right.png,3,Community 3,NA,TRUE,j,j,NA,NA,NA,1,6,"10,4,7,2,13,14,12,15,9,11,8,1,6,5,3"
14821,commdev-image-keyboard-response,400,1170791,learnblock1,651.5,img/planet5_left.png,5,Community 3,NA,TRUE,f,f,NA,NA,NA,1,6,"10,4,7,2,13,14,12,15,9,11,8,1,6,5,3"
14821,commdev-image-keyboard-response,401,1172044,learnblock1,530.5,img/planet3_right.png,3,Community 3,NA,TRUE,j,j,NA,NA,NA,1,6,"10,4,7,2,13,14,12,15,9,11,8,1,6,5,3"
14821,commdev-image-keyboard-response,402,1173302,learnblock1,527.2000000476837,img/planet5_right.png,5,Community 3,NA,TRUE,j,j,NA,NA,NA,1,6,"10,4,7,2,13,14,12,15,9,11,8,1,6,5,3"
14821,commdev-image-keyboard-response,403,1174569,learnblock1,695.2999999523163,img/planet3_right.png,3,Community 3,NA,TRUE,j,j,NA,NA,NA,1,6,"10,4,7,2,13,14,12,15,9,11,8,1,6,5,3"
14821,commdev-image-keyboard-response,404,1175826,learnblock1,790.3999999761581,img/planet8_left.png,8,Community 3,NA,TRUE,f,f,NA,NA,NA,1,6,"10,4,7,2,13,14,12,15,9,11,8,1,6,5,3"
14821,commdev-image-keyboard-response,405,1177079,learnblock1,756.2000000476837,img/planet6_left.png,6,Community 3,NA,TRUE,f,f,NA,NA,NA,1,6,"10,4,7,2,13,14,12,15,9,11,8,1,6,5,3"
14821,commdev-image-keyboard-response,406,1178333,learnblock1,1164.8999999761581,img/planet8_left.png,8,Community 3,NA,TRUE,f,f,NA,NA,NA,1,6,"10,4,7,2,13,14,12,15,9,11,8,1,6,5,3"
14821,commdev-image-keyboard-response,407,1179587,learnblock1,653,img/planet13_right.png,13,Community 1,NA,TRUE,j,j,NA,NA,NA,1,6,"10,4,7,2,13,14,12,15,9,11,8,1,6,5,3"
14821,commdev-image-keyboard-response,408,1180846,learnblock1,573.2000000476837,img/planet10_right.png,10,Community 1,NA,TRUE,j,j,NA,NA,NA,1,6,"10,4,7,2,13,14,12,15,9,11,8,1,6,5,3"
14821,commdev-image-keyboard-response,409,1182110,learnblock1,608.6999999284744,img/planet2_left.png,2,Community 1,NA,TRUE,f,f,NA,NA,NA,1,6,"10,4,7,2,13,14,12,15,9,11,8,1,6,5,3"
14821,commdev-image-keyboard-response,410,1183362,learnblock1,748.8999999761581,img/planet14_left.png,14,Community 2,NA,TRUE,f,f,NA,NA,NA,1,6,"10,4,7,2,13,14,12,15,9,11,8,1,6,5,3"
14821,commdev-image-keyboard-response,411,1184616,learnblock1,566.6999999284744,img/planet2_right.png,2,Community 1,NA,TRUE,j,j,NA,NA,NA,1,6,"10,4,7,2,13,14,12,15,9,11,8,1,6,5,3"
14821,commdev-image-keyboard-response,412,1185871,learnblock1,676.7999999523163,img/planet7_left.png,7,Community 1,NA,TRUE,f,f,NA,NA,NA,1,6,"10,4,7,2,13,14,12,15,9,11,8,1,6,5,3"
14821,commdev-image-keyboard-response,413,1187139,learnblock1,689,img/planet4_right.png,4,Community 1,NA,FALSE,f,j,NA,NA,NA,1,6,"10,4,7,2,13,14,12,15,9,11,8,1,6,5,3"
14821,commdev-image-keyboard-response,414,1188400,learnblock1,744.6000000238419,img/planet7_left.png,7,Community 1,NA,TRUE,f,f,NA,NA,NA,1,6,"10,4,7,2,13,14,12,15,9,11,8,1,6,5,3"
14821,commdev-image-keyboard-response,415,1189657,learnblock1,602.3999999761581,img/planet10_right.png,10,Community 1,NA,TRUE,j,j,NA,NA,NA,1,6,"10,4,7,2,13,14,12,15,9,11,8,1,6,5,3"
14821,commdev-image-keyboard-response,416,1190920,learnblock1,679.8000000715256,img/planet13_left.png,13,Community 1,NA,FALSE,j,f,NA,NA,NA,1,6,"10,4,7,2,13,14,12,15,9,11,8,1,6,5,3"
14821,commdev-image-keyboard-response,417,1192177,learnblock1,640.5,img/planet7_right.png,7,Community 1,NA,TRUE,j,j,NA,NA,NA,1,6,"10,4,7,2,13,14,12,15,9,11,8,1,6,5,3"
14821,commdev-image-keyboard-response,421,1276633,learnblock2,717.3999999761581,img/planet3_right.png,3,Community 3,NA,TRUE,j,j,NA,NA,NA,1,6,"10,4,7,2,13,14,12,15,9,11,8,1,6,5,3"
14821,commdev-image-keyboard-response,422,1277890,learnblock2,498,img/planet5_right.png,5,Community 3,NA,TRUE,j,j,NA,NA,NA,1,6,"10,4,7,2,13,14,12,15,9,11,8,1,6,5,3"
14821,commdev-image-keyboard-response,423,1279150,learnblock2,545.2999999523163,img/planet8_left.png,8,Community 3,NA,TRUE,f,f,NA,NA,NA,1,6,"10,4,7,2,13,14,12,15,9,11,8,1,6,5,3"
14821,commdev-image-keyboard-response,424,1280408,learnblock2,617.7000000476837,img/planet13_left.png,13,Community 1,NA,TRUE,f,f,NA,NA,NA,1,6,"10,4,7,2,13,14,12,15,9,11,8,1,6,5,3"
14821,commdev-image-keyboard-response,425,1281660,learnblock2,538.8999999761581,img/planet8_right.png,8,Community 3,NA,TRUE,j,j,NA,NA,NA,1,6,"10,4,7,2,13,14,12,15,9,11,8,1,6,5,3"
14821,commdev-image-keyboard-response,426,1282913,learnblock2,592.8999999761581,img/planet3_right.png,3,Community 3,NA,TRUE,j,j,NA,NA,NA,1,6,"10,4,7,2,13,14,12,15,9,11,8,1,6,5,3"
14821,commdev-image-keyboard-response,427,1284169,learnblock2,488.89999997615814,img/planet8_right.png,8,Community 3,NA,TRUE,j,j,NA,NA,NA,1,6,"10,4,7,2,13,14,12,15,9,11,8,1,6,5,3"
14821,commdev-image-keyboard-response,428,1285424,learnblock2,484.7999999523163,img/planet5_left.png,5,Community 3,NA,TRUE,f,f,NA,NA,NA,1,6,"10,4,7,2,13,14,12,15,9,11,8,1,6,5,3"
14821,commdev-image-keyboard-response,429,1286682,learnblock2,793.6999999284744,img/planet3_left.png,3,Community 3,NA,TRUE,f,f,NA,NA,NA,1,6,"10,4,7,2,13,14,12,15,9,11,8,1,6,5,3"
14821,commdev-image-keyboard-response,430,1287937,learnblock2,484.2999999523163,img/planet1_left.png,1,Community 3,NA,TRUE,f,f,NA,NA,NA,1,6,"10,4,7,2,13,14,12,15,9,11,8,1,6,5,3"
14821,commdev-image-keyboard-response,431,1289202,learnblock2,502.89999997615814,img/planet3_left.png,3,Community 3,NA,TRUE,f,f,NA,NA,NA,1,6,"10,4,7,2,13,14,12,15,9,11,8,1,6,5,3"
14821,commdev-image-keyboard-response,432,1290461,learnblock2,496.7999999523163,img/planet6_right.png,6,Community 3,NA,FALSE,f,j,NA,NA,NA,1,6,"10,4,7,2,13,14,12,15,9,11,8,1,6,5,3"
14821,commdev-image-keyboard-response,433,1291720,learnblock2,563.8000000715256,img/planet1_left.png,1,Community 3,NA,TRUE,f,f,NA,NA,NA,1,6,"10,4,7,2,13,14,12,15,9,11,8,1,6,5,3"
14821,commdev-image-keyboard-response,434,1292986,learnblock2,442.89999997615814,img/planet15_left.png,15,Community 2,NA,TRUE,f,f,NA,NA,NA,1,6,"10,4,7,2,13,14,12,15,9,11,8,1,6,5,3"
14821,commdev-image-keyboard-response,435,1294245,learnblock2,500.3000000715256,img/planet12_right.png,12,Community 2,NA,TRUE,j,j,NA,NA,NA,1,6,"10,4,7,2,13,14,12,15,9,11,8,1,6,5,3"
14821,commdev-image-keyboard-response,436,1295496,learnblock2,580.3999999761581,img/planet15_right.png,15,Community 2,NA,TRUE,j,j,NA,NA,NA,1,6,"10,4,7,2,13,14,12,15,9,11,8,1,6,5,3"
14821,commdev-image-keyboard-response,437,1296755,learnblock2,550.1999999284744,img/planet11_right.png,11,Community 2,NA,TRUE,j,j,NA,NA,NA,1,6,"10,4,7,2,13,14,12,15,9,11,8,1,6,5,3"
14821,commdev-image-keyboard-response,438,1298008,learnblock2,568.3999999761581,img/planet15_left.png,15,Community 2,NA,TRUE,f,f,NA,NA,NA,1,6,"10,4,7,2,13,14,12,15,9,11,8,1,6,5,3"
14821,commdev-image-keyboard-response,439,1299262,learnblock2,485.5,img/planet11_left.png,11,Community 2,NA,TRUE,f,f,NA,NA,NA,1,6,"10,4,7,2,13,14,12,15,9,11,8,1,6,5,3"
14821,commdev-image-keyboard-response,440,1300515,learnblock2,612.6999999284744,img/planet15_left.png,15,Community 2,NA,FALSE,j,f,NA,NA,NA,1,6,"10,4,7,2,13,14,12,15,9,11,8,1,6,5,3"
14821,commdev-image-keyboard-response,441,1301774,learnblock2,663.2999999523163,img/planet9_left.png,9,Community 2,NA,TRUE,f,f,NA,NA,NA,1,6,"10,4,7,2,13,14,12,15,9,11,8,1,6,5,3"
14821,commdev-image-keyboard-response,442,1303039,learnblock2,559.7999999523163,img/planet15_left.png,15,Community 2,NA,TRUE,f,f,NA,NA,NA,1,6,"10,4,7,2,13,14,12,15,9,11,8,1,6,5,3"
14821,commdev-image-keyboard-response,443,1304298,learnblock2,478.39999997615814,img/planet11_right.png,11,Community 2,NA,TRUE,j,j,NA,NA,NA,1,6,"10,4,7,2,13,14,12,15,9,11,8,1,6,5,3"
14821,commdev-image-keyboard-response,444,1305558,learnblock2,724.2999999523163,img/planet15_left.png,15,Community 2,NA,TRUE,f,f,NA,NA,NA,1,6,"10,4,7,2,13,14,12,15,9,11,8,1,6,5,3"
14821,commdev-image-keyboard-response,445,1306811,learnblock2,464.39999997615814,img/planet9_right.png,9,Community 2,NA,TRUE,j,j,NA,NA,NA,1,6,"10,4,7,2,13,14,12,15,9,11,8,1,6,5,3"
14821,commdev-image-keyboard-response,446,1308071,learnblock2,410.5,img/planet15_right.png,15,Community 2,NA,TRUE,j,j,NA,NA,NA,1,6,"10,4,7,2,13,14,12,15,9,11,8,1,6,5,3"
14821,commdev-image-keyboard-response,447,1309326,learnblock2,750.6000000238419,img/planet1_left.png,1,Community 3,NA,TRUE,f,f,NA,NA,NA,1,6,"10,4,7,2,13,14,12,15,9,11,8,1,6,5,3"
14821,commdev-image-keyboard-response,448,1310582,learnblock2,483.5,img/planet5_right.png,5,Community 3,NA,TRUE,j,j,NA,NA,NA,1,6,"10,4,7,2,13,14,12,15,9,11,8,1,6,5,3"
14821,commdev-image-keyboard-response,449,1311841,learnblock2,490.89999997615814,img/planet8_right.png,8,Community 3,NA,TRUE,j,j,NA,NA,NA,1,6,"10,4,7,2,13,14,12,15,9,11,8,1,6,5,3"
14821,commdev-image-keyboard-response,450,1313095,learnblock2,494.7999999523163,img/planet13_left.png,13,Community 1,NA,TRUE,f,f,NA,NA,NA,1,6,"10,4,7,2,13,14,12,15,9,11,8,1,6,5,3"
14821,commdev-image-keyboard-response,451,1314355,learnblock2,464.90000009536743,img/planet10_left.png,10,Community 1,NA,TRUE,f,f,NA,NA,NA,1,6,"10,4,7,2,13,14,12,15,9,11,8,1,6,5,3"
14821,commdev-image-keyboard-response,452,1315609,learnblock2,606.2999999523163,img/planet2_left.png,2,Community 1,NA,TRUE,f,f,NA,NA,NA,1,6,"10,4,7,2,13,14,12,15,9,11,8,1,6,5,3"
14821,commdev-image-keyboard-response,453,1316869,learnblock2,518.1000000238419,img/planet7_left.png,7,Community 1,NA,TRUE,f,f,NA,NA,NA,1,6,"10,4,7,2,13,14,12,15,9,11,8,1,6,5,3"
14821,commdev-image-keyboard-response,454,1318127,learnblock2,554,img/planet4_right.png,4,Community 1,NA,TRUE,j,j,NA,NA,NA,1,6,"10,4,7,2,13,14,12,15,9,11,8,1,6,5,3"
14821,commdev-image-keyboard-response,455,1319388,learnblock2,708.6000000238419,img/planet13_left.png,13,Community 1,NA,TRUE,f,f,NA,NA,NA,1,6,"10,4,7,2,13,14,12,15,9,11,8,1,6,5,3"
14821,commdev-image-keyboard-response,456,1320644,learnblock2,619.4000000953674,img/planet4_right.png,4,Community 1,NA,TRUE,j,j,NA,NA,NA,1,6,"10,4,7,2,13,14,12,15,9,11,8,1,6,5,3"
14821,commdev-image-keyboard-response,457,1321904,learnblock2,514.7999999523163,img/planet2_right.png,2,Community 1,NA,TRUE,j,j,NA,NA,NA,1,6,"10,4,7,2,13,14,12,15,9,11,8,1,6,5,3"
14821,commdev-image-keyboard-response,458,1323168,learnblock2,428.2999999523163,img/planet7_right.png,7,Community 1,NA,TRUE,j,j,NA,NA,NA,1,6,"10,4,7,2,13,14,12,15,9,11,8,1,6,5,3"
14821,commdev-image-keyboard-response,459,1324432,learnblock2,578.7000000476837,img/planet4_left.png,4,Community 1,NA,TRUE,f,f,NA,NA,NA,1,6,"10,4,7,2,13,14,12,15,9,11,8,1,6,5,3"
14821,commdev-image-keyboard-response,460,1325692,learnblock2,513,img/planet2_left.png,2,Community 1,NA,TRUE,f,f,NA,NA,NA,1,6,"10,4,7,2,13,14,12,15,9,11,8,1,6,5,3"
14821,commdev-image-keyboard-response,461,1326945,learnblock2,592.0999999046326,img/planet4_right.png,4,Community 1,NA,TRUE,j,j,NA,NA,NA,1,6,"10,4,7,2,13,14,12,15,9,11,8,1,6,5,3"
14821,commdev-image-keyboard-response,462,1328203,learnblock2,550.5,img/planet2_right.png,2,Community 1,NA,TRUE,j,j,NA,NA,NA,1,6,"10,4,7,2,13,14,12,15,9,11,8,1,6,5,3"
14821,commdev-image-keyboard-response,463,1329459,learnblock2,622.8999999761581,img/planet14_right.png,14,Community 2,NA,TRUE,j,j,NA,NA,NA,1,6,"10,4,7,2,13,14,12,15,9,11,8,1,6,5,3"
14821,commdev-image-keyboard-response,464,1330726,learnblock2,633.2000000476837,img/planet12_left.png,12,Community 2,NA,TRUE,f,f,NA,NA,NA,1,6,"10,4,7,2,13,14,12,15,9,11,8,1,6,5,3"
14821,commdev-image-keyboard-response,465,1331989,learnblock2,497.5,img/planet11_right.png,11,Community 2,NA,TRUE,j,j,NA,NA,NA,1,6,"10,4,7,2,13,14,12,15,9,11,8,1,6,5,3"
14821,commdev-image-keyboard-response,466,1333241,learnblock2,619,img/planet12_right.png,12,Community 2,NA,TRUE,j,j,NA,NA,NA,1,6,"10,4,7,2,13,14,12,15,9,11,8,1,6,5,3"
14821,commdev-image-keyboard-response,467,1334496,learnblock2,561.4000000953674,img/planet14_right.png,14,Community 2,NA,TRUE,j,j,NA,NA,NA,1,6,"10,4,7,2,13,14,12,15,9,11,8,1,6,5,3"
14821,commdev-image-keyboard-response,468,1335750,learnblock2,460.39999997615814,img/planet2_right.png,2,Community 1,NA,TRUE,j,j,NA,NA,NA,1,6,"10,4,7,2,13,14,12,15,9,11,8,1,6,5,3"
14821,commdev-image-keyboard-response,469,1337008,learnblock2,541.9000000953674,img/planet7_left.png,7,Community 1,NA,TRUE,f,f,NA,NA,NA,1,6,"10,4,7,2,13,14,12,15,9,11,8,1,6,5,3"
14821,commdev-image-keyboard-response,470,1338262,learnblock2,554.4000000953674,img/planet13_left.png,13,Community 1,NA,TRUE,f,f,NA,NA,NA,1,6,"10,4,7,2,13,14,12,15,9,11,8,1,6,5,3"
14821,commdev-image-keyboard-response,471,1339522,learnblock2,756.7999999523163,img/planet8_right.png,8,Community 3,NA,TRUE,j,j,NA,NA,NA,1,6,"10,4,7,2,13,14,12,15,9,11,8,1,6,5,3"
14821,commdev-image-keyboard-response,472,1340781,learnblock2,479,img/planet3_right.png,3,Community 3,NA,TRUE,j,j,NA,NA,NA,1,6,"10,4,7,2,13,14,12,15,9,11,8,1,6,5,3"
14821,commdev-image-keyboard-response,473,1342034,learnblock2,473.5,img/planet6_right.png,6,Community 3,NA,TRUE,j,j,NA,NA,NA,1,6,"10,4,7,2,13,14,12,15,9,11,8,1,6,5,3"
14821,commdev-image-keyboard-response,474,1343296,learnblock2,597.7000000476837,img/planet1_left.png,1,Community 3,NA,TRUE,f,f,NA,NA,NA,1,6,"10,4,7,2,13,14,12,15,9,11,8,1,6,5,3"
14821,commdev-image-keyboard-response,475,1344552,learnblock2,694.6999999284744,img/planet5_right.png,5,Community 3,NA,TRUE,j,j,NA,NA,NA,1,6,"10,4,7,2,13,14,12,15,9,11,8,1,6,5,3"
14821,commdev-image-keyboard-response,476,1345817,learnblock2,593.6000000238419,img/planet8_right.png,8,Community 3,NA,TRUE,j,j,NA,NA,NA,1,6,"10,4,7,2,13,14,12,15,9,11,8,1,6,5,3"
14821,commdev-image-keyboard-response,477,1347075,learnblock2,595.7999999523163,img/planet3_right.png,3,Community 3,NA,TRUE,j,j,NA,NA,NA,1,6,"10,4,7,2,13,14,12,15,9,11,8,1,6,5,3"
14821,commdev-image-keyboard-response,478,1348332,learnblock2,536,img/planet1_right.png,1,Community 3,NA,TRUE,j,j,NA,NA,NA,1,6,"10,4,7,2,13,14,12,15,9,11,8,1,6,5,3"
14821,commdev-image-keyboard-response,479,1349589,learnblock2,619.3000000715256,img/planet5_left.png,5,Community 3,NA,TRUE,f,f,NA,NA,NA,1,6,"10,4,7,2,13,14,12,15,9,11,8,1,6,5,3"
14821,commdev-image-keyboard-response,480,1350841,learnblock2,630,img/planet8_right.png,8,Community 3,NA,TRUE,j,j,NA,NA,NA,1,6,"10,4,7,2,13,14,12,15,9,11,8,1,6,5,3"
14821,commdev-image-keyboard-response,481,1352096,learnblock2,514,img/planet13_right.png,13,Community 1,NA,TRUE,j,j,NA,NA,NA,1,6,"10,4,7,2,13,14,12,15,9,11,8,1,6,5,3"
14821,commdev-image-keyboard-response,482,1353353,learnblock2,593.5999999046326,img/planet7_left.png,7,Community 1,NA,TRUE,f,f,NA,NA,NA,1,6,"10,4,7,2,13,14,12,15,9,11,8,1,6,5,3"
14821,commdev-image-keyboard-response,483,1354609,learnblock2,519.4000000953674,img/planet13_left.png,13,Community 1,NA,TRUE,f,f,NA,NA,NA,1,6,"10,4,7,2,13,14,12,15,9,11,8,1,6,5,3"
14821,commdev-image-keyboard-response,484,1355867,learnblock2,510.7999999523163,img/planet8_right.png,8,Community 3,NA,TRUE,j,j,NA,NA,NA,1,6,"10,4,7,2,13,14,12,15,9,11,8,1,6,5,3"
14821,commdev-image-keyboard-response,485,1357123,learnblock2,729.2999999523163,img/planet3_left.png,3,Community 3,NA,TRUE,f,f,NA,NA,NA,1,6,"10,4,7,2,13,14,12,15,9,11,8,1,6,5,3"
14821,commdev-image-keyboard-response,486,1358380,learnblock2,935.0999999046326,img/planet8_right.png,8,Community 3,NA,TRUE,j,j,NA,NA,NA,1,6,"10,4,7,2,13,14,12,15,9,11,8,1,6,5,3"
14821,commdev-image-keyboard-response,487,1359636,learnblock2,611.1999999284744,img/planet6_right.png,6,Community 3,NA,TRUE,j,j,NA,NA,NA,1,6,"10,4,7,2,13,14,12,15,9,11,8,1,6,5,3"
14821,commdev-image-keyboard-response,488,1360889,learnblock2,566,img/planet8_left.png,8,Community 3,NA,TRUE,f,f,NA,NA,NA,1,6,"10,4,7,2,13,14,12,15,9,11,8,1,6,5,3"
14821,commdev-image-keyboard-response,489,1362147,learnblock2,524.1000000238419,img/planet13_left.png,13,Community 1,NA,TRUE,f,f,NA,NA,NA,1,6,"10,4,7,2,13,14,12,15,9,11,8,1,6,5,3"
14821,commdev-image-keyboard-response,490,1363401,learnblock2,620,img/planet10_left.png,10,Community 1,NA,TRUE,f,f,NA,NA,NA,1,6,"10,4,7,2,13,14,12,15,9,11,8,1,6,5,3"
14821,commdev-image-keyboard-response,491,1364653,learnblock2,912,img/planet4_left.png,4,Community 1,NA,TRUE,f,f,NA,NA,NA,1,6,"10,4,7,2,13,14,12,15,9,11,8,1,6,5,3"
14821,commdev-image-keyboard-response,492,1365921,learnblock2,808.7999999523163,img/planet13_left.png,13,Community 1,NA,TRUE,f,f,NA,NA,NA,1,6,"10,4,7,2,13,14,12,15,9,11,8,1,6,5,3"
14821,commdev-image-keyboard-response,493,1367174,learnblock2,921.3999999761581,img/planet8_left.png,8,Community 3,NA,TRUE,f,f,NA,NA,NA,1,6,"10,4,7,2,13,14,12,15,9,11,8,1,6,5,3"
14821,commdev-image-keyboard-response,494,1368429,learnblock2,550.7999999523163,img/planet13_left.png,13,Community 1,NA,TRUE,f,f,NA,NA,NA,1,6,"10,4,7,2,13,14,12,15,9,11,8,1,6,5,3"
14821,commdev-image-keyboard-response,495,1369687,learnblock2,444.5,img/planet8_right.png,8,Community 3,NA,TRUE,j,j,NA,NA,NA,1,6,"10,4,7,2,13,14,12,15,9,11,8,1,6,5,3"
14821,commdev-image-keyboard-response,496,1370952,learnblock2,410.39999997615814,img/planet3_left.png,3,Community 3,NA,FALSE,j,f,NA,NA,NA,1,6,"10,4,7,2,13,14,12,15,9,11,8,1,6,5,3"
14821,commdev-image-keyboard-response,497,1372218,learnblock2,808.4000000953674,img/planet5_left.png,5,Community 3,NA,TRUE,f,f,NA,NA,NA,1,6,"10,4,7,2,13,14,12,15,9,11,8,1,6,5,3"
14821,commdev-image-keyboard-response,498,1373470,learnblock2,533.7000000476837,img/planet3_left.png,3,Community 3,NA,TRUE,f,f,NA,NA,NA,1,6,"10,4,7,2,13,14,12,15,9,11,8,1,6,5,3"
14821,commdev-image-keyboard-response,499,1374728,learnblock2,506.39999997615814,img/planet6_right.png,6,Community 3,NA,TRUE,j,j,NA,NA,NA,1,6,"10,4,7,2,13,14,12,15,9,11,8,1,6,5,3"
14821,commdev-image-keyboard-response,500,1375982,learnblock2,464.59999990463257,img/planet8_right.png,8,Community 3,NA,TRUE,j,j,NA,NA,NA,1,6,"10,4,7,2,13,14,12,15,9,11,8,1,6,5,3"
14821,commdev-image-keyboard-response,501,1377237,learnblock2,509.89999997615814,img/planet6_right.png,6,Community 3,NA,TRUE,j,j,NA,NA,NA,1,6,"10,4,7,2,13,14,12,15,9,11,8,1,6,5,3"
14821,commdev-image-keyboard-response,502,1378489,learnblock2,465.6999999284744,img/planet1_right.png,1,Community 3,NA,TRUE,j,j,NA,NA,NA,1,6,"10,4,7,2,13,14,12,15,9,11,8,1,6,5,3"
14821,commdev-image-keyboard-response,503,1379755,learnblock2,566.2000000476837,img/planet3_left.png,3,Community 3,NA,TRUE,f,f,NA,NA,NA,1,6,"10,4,7,2,13,14,12,15,9,11,8,1,6,5,3"
14821,commdev-image-keyboard-response,504,1381010,learnblock2,756.8000000715256,img/planet6_left.png,6,Community 3,NA,TRUE,f,f,NA,NA,NA,1,6,"10,4,7,2,13,14,12,15,9,11,8,1,6,5,3"
14821,commdev-image-keyboard-response,505,1382263,learnblock2,720.8999999761581,img/planet3_left.png,3,Community 3,NA,TRUE,f,f,NA,NA,NA,1,6,"10,4,7,2,13,14,12,15,9,11,8,1,6,5,3"
14821,commdev-image-keyboard-response,506,1383523,learnblock2,639.8000000715256,img/planet6_left.png,6,Community 3,NA,TRUE,f,f,NA,NA,NA,1,6,"10,4,7,2,13,14,12,15,9,11,8,1,6,5,3"
14821,commdev-image-keyboard-response,507,1384779,learnblock2,835.3000000715256,img/planet8_right.png,8,Community 3,NA,TRUE,j,j,NA,NA,NA,1,6,"10,4,7,2,13,14,12,15,9,11,8,1,6,5,3"
14821,commdev-image-keyboard-response,508,1386045,learnblock2,801.8999999761581,img/planet3_left.png,3,Community 3,NA,TRUE,f,f,NA,NA,NA,1,6,"10,4,7,2,13,14,12,15,9,11,8,1,6,5,3"
14821,commdev-image-keyboard-response,509,1387309,learnblock2,633,img/planet6_right.png,6,Community 3,NA,TRUE,j,j,NA,NA,NA,1,6,"10,4,7,2,13,14,12,15,9,11,8,1,6,5,3"
14821,commdev-image-keyboard-response,510,1388562,learnblock2,628.6999999284744,img/planet1_right.png,1,Community 3,NA,TRUE,j,j,NA,NA,NA,1,6,"10,4,7,2,13,14,12,15,9,11,8,1,6,5,3"
14821,commdev-image-keyboard-response,511,1389817,learnblock2,501.5,img/planet3_right.png,3,Community 3,NA,TRUE,j,j,NA,NA,NA,1,6,"10,4,7,2,13,14,12,15,9,11,8,1,6,5,3"
14821,commdev-image-keyboard-response,512,1391074,learnblock2,525.9000000953674,img/planet8_left.png,8,Community 3,NA,TRUE,f,f,NA,NA,NA,1,6,"10,4,7,2,13,14,12,15,9,11,8,1,6,5,3"
14821,commdev-image-keyboard-response,513,1392327,learnblock2,548.5,img/planet6_right.png,6,Community 3,NA,TRUE,j,j,NA,NA,NA,1,6,"10,4,7,2,13,14,12,15,9,11,8,1,6,5,3"
14821,commdev-image-keyboard-response,514,1393586,learnblock2,565.0999999046326,img/planet8_right.png,8,Community 3,NA,TRUE,j,j,NA,NA,NA,1,6,"10,4,7,2,13,14,12,15,9,11,8,1,6,5,3"
14821,commdev-image-keyboard-response,515,1394841,learnblock2,512.3999999761581,img/planet3_left.png,3,Community 3,NA,TRUE,f,f,NA,NA,NA,1,6,"10,4,7,2,13,14,12,15,9,11,8,1,6,5,3"
14821,commdev-image-keyboard-response,516,1396092,learnblock2,749.7000000476837,img/planet8_left.png,8,Community 3,NA,FALSE,j,f,NA,NA,NA,1,6,"10,4,7,2,13,14,12,15,9,11,8,1,6,5,3"
14821,commdev-image-keyboard-response,517,1397349,learnblock2,586.8999999761581,img/planet13_right.png,13,Community 1,NA,FALSE,f,j,NA,NA,NA,1,6,"10,4,7,2,13,14,12,15,9,11,8,1,6,5,3"
14821,commdev-image-keyboard-response,518,1398604,learnblock2,588.8000000715256,img/planet8_right.png,8,Community 3,NA,TRUE,j,j,NA,NA,NA,1,6,"10,4,7,2,13,14,12,15,9,11,8,1,6,5,3"
14821,commdev-image-keyboard-response,519,1399855,learnblock2,503,img/planet6_right.png,6,Community 3,NA,TRUE,j,j,NA,NA,NA,1,6,"10,4,7,2,13,14,12,15,9,11,8,1,6,5,3"
14821,commdev-image-keyboard-response,520,1401117,learnblock2,444.7999999523163,img/planet8_right.png,8,Community 3,NA,TRUE,j,j,NA,NA,NA,1,6,"10,4,7,2,13,14,12,15,9,11,8,1,6,5,3"
14821,commdev-image-keyboard-response,521,1402384,learnblock2,587.8000000715256,img/planet13_right.png,13,Community 1,NA,TRUE,j,j,NA,NA,NA,1,6,"10,4,7,2,13,14,12,15,9,11,8,1,6,5,3"
14821,commdev-image-keyboard-response,522,1403640,learnblock2,635.5,img/planet4_right.png,4,Community 1,NA,FALSE,f,j,NA,NA,NA,1,6,"10,4,7,2,13,14,12,15,9,11,8,1,6,5,3"
14821,commdev-image-keyboard-response,523,1404892,learnblock2,628.5999999046326,img/planet10_right.png,10,Community 1,NA,TRUE,j,j,NA,NA,NA,1,6,"10,4,7,2,13,14,12,15,9,11,8,1,6,5,3"
14821,commdev-image-keyboard-response,524,1406148,learnblock2,565.8000000715256,img/planet7_left.png,7,Community 1,NA,TRUE,f,f,NA,NA,NA,1,6,"10,4,7,2,13,14,12,15,9,11,8,1,6,5,3"
14821,commdev-image-keyboard-response,525,1407400,learnblock2,531.1999999284744,img/planet4_right.png,4,Community 1,NA,TRUE,j,j,NA,NA,NA,1,6,"10,4,7,2,13,14,12,15,9,11,8,1,6,5,3"
14821,commdev-image-keyboard-response,526,1408654,learnblock2,843.6000000238419,img/planet7_right.png,7,Community 1,NA,TRUE,j,j,NA,NA,NA,1,6,"10,4,7,2,13,14,12,15,9,11,8,1,6,5,3"
14821,commdev-image-keyboard-response,527,1409909,learnblock2,564,img/planet4_right.png,4,Community 1,NA,TRUE,j,j,NA,NA,NA,1,6,"10,4,7,2,13,14,12,15,9,11,8,1,6,5,3"
14821,commdev-image-keyboard-response,528,1411165,learnblock2,532.6000000238419,img/planet2_left.png,2,Community 1,NA,TRUE,f,f,NA,NA,NA,1,6,"10,4,7,2,13,14,12,15,9,11,8,1,6,5,3"
14821,commdev-image-keyboard-response,529,1412421,learnblock2,591.6000000238419,img/planet7_left.png,7,Community 1,NA,TRUE,f,f,NA,NA,NA,1,6,"10,4,7,2,13,14,12,15,9,11,8,1,6,5,3"
14821,commdev-image-keyboard-response,530,1413673,learnblock2,498.7000000476837,img/planet10_left.png,10,Community 1,NA,TRUE,f,f,NA,NA,NA,1,6,"10,4,7,2,13,14,12,15,9,11,8,1,6,5,3"
14821,commdev-image-keyboard-response,531,1414930,learnblock2,506.10000002384186,img/planet2_left.png,2,Community 1,NA,TRUE,f,f,NA,NA,NA,1,6,"10,4,7,2,13,14,12,15,9,11,8,1,6,5,3"
14821,commdev-image-keyboard-response,532,1416190,learnblock2,506.3000000715256,img/planet4_left.png,4,Community 1,NA,TRUE,f,f,NA,NA,NA,1,6,"10,4,7,2,13,14,12,15,9,11,8,1,6,5,3"
14821,commdev-image-keyboard-response,533,1417443,learnblock2,629.2000000476837,img/planet7_left.png,7,Community 1,NA,TRUE,f,f,NA,NA,NA,1,6,"10,4,7,2,13,14,12,15,9,11,8,1,6,5,3"
14821,commdev-image-keyboard-response,534,1418697,learnblock2,463.5,img/planet10_left.png,10,Community 1,NA,TRUE,f,f,NA,NA,NA,1,6,"10,4,7,2,13,14,12,15,9,11,8,1,6,5,3"
14821,commdev-image-keyboard-response,535,1419952,learnblock2,443.40000009536743,img/planet2_left.png,2,Community 1,NA,TRUE,f,f,NA,NA,NA,1,6,"10,4,7,2,13,14,12,15,9,11,8,1,6,5,3"
14821,commdev-image-keyboard-response,536,1421208,learnblock2,728.5,img/planet4_right.png,4,Community 1,NA,TRUE,j,j,NA,NA,NA,1,6,"10,4,7,2,13,14,12,15,9,11,8,1,6,5,3"
14821,commdev-image-keyboard-response,537,1422467,learnblock2,683.8999999761581,img/planet7_left.png,7,Community 1,NA,TRUE,f,f,NA,NA,NA,1,6,"10,4,7,2,13,14,12,15,9,11,8,1,6,5,3"
14821,commdev-image-keyboard-response,538,1423725,learnblock2,554.8000000715256,img/planet2_right.png,2,Community 1,NA,TRUE,j,j,NA,NA,NA,1,6,"10,4,7,2,13,14,12,15,9,11,8,1,6,5,3"
14821,commdev-image-keyboard-response,539,1424980,learnblock2,633.1999999284744,img/planet14_right.png,14,Community 2,NA,TRUE,j,j,NA,NA,NA,1,6,"10,4,7,2,13,14,12,15,9,11,8,1,6,5,3"
14821,commdev-image-keyboard-response,540,1426234,learnblock2,590.1000000238419,img/planet9_left.png,9,Community 2,NA,TRUE,f,f,NA,NA,NA,1,6,"10,4,7,2,13,14,12,15,9,11,8,1,6,5,3"
14821,commdev-image-keyboard-response,541,1427489,learnblock2,658.5,img/planet11_right.png,11,Community 2,NA,TRUE,j,j,NA,NA,NA,1,6,"10,4,7,2,13,14,12,15,9,11,8,1,6,5,3"
14821,commdev-image-keyboard-response,542,1428747,learnblock2,651.1000000238419,img/planet14_left.png,14,Community 2,NA,TRUE,f,f,NA,NA,NA,1,6,"10,4,7,2,13,14,12,15,9,11,8,1,6,5,3"
14821,commdev-image-keyboard-response,543,1430011,learnblock2,576.1999999284744,img/planet9_right.png,9,Community 2,NA,TRUE,j,j,NA,NA,NA,1,6,"10,4,7,2,13,14,12,15,9,11,8,1,6,5,3"
14821,commdev-image-keyboard-response,544,1431271,learnblock2,567.5,img/planet15_right.png,15,Community 2,NA,FALSE,f,j,NA,NA,NA,1,6,"10,4,7,2,13,14,12,15,9,11,8,1,6,5,3"
14821,commdev-image-keyboard-response,545,1432528,learnblock2,648.2000000476837,img/planet12_left.png,12,Community 2,NA,TRUE,f,f,NA,NA,NA,1,6,"10,4,7,2,13,14,12,15,9,11,8,1,6,5,3"
14821,commdev-image-keyboard-response,546,1433781,learnblock2,517.6000000238419,img/planet15_right.png,15,Community 2,NA,TRUE,j,j,NA,NA,NA,1,6,"10,4,7,2,13,14,12,15,9,11,8,1,6,5,3"
14821,commdev-image-keyboard-response,547,1435035,learnblock2,687.1000000238419,img/planet9_left.png,9,Community 2,NA,TRUE,f,f,NA,NA,NA,1,6,"10,4,7,2,13,14,12,15,9,11,8,1,6,5,3"
14821,commdev-image-keyboard-response,548,1436289,learnblock2,639.6000000238419,img/planet11_left.png,11,Community 2,NA,TRUE,f,f,NA,NA,NA,1,6,"10,4,7,2,13,14,12,15,9,11,8,1,6,5,3"
14821,commdev-image-keyboard-response,549,1437552,learnblock2,533.5,img/planet12_right.png,12,Community 2,NA,TRUE,j,j,NA,NA,NA,1,6,"10,4,7,2,13,14,12,15,9,11,8,1,6,5,3"
14821,commdev-image-keyboard-response,550,1438811,learnblock2,570.1000000238419,img/planet14_right.png,14,Community 2,NA,TRUE,j,j,NA,NA,NA,1,6,"10,4,7,2,13,14,12,15,9,11,8,1,6,5,3"
14821,commdev-image-keyboard-response,551,1440063,learnblock2,617.2000000476837,img/planet11_right.png,11,Community 2,NA,TRUE,j,j,NA,NA,NA,1,6,"10,4,7,2,13,14,12,15,9,11,8,1,6,5,3"
14821,commdev-image-keyboard-response,552,1441315,learnblock2,629,img/planet14_left.png,14,Community 2,NA,TRUE,f,f,NA,NA,NA,1,6,"10,4,7,2,13,14,12,15,9,11,8,1,6,5,3"
14821,commdev-image-keyboard-response,553,1442567,learnblock2,657.3000000715256,img/planet11_left.png,11,Community 2,NA,TRUE,f,f,NA,NA,NA,1,6,"10,4,7,2,13,14,12,15,9,11,8,1,6,5,3"
14821,commdev-image-keyboard-response,554,1443819,learnblock2,541.6999999284744,img/planet12_right.png,12,Community 2,NA,TRUE,j,j,NA,NA,NA,1,6,"10,4,7,2,13,14,12,15,9,11,8,1,6,5,3"
14821,commdev-image-keyboard-response,555,1445077,learnblock2,639.2999999523163,img/planet11_left.png,11,Community 2,NA,TRUE,f,f,NA,NA,NA,1,6,"10,4,7,2,13,14,12,15,9,11,8,1,6,5,3"
14821,commdev-image-keyboard-response,556,1446335,learnblock2,806.6999999284744,img/planet12_left.png,12,Community 2,NA,TRUE,f,f,NA,NA,NA,1,6,"10,4,7,2,13,14,12,15,9,11,8,1,6,5,3"
14821,commdev-image-keyboard-response,557,1447588,learnblock2,637.5999999046326,img/planet9_right.png,9,Community 2,NA,TRUE,j,j,NA,NA,NA,1,6,"10,4,7,2,13,14,12,15,9,11,8,1,6,5,3"
14821,commdev-image-keyboard-response,558,1448842,learnblock2,684.2999999523163,img/planet12_left.png,12,Community 2,NA,TRUE,f,f,NA,NA,NA,1,6,"10,4,7,2,13,14,12,15,9,11,8,1,6,5,3"
14821,commdev-image-keyboard-response,559,1450099,learnblock2,638.6000000238419,img/planet14_right.png,14,Community 2,NA,TRUE,j,j,NA,NA,NA,1,6,"10,4,7,2,13,14,12,15,9,11,8,1,6,5,3"
14821,commdev-image-keyboard-response,560,1451353,learnblock2,511.60000002384186,img/planet11_left.png,11,Community 2,NA,TRUE,f,f,NA,NA,NA,1,6,"10,4,7,2,13,14,12,15,9,11,8,1,6,5,3"
14821,commdev-image-keyboard-response,561,1452610,learnblock2,786.1000000238419,img/planet12_right.png,12,Community 2,NA,TRUE,j,j,NA,NA,NA,1,6,"10,4,7,2,13,14,12,15,9,11,8,1,6,5,3"
14821,commdev-image-keyboard-response,562,1453868,learnblock2,731,img/planet15_right.png,15,Community 2,NA,TRUE,j,j,NA,NA,NA,1,6,"10,4,7,2,13,14,12,15,9,11,8,1,6,5,3"
14821,commdev-image-keyboard-response,563,1455121,learnblock2,622.6000000238419,img/planet1_left.png,1,Community 3,NA,TRUE,f,f,NA,NA,NA,1,6,"10,4,7,2,13,14,12,15,9,11,8,1,6,5,3"
14821,commdev-image-keyboard-response,564,1456375,learnblock2,633.3999999761581,img/planet5_left.png,5,Community 3,NA,TRUE,f,f,NA,NA,NA,1,6,"10,4,7,2,13,14,12,15,9,11,8,1,6,5,3"
14821,commdev-image-keyboard-response,565,1457639,learnblock2,604.4000000953674,img/planet1_right.png,1,Community 3,NA,TRUE,j,j,NA,NA,NA,1,6,"10,4,7,2,13,14,12,15,9,11,8,1,6,5,3"
14821,commdev-image-keyboard-response,566,1458899,learnblock2,639.5,img/planet3_right.png,3,Community 3,NA,TRUE,j,j,NA,NA,NA,1,6,"10,4,7,2,13,14,12,15,9,11,8,1,6,5,3"
14821,commdev-image-keyboard-response,567,1460156,learnblock2,545.1999999284744,img/planet1_right.png,1,Community 3,NA,TRUE,j,j,NA,NA,NA,1,6,"10,4,7,2,13,14,12,15,9,11,8,1,6,5,3"
14821,commdev-image-keyboard-response,568,1461411,learnblock2,520.8999999761581,img/planet5_right.png,5,Community 3,NA,TRUE,j,j,NA,NA,NA,1,6,"10,4,7,2,13,14,12,15,9,11,8,1,6,5,3"
14821,commdev-image-keyboard-response,569,1462671,learnblock2,480,img/planet1_right.png,1,Community 3,NA,TRUE,j,j,NA,NA,NA,1,6,"10,4,7,2,13,14,12,15,9,11,8,1,6,5,3"
14821,commdev-image-keyboard-response,570,1463924,learnblock2,428,img/planet3_left.png,3,Community 3,NA,FALSE,j,f,NA,NA,NA,1,6,"10,4,7,2,13,14,12,15,9,11,8,1,6,5,3"
14821,commdev-image-keyboard-response,571,1465179,learnblock2,823,img/planet5_right.png,5,Community 3,NA,TRUE,j,j,NA,NA,NA,1,6,"10,4,7,2,13,14,12,15,9,11,8,1,6,5,3"
14821,commdev-image-keyboard-response,572,1466434,learnblock2,697.2000000476837,img/planet3_right.png,3,Community 3,NA,TRUE,j,j,NA,NA,NA,1,6,"10,4,7,2,13,14,12,15,9,11,8,1,6,5,3"
14821,commdev-image-keyboard-response,573,1467701,learnblock2,598.2999999523163,img/planet8_left.png,8,Community 3,NA,TRUE,f,f,NA,NA,NA,1,6,"10,4,7,2,13,14,12,15,9,11,8,1,6,5,3"
14821,commdev-image-keyboard-response,574,1468961,learnblock2,733.1000000238419,img/planet3_left.png,3,Community 3,NA,TRUE,f,f,NA,NA,NA,1,6,"10,4,7,2,13,14,12,15,9,11,8,1,6,5,3"
14821,commdev-image-keyboard-response,575,1470218,learnblock2,1218.3999999761581,img/planet5_right.png,5,Community 3,NA,FALSE,f,j,NA,NA,NA,1,6,"10,4,7,2,13,14,12,15,9,11,8,1,6,5,3"
14821,commdev-image-keyboard-response,576,1471479,learnblock2,862.7000000476837,img/planet8_left.png,8,Community 3,NA,TRUE,f,f,NA,NA,NA,1,6,"10,4,7,2,13,14,12,15,9,11,8,1,6,5,3"
14821,commdev-image-keyboard-response,577,1472742,learnblock2,493.8000000715256,img/planet3_right.png,3,Community 3,NA,TRUE,j,j,NA,NA,NA,1,6,"10,4,7,2,13,14,12,15,9,11,8,1,6,5,3"
14821,commdev-image-keyboard-response,578,1473998,learnblock2,622.2999999523163,img/planet6_right.png,6,Community 3,NA,TRUE,j,j,NA,NA,NA,1,6,"10,4,7,2,13,14,12,15,9,11,8,1,6,5,3"
14821,commdev-image-keyboard-response,579,1475252,learnblock2,615.6000000238419,img/planet8_left.png,8,Community 3,NA,TRUE,f,f,NA,NA,NA,1,6,"10,4,7,2,13,14,12,15,9,11,8,1,6,5,3"
14821,commdev-image-keyboard-response,580,1476511,learnblock2,723.6000000238419,img/planet3_left.png,3,Community 3,NA,TRUE,f,f,NA,NA,NA,1,6,"10,4,7,2,13,14,12,15,9,11,8,1,6,5,3"
14821,commdev-image-keyboard-response,581,1477765,learnblock2,707,img/planet1_left.png,1,Community 3,NA,TRUE,f,f,NA,NA,NA,1,6,"10,4,7,2,13,14,12,15,9,11,8,1,6,5,3"
14821,commdev-image-keyboard-response,582,1479021,learnblock2,662.5,img/planet15_left.png,15,Community 2,NA,TRUE,f,f,NA,NA,NA,1,6,"10,4,7,2,13,14,12,15,9,11,8,1,6,5,3"
14821,commdev-image-keyboard-response,583,1480277,learnblock2,451.7000000476837,img/planet12_right.png,12,Community 2,NA,TRUE,j,j,NA,NA,NA,1,6,"10,4,7,2,13,14,12,15,9,11,8,1,6,5,3"
14821,commdev-image-keyboard-response,584,1481537,learnblock2,456.89999997615814,img/planet11_right.png,11,Community 2,NA,FALSE,f,j,NA,NA,NA,1,6,"10,4,7,2,13,14,12,15,9,11,8,1,6,5,3"
14821,commdev-image-keyboard-response,585,1482795,learnblock2,801.8000000715256,img/planet12_right.png,12,Community 2,NA,TRUE,j,j,NA,NA,NA,1,6,"10,4,7,2,13,14,12,15,9,11,8,1,6,5,3"
14821,commdev-image-keyboard-response,586,1484049,learnblock2,676.5,img/planet9_right.png,9,Community 2,NA,TRUE,j,j,NA,NA,NA,1,6,"10,4,7,2,13,14,12,15,9,11,8,1,6,5,3"
14821,commdev-image-keyboard-response,587,1485308,learnblock2,820,img/planet14_left.png,14,Community 2,NA,TRUE,f,f,NA,NA,NA,1,6,"10,4,7,2,13,14,12,15,9,11,8,1,6,5,3"
14821,commdev-image-keyboard-response,588,1486563,learnblock2,823.2999999523163,img/planet12_left.png,12,Community 2,NA,TRUE,f,f,NA,NA,NA,1,6,"10,4,7,2,13,14,12,15,9,11,8,1,6,5,3"
14821,commdev-image-keyboard-response,589,1487825,learnblock2,778.1000000238419,img/planet9_left.png,9,Community 2,NA,TRUE,f,f,NA,NA,NA,1,6,"10,4,7,2,13,14,12,15,9,11,8,1,6,5,3"
14821,commdev-image-keyboard-response,590,1489080,learnblock2,819.1000000238419,img/planet14_right.png,14,Community 2,NA,TRUE,j,j,NA,NA,NA,1,6,"10,4,7,2,13,14,12,15,9,11,8,1,6,5,3"
14821,commdev-image-keyboard-response,591,1490333,learnblock2,1017.5,img/planet9_right.png,9,Community 2,NA,TRUE,j,j,NA,NA,NA,1,6,"10,4,7,2,13,14,12,15,9,11,8,1,6,5,3"
14821,commdev-image-keyboard-response,592,1491586,learnblock2,662.3999999761581,img/planet11_right.png,11,Community 2,NA,TRUE,j,j,NA,NA,NA,1,6,"10,4,7,2,13,14,12,15,9,11,8,1,6,5,3"
14821,commdev-image-keyboard-response,593,1492840,learnblock2,674.1000000238419,img/planet14_right.png,14,Community 2,NA,FALSE,f,j,NA,NA,NA,1,6,"10,4,7,2,13,14,12,15,9,11,8,1,6,5,3"
14821,commdev-image-keyboard-response,594,1494100,learnblock2,478.89999997615814,img/planet11_right.png,11,Community 2,NA,TRUE,j,j,NA,NA,NA,1,6,"10,4,7,2,13,14,12,15,9,11,8,1,6,5,3"
14821,commdev-image-keyboard-response,595,1495351,learnblock2,577.2000000476837,img/planet15_right.png,15,Community 2,NA,TRUE,j,j,NA,NA,NA,1,6,"10,4,7,2,13,14,12,15,9,11,8,1,6,5,3"
14821,commdev-image-keyboard-response,596,1496605,learnblock2,490.5,img/planet9_right.png,9,Community 2,NA,TRUE,j,j,NA,NA,NA,1,6,"10,4,7,2,13,14,12,15,9,11,8,1,6,5,3"
14821,commdev-image-keyboard-response,597,1497856,learnblock2,569.1000000238419,img/planet12_right.png,12,Community 2,NA,TRUE,j,j,NA,NA,NA,1,6,"10,4,7,2,13,14,12,15,9,11,8,1,6,5,3"
14821,commdev-image-keyboard-response,598,1499111,learnblock2,588.2000000476837,img/planet14_right.png,14,Community 2,NA,TRUE,j,j,NA,NA,NA,1,6,"10,4,7,2,13,14,12,15,9,11,8,1,6,5,3"
14821,commdev-image-keyboard-response,599,1500366,learnblock2,467.1999999284744,img/planet2_right.png,2,Community 1,NA,TRUE,j,j,NA,NA,NA,1,6,"10,4,7,2,13,14,12,15,9,11,8,1,6,5,3"
14821,commdev-image-keyboard-response,600,1501629,learnblock2,545.5,img/planet14_right.png,14,Community 2,NA,TRUE,j,j,NA,NA,NA,1,6,"10,4,7,2,13,14,12,15,9,11,8,1,6,5,3"
14821,commdev-image-keyboard-response,601,1502888,learnblock2,414.6999999284744,img/planet2_right.png,2,Community 1,NA,TRUE,j,j,NA,NA,NA,1,6,"10,4,7,2,13,14,12,15,9,11,8,1,6,5,3"
14821,commdev-image-keyboard-response,602,1504146,learnblock2,621.6999999284744,img/planet7_right.png,7,Community 1,NA,TRUE,j,j,NA,NA,NA,1,6,"10,4,7,2,13,14,12,15,9,11,8,1,6,5,3"
14821,commdev-image-keyboard-response,603,1505405,learnblock2,536.7000000476837,img/planet10_right.png,10,Community 1,NA,TRUE,j,j,NA,NA,NA,1,6,"10,4,7,2,13,14,12,15,9,11,8,1,6,5,3"
14821,commdev-image-keyboard-response,604,1506691,learnblock2,706.5,img/planet7_left.png,7,Community 1,NA,TRUE,f,f,NA,NA,NA,1,6,"10,4,7,2,13,14,12,15,9,11,8,1,6,5,3"
14821,commdev-image-keyboard-response,605,1507951,learnblock2,604.5,img/planet13_right.png,13,Community 1,NA,TRUE,j,j,NA,NA,NA,1,6,"10,4,7,2,13,14,12,15,9,11,8,1,6,5,3"
14821,commdev-image-keyboard-response,606,1509204,learnblock2,840.1000000238419,img/planet7_right.png,7,Community 1,NA,TRUE,j,j,NA,NA,NA,1,6,"10,4,7,2,13,14,12,15,9,11,8,1,6,5,3"
14821,commdev-image-keyboard-response,607,1510457,learnblock2,657.5,img/planet2_right.png,2,Community 1,NA,TRUE,j,j,NA,NA,NA,1,6,"10,4,7,2,13,14,12,15,9,11,8,1,6,5,3"
14821,commdev-image-keyboard-response,608,1511715,learnblock2,485.1999999284744,img/planet4_left.png,4,Community 1,NA,FALSE,j,f,NA,NA,NA,1,6,"10,4,7,2,13,14,12,15,9,11,8,1,6,5,3"
14821,commdev-image-keyboard-response,609,1512969,learnblock2,593.8000000715256,img/planet10_left.png,10,Community 1,NA,TRUE,f,f,NA,NA,NA,1,6,"10,4,7,2,13,14,12,15,9,11,8,1,6,5,3"
14821,commdev-image-keyboard-response,610,1514225,learnblock2,587.5,img/planet2_right.png,2,Community 1,NA,TRUE,j,j,NA,NA,NA,1,6,"10,4,7,2,13,14,12,15,9,11,8,1,6,5,3"
14821,commdev-image-keyboard-response,611,1515483,learnblock2,629.8000000715256,img/planet10_left.png,10,Community 1,NA,TRUE,f,f,NA,NA,NA,1,6,"10,4,7,2,13,14,12,15,9,11,8,1,6,5,3"
14821,commdev-image-keyboard-response,612,1516736,learnblock2,746,img/planet4_left.png,4,Community 1,NA,TRUE,f,f,NA,NA,NA,1,6,"10,4,7,2,13,14,12,15,9,11,8,1,6,5,3"
14821,commdev-image-keyboard-response,613,1517994,learnblock2,580.7000000476837,img/planet7_right.png,7,Community 1,NA,FALSE,f,j,NA,NA,NA,1,6,"10,4,7,2,13,14,12,15,9,11,8,1,6,5,3"
14821,commdev-image-keyboard-response,614,1519253,learnblock2,858.5,img/planet4_left.png,4,Community 1,NA,TRUE,f,f,NA,NA,NA,1,6,"10,4,7,2,13,14,12,15,9,11,8,1,6,5,3"
14821,commdev-image-keyboard-response,615,1520511,learnblock2,614.6000000238419,img/planet2_left.png,2,Community 1,NA,TRUE,f,f,NA,NA,NA,1,6,"10,4,7,2,13,14,12,15,9,11,8,1,6,5,3"
14821,commdev-image-keyboard-response,616,1521766,learnblock2,552.6000000238419,img/planet10_right.png,10,Community 1,NA,TRUE,j,j,NA,NA,NA,1,6,"10,4,7,2,13,14,12,15,9,11,8,1,6,5,3"
14821,commdev-image-keyboard-response,617,1523025,learnblock2,573.8999999761581,img/planet2_right.png,2,Community 1,NA,TRUE,j,j,NA,NA,NA,1,6,"10,4,7,2,13,14,12,15,9,11,8,1,6,5,3"
14821,commdev-image-keyboard-response,618,1524279,learnblock2,507.1999999284744,img/planet14_right.png,14,Community 2,NA,TRUE,j,j,NA,NA,NA,1,6,"10,4,7,2,13,14,12,15,9,11,8,1,6,5,3"
14821,commdev-image-keyboard-response,619,1525538,learnblock2,532.7999999523163,img/planet2_left.png,2,Community 1,NA,TRUE,f,f,NA,NA,NA,1,6,"10,4,7,2,13,14,12,15,9,11,8,1,6,5,3"
14821,commdev-image-keyboard-response,620,1526796,learnblock2,550.2000000476837,img/planet7_right.png,7,Community 1,NA,TRUE,j,j,NA,NA,NA,1,6,"10,4,7,2,13,14,12,15,9,11,8,1,6,5,3"
14821,commdev-image-keyboard-response,621,1528051,learnblock2,584.3999999761581,img/planet13_right.png,13,Community 1,NA,TRUE,j,j,NA,NA,NA,1,6,"10,4,7,2,13,14,12,15,9,11,8,1,6,5,3"
14821,commdev-image-keyboard-response,622,1529310,learnblock2,528.7999999523163,img/planet4_right.png,4,Community 1,NA,FALSE,f,j,NA,NA,NA,1,6,"10,4,7,2,13,14,12,15,9,11,8,1,6,5,3"
14821,commdev-image-keyboard-response,623,1530565,learnblock2,761.8999999761581,img/planet7_right.png,7,Community 1,NA,TRUE,j,j,NA,NA,NA,1,6,"10,4,7,2,13,14,12,15,9,11,8,1,6,5,3"
14821,commdev-image-keyboard-response,624,1531830,learnblock2,547.7999999523163,img/planet2_left.png,2,Community 1,NA,TRUE,f,f,NA,NA,NA,1,6,"10,4,7,2,13,14,12,15,9,11,8,1,6,5,3"
14821,commdev-image-keyboard-response,625,1533084,learnblock2,507.60000002384186,img/planet7_left.png,7,Community 1,NA,TRUE,f,f,NA,NA,NA,1,6,"10,4,7,2,13,14,12,15,9,11,8,1,6,5,3"
14821,commdev-image-keyboard-response,626,1534342,learnblock2,577.2000000476837,img/planet10_left.png,10,Community 1,NA,TRUE,f,f,NA,NA,NA,1,6,"10,4,7,2,13,14,12,15,9,11,8,1,6,5,3"
14821,commdev-image-keyboard-response,627,1535596,learnblock2,450.60000002384186,img/planet7_left.png,7,Community 1,NA,TRUE,f,f,NA,NA,NA,1,6,"10,4,7,2,13,14,12,15,9,11,8,1,6,5,3"
14821,commdev-image-keyboard-response,628,1536857,learnblock2,520.6000000238419,img/planet10_left.png,10,Community 1,NA,TRUE,f,f,NA,NA,NA,1,6,"10,4,7,2,13,14,12,15,9,11,8,1,6,5,3"
14821,commdev-image-keyboard-response,629,1538122,learnblock2,498,img/planet13_left.png,13,Community 1,NA,TRUE,f,f,NA,NA,NA,1,6,"10,4,7,2,13,14,12,15,9,11,8,1,6,5,3"
14821,commdev-image-keyboard-response,630,1539388,learnblock2,645.1000000238419,img/planet7_right.png,7,Community 1,NA,TRUE,j,j,NA,NA,NA,1,6,"10,4,7,2,13,14,12,15,9,11,8,1,6,5,3"
14821,commdev-image-keyboard-response,631,1540640,learnblock2,767.8999999761581,img/planet10_right.png,10,Community 1,NA,FALSE,f,j,NA,NA,NA,1,6,"10,4,7,2,13,14,12,15,9,11,8,1,6,5,3"
14821,commdev-image-keyboard-response,632,1541898,learnblock2,1129.8999999761581,img/planet4_right.png,4,Community 1,NA,FALSE,f,j,NA,NA,NA,1,6,"10,4,7,2,13,14,12,15,9,11,8,1,6,5,3"
14821,commdev-image-keyboard-response,633,1543154,learnblock2,1020.8000000715256,img/planet7_left.png,7,Community 1,NA,TRUE,f,f,NA,NA,NA,1,6,"10,4,7,2,13,14,12,15,9,11,8,1,6,5,3"
14821,commdev-image-keyboard-response,634,1544419,learnblock2,536.6000000238419,img/planet2_right.png,2,Community 1,NA,TRUE,j,j,NA,NA,NA,1,6,"10,4,7,2,13,14,12,15,9,11,8,1,6,5,3"
14821,commdev-image-keyboard-response,635,1545676,learnblock2,663.5,img/planet10_right.png,10,Community 1,NA,TRUE,j,j,NA,NA,NA,1,6,"10,4,7,2,13,14,12,15,9,11,8,1,6,5,3"
14821,commdev-image-keyboard-response,636,1546933,learnblock2,665.8999999761581,img/planet4_right.png,4,Community 1,NA,TRUE,j,j,NA,NA,NA,1,6,"10,4,7,2,13,14,12,15,9,11,8,1,6,5,3"
14821,commdev-image-keyboard-response,637,1548188,learnblock2,548.6999999284744,img/planet10_left.png,10,Community 1,NA,TRUE,f,f,NA,NA,NA,1,6,"10,4,7,2,13,14,12,15,9,11,8,1,6,5,3"
14821,commdev-image-keyboard-response,638,1549450,learnblock2,548.7999999523163,img/planet4_right.png,4,Community 1,NA,TRUE,j,j,NA,NA,NA,1,6,"10,4,7,2,13,14,12,15,9,11,8,1,6,5,3"
14821,commdev-image-keyboard-response,639,1550708,learnblock2,611.8999999761581,img/planet13_left.png,13,Community 1,NA,TRUE,f,f,NA,NA,NA,1,6,"10,4,7,2,13,14,12,15,9,11,8,1,6,5,3"
14821,commdev-image-keyboard-response,640,1551961,learnblock2,1044.6000000238419,img/planet4_left.png,4,Community 1,NA,TRUE,f,f,NA,NA,NA,1,6,"10,4,7,2,13,14,12,15,9,11,8,1,6,5,3"
14821,commdev-image-keyboard-response,641,1553224,learnblock2,583.0999999046326,img/planet7_left.png,7,Community 1,NA,TRUE,f,f,NA,NA,NA,1,6,"10,4,7,2,13,14,12,15,9,11,8,1,6,5,3"
14821,commdev-image-keyboard-response,642,1554482,learnblock2,543.8999999761581,img/planet10_left.png,10,Community 1,NA,TRUE,f,f,NA,NA,NA,1,6,"10,4,7,2,13,14,12,15,9,11,8,1,6,5,3"
14821,commdev-image-keyboard-response,643,1555739,learnblock2,479.59999990463257,img/planet2_right.png,2,Community 1,NA,TRUE,j,j,NA,NA,NA,1,6,"10,4,7,2,13,14,12,15,9,11,8,1,6,5,3"
14821,commdev-image-keyboard-response,644,1556998,learnblock2,580.6000000238419,img/planet7_right.png,7,Community 1,NA,TRUE,j,j,NA,NA,NA,1,6,"10,4,7,2,13,14,12,15,9,11,8,1,6,5,3"
14821,commdev-image-keyboard-response,645,1558253,learnblock2,641.7000000476837,img/planet4_right.png,4,Community 1,NA,TRUE,j,j,NA,NA,NA,1,6,"10,4,7,2,13,14,12,15,9,11,8,1,6,5,3"
14821,commdev-image-keyboard-response,646,1559505,learnblock2,601.1000000238419,img/planet2_left.png,2,Community 1,NA,TRUE,f,f,NA,NA,NA,1,6,"10,4,7,2,13,14,12,15,9,11,8,1,6,5,3"
