subject_id,trial_type,trial_index,time_elapsed,block,rt,stimulus,planet,community,response,correct,key_press,learning_correct_response,parse,init_locations,final_locations,browser_interactions,num_comp,planet_map
15011,commdev-instructions,7,105060,NA,1968.3000000715256,"<p>In this game, you will be shown a 3x3 grid of patterns.</p> <p>The last one in the bottom right-hand corner, <strong>will be missing:</strong></p> <div style='width: 700px;'><div style='float: top;'><img style='width: 200px;' src='practice/p1_M1.png'></img><p class='small'>You need to select<strong> which of the four possible patterns </strong>along the bottom<strong> fits into the gap:</strong></p></div><div style='float: top;'><img style='width: 300px;' src='practice/p1_T1.png'></img></div><br>",NA,NA,NA,NA,NA,NA,NA,NA,NA,4,6,"6,7,9,4,12,1,14,2,3,10,11,8,13,15,5"
15011,commdev-instructions,8,124246,NA,1237.6000000238419,"<p>Try to be as fast and as accurate as you can be.</p> <p>If you cannot solve the puzzle then you should guess - you will not be penalised for an incorrect answer.</p> <p>The task contains a shuffled mix of easy, medium and hard puzzles.</p> <p>You will have <strong>30 seconds</strong> to complete each puzzle.</p><br>",NA,NA,NA,NA,NA,NA,NA,NA,NA,4,6,"6,7,9,4,12,1,14,2,3,10,11,8,13,15,5"
15011,commdev-instructions,15,157872,NA,1289.6000000238419,<p><strong>Success!</strong></p> <p>You seem to be getting the hang of this...</p> <p>Let's move on to the real trials.</p><br>,NA,NA,NA,NA,NA,NA,NA,NA,NA,4,6,"6,7,9,4,12,1,14,2,3,10,11,8,13,15,5"
15011,commdev-instructions,69,652135,NA,1967.8999999761581,"<p>In this game, you are a scientist on board a space shuttle. </p><p> On each mission, you will visit planets all across the universe.</p><img src=""img/controlroom.jpg"" width=300vw>",NA,NA,NA,NA,NA,NA,NA,NA,NA,4,6,"6,7,9,4,12,1,14,2,3,10,11,8,13,15,5"
15011,commdev-instructions,70,655667,NA,1441.7000000476837,"<p>Here are a few planets you might see:</p><img src=""img/practice1.png"" width=200vw><img src=""img/practice2.png"" width=200vw><img src=""img/practice3.png"" width=200vw>",NA,NA,NA,NA,NA,NA,NA,NA,NA,4,6,"6,7,9,4,12,1,14,2,3,10,11,8,13,15,5"
15011,commdev-instructions,71,664382,NA,1308.5,"<p>Your job as a scientist is to record which direction the winds are moving on each planet.</p><p>There are two types of wind directions:</p><img src=""img/practice1_left.png"" width=200vw><img src=""img/practice1_right.png"" width=200vw>",NA,NA,NA,NA,NA,NA,NA,NA,NA,4,6,"6,7,9,4,12,1,14,2,3,10,11,8,13,15,5"
15011,commdev-instructions,72,671455,NA,2173.7000000476837,"<p>If the winds are moving this way, press the letter <strong>F</strong> on the keyboard as fast as you can.</p><img src=""img/leftwind.png"" width=250vw>",NA,NA,NA,NA,NA,NA,NA,NA,NA,4,6,"6,7,9,4,12,1,14,2,3,10,11,8,13,15,5"
15011,commdev-instructions,73,678789,NA,2830.2000000476837,"<p>If the winds are moving this way, press the letter <strong>J</strong> on the keyboard as fast as you can.</p><img src=""img/rightwind.png"" width=350vw>",NA,NA,NA,NA,NA,NA,NA,NA,NA,4,6,"6,7,9,4,12,1,14,2,3,10,11,8,13,15,5"
15011,commdev-instructions,74,685086,NA,1863.6000000238419,<p>You will have 1 second to respond. Try to respond before the time runs out!,NA,NA,NA,NA,NA,NA,NA,NA,NA,4,6,"6,7,9,4,12,1,14,2,3,10,11,8,13,15,5"
15011,commdev-instructions,75,691674,NA,1133.5,<p>The planets you will visit will look different from each other.</p><p>You should respond <strong>only</strong> based on wind direction.,NA,NA,NA,NA,NA,NA,NA,NA,NA,4,6,"6,7,9,4,12,1,14,2,3,10,11,8,13,15,5"
15011,commdev-instructions,76,701380,NA,4530.200000047684,"<p> Ready to start the practice round? </p><p> Remember, press <strong>F</strong> or <strong>J</strong> depending on the wind direction.<br><img src=""img/categorize_planet_example.png""",NA,NA,NA,NA,NA,NA,NA,NA,NA,4,6,"6,7,9,4,12,1,14,2,3,10,11,8,13,15,5"
15011,commdev-instructions,88,761135,NA,918.2999999523163,"<p>Great, now try a short practice mission. </p><p> This time, you will have 1 second to respond and you won't know whether you pressed the right or wrong key for each planet.</p>",NA,NA,NA,NA,NA,NA,NA,NA,NA,4,6,"6,7,9,4,12,1,14,2,3,10,11,8,13,15,5"
15011,commdev-image-keyboard-response,89,762513,practice,1047.2000000476837,img/practice1_right.png,NA,Number not found in mappings,NA,TRUE,j,j,NA,NA,NA,4,6,"6,7,9,4,12,1,14,2,3,10,11,8,13,15,5"
15011,commdev-image-keyboard-response,90,763768,practice,868.8999999761581,img/practice2_left.png,NA,Number not found in mappings,NA,TRUE,f,f,NA,NA,NA,4,6,"6,7,9,4,12,1,14,2,3,10,11,8,13,15,5"
15011,commdev-image-keyboard-response,91,765035,practice,580.5,img/practice1_left.png,NA,Number not found in mappings,NA,FALSE,j,f,NA,NA,NA,4,6,"6,7,9,4,12,1,14,2,3,10,11,8,13,15,5"
15011,commdev-image-keyboard-response,92,766290,practice,1121.5,img/practice3_left.png,NA,Number not found in mappings,NA,TRUE,f,f,NA,NA,NA,4,6,"6,7,9,4,12,1,14,2,3,10,11,8,13,15,5"
15011,commdev-image-keyboard-response,93,767549,practice,821.9000000953674,img/practice4_right.png,NA,Number not found in mappings,NA,TRUE,j,j,NA,NA,NA,4,6,"6,7,9,4,12,1,14,2,3,10,11,8,13,15,5"
15011,commdev-image-keyboard-response,94,768806,practice,622.9000000953674,img/practice3_left.png,NA,Number not found in mappings,NA,TRUE,f,f,NA,NA,NA,4,6,"6,7,9,4,12,1,14,2,3,10,11,8,13,15,5"
15011,commdev-image-keyboard-response,95,770066,practice,771.5,img/practice4_left.png,NA,Number not found in mappings,NA,TRUE,f,f,NA,NA,NA,4,6,"6,7,9,4,12,1,14,2,3,10,11,8,13,15,5"
15011,commdev-image-keyboard-response,96,771328,practice,896.6000000238419,img/practice3_left.png,NA,Number not found in mappings,NA,TRUE,f,f,NA,NA,NA,4,6,"6,7,9,4,12,1,14,2,3,10,11,8,13,15,5"
15011,commdev-instructions,97,782231,NA,1332.3999999761581,"<p>Great job with the practice round.</p><p>During real missions, you won't know whether you pressed the right or wrong key for each planet.</p><p>But between missions, we will tell you how you did overall.</p>",NA,NA,NA,NA,NA,NA,NA,NA,NA,4,6,"6,7,9,4,12,1,14,2,3,10,11,8,13,15,5"
15011,commdev-instructions,98,793132,NA,2637.5,<p>Try your best! You will be paid a bonus based on how many correct responses you make!</p><p>Responses that are too slow will not count toward your bonus.</p>,NA,NA,NA,NA,NA,NA,NA,NA,NA,4,6,"6,7,9,4,12,1,14,2,3,10,11,8,13,15,5"
15011,commdev-instructions,99,799905,NA,562.3999999761581,"<p>You are almost ready to start the real game.</p><p> First, we are going to ask you some questions about how the game works.</p>",NA,NA,NA,NA,NA,NA,NA,NA,NA,4,6,"6,7,9,4,12,1,14,2,3,10,11,8,13,15,5"
15011,commdev-instructions,108,879170,NA,3635.3000000715256,"<p> Nice work! It is now time to start the real game.<p></p>You will go on two missions to record wind directions of different planets.<p></p>Each one will take about 5 minutes. You will get to take a break between missions.<p><p> Remember, press <strong>F</strong> or <strong>J</strong> depending on the wind direction. Good luck!<br><img src=""img/categorize_planet_example.png""",NA,NA,NA,NA,NA,NA,NA,NA,NA,4,6,"6,7,9,4,12,1,14,2,3,10,11,8,13,15,5"
15011,commdev-image-keyboard-response,110,887938,learnblock1,null,img/planet13_right.png,13,Community 3,NA,FALSE,null,j,NA,NA,NA,4,6,"6,7,9,4,12,1,14,2,3,10,11,8,13,15,5"
15011,commdev-image-keyboard-response,111,889201,learnblock1,147.5,img/planet15_left.png,15,Community 3,NA,FALSE,j,f,NA,NA,NA,4,6,"6,7,9,4,12,1,14,2,3,10,11,8,13,15,5"
15011,commdev-image-keyboard-response,112,890461,learnblock1,145.09999990463257,img/planet11_left.png,11,Community 3,NA,TRUE,f,f,NA,NA,NA,4,6,"6,7,9,4,12,1,14,2,3,10,11,8,13,15,5"
15011,commdev-image-keyboard-response,113,891715,learnblock1,777.7999999523163,img/planet13_left.png,13,Community 3,NA,TRUE,f,f,NA,NA,NA,4,6,"6,7,9,4,12,1,14,2,3,10,11,8,13,15,5"
15011,commdev-image-keyboard-response,114,892983,learnblock1,805.3999999761581,img/planet15_left.png,15,Community 3,NA,TRUE,f,f,NA,NA,NA,4,6,"6,7,9,4,12,1,14,2,3,10,11,8,13,15,5"
15011,commdev-image-keyboard-response,115,894237,learnblock1,839.3999999761581,img/planet5_left.png,5,Community 3,NA,TRUE,f,f,NA,NA,NA,4,6,"6,7,9,4,12,1,14,2,3,10,11,8,13,15,5"
15011,commdev-image-keyboard-response,116,895501,learnblock1,736.4000000953674,img/planet8_right.png,8,Community 3,NA,TRUE,j,j,NA,NA,NA,4,6,"6,7,9,4,12,1,14,2,3,10,11,8,13,15,5"
15011,commdev-image-keyboard-response,117,896754,learnblock1,544.7999999523163,img/planet2_left.png,2,Community 2,NA,TRUE,f,f,NA,NA,NA,4,6,"6,7,9,4,12,1,14,2,3,10,11,8,13,15,5"
15011,commdev-image-keyboard-response,118,898018,learnblock1,727.8000000715256,img/planet10_right.png,10,Community 2,NA,FALSE,f,j,NA,NA,NA,4,6,"6,7,9,4,12,1,14,2,3,10,11,8,13,15,5"
15011,commdev-image-keyboard-response,119,899281,learnblock1,800.5,img/planet2_right.png,2,Community 2,NA,TRUE,j,j,NA,NA,NA,4,6,"6,7,9,4,12,1,14,2,3,10,11,8,13,15,5"
15011,commdev-image-keyboard-response,120,900546,learnblock1,1142.7999999523163,img/planet8_right.png,8,Community 3,NA,TRUE,j,j,NA,NA,NA,4,6,"6,7,9,4,12,1,14,2,3,10,11,8,13,15,5"
15011,commdev-image-keyboard-response,121,901801,learnblock1,813.2000000476837,img/planet15_left.png,15,Community 3,NA,TRUE,f,f,NA,NA,NA,4,6,"6,7,9,4,12,1,14,2,3,10,11,8,13,15,5"
15011,commdev-image-keyboard-response,122,903069,learnblock1,1016.5999999046326,img/planet5_left.png,5,Community 3,NA,TRUE,f,f,NA,NA,NA,4,6,"6,7,9,4,12,1,14,2,3,10,11,8,13,15,5"
15011,commdev-image-keyboard-response,123,904333,learnblock1,1096.1999999284744,img/planet13_left.png,13,Community 3,NA,TRUE,f,f,NA,NA,NA,4,6,"6,7,9,4,12,1,14,2,3,10,11,8,13,15,5"
15011,commdev-image-keyboard-response,124,905587,learnblock1,840.5,img/planet8_right.png,8,Community 3,NA,TRUE,j,j,NA,NA,NA,4,6,"6,7,9,4,12,1,14,2,3,10,11,8,13,15,5"
15011,commdev-image-keyboard-response,125,906842,learnblock1,686,img/planet15_left.png,15,Community 3,NA,TRUE,f,f,NA,NA,NA,4,6,"6,7,9,4,12,1,14,2,3,10,11,8,13,15,5"
15011,commdev-image-keyboard-response,126,908097,learnblock1,766.1000000238419,img/planet11_right.png,11,Community 3,NA,TRUE,j,j,NA,NA,NA,4,6,"6,7,9,4,12,1,14,2,3,10,11,8,13,15,5"
15011,commdev-image-keyboard-response,127,909356,learnblock1,633.2000000476837,img/planet12_left.png,12,Community 1,NA,TRUE,f,f,NA,NA,NA,4,6,"6,7,9,4,12,1,14,2,3,10,11,8,13,15,5"
15011,commdev-image-keyboard-response,128,910611,learnblock1,1112.3999999761581,img/planet7_left.png,7,Community 1,NA,TRUE,f,f,NA,NA,NA,4,6,"6,7,9,4,12,1,14,2,3,10,11,8,13,15,5"
15011,commdev-image-keyboard-response,129,911864,learnblock1,800.7000000476837,img/planet12_left.png,12,Community 1,NA,TRUE,f,f,NA,NA,NA,4,6,"6,7,9,4,12,1,14,2,3,10,11,8,13,15,5"
15011,commdev-image-keyboard-response,130,913115,learnblock1,1082.8999999761581,img/planet7_left.png,7,Community 1,NA,TRUE,f,f,NA,NA,NA,4,6,"6,7,9,4,12,1,14,2,3,10,11,8,13,15,5"
15011,commdev-image-keyboard-response,131,914370,learnblock1,896.5999999046326,img/planet9_left.png,9,Community 1,NA,TRUE,f,f,NA,NA,NA,4,6,"6,7,9,4,12,1,14,2,3,10,11,8,13,15,5"
15011,commdev-image-keyboard-response,132,915627,learnblock1,null,img/planet6_left.png,6,Community 1,NA,FALSE,null,f,NA,NA,NA,4,6,"6,7,9,4,12,1,14,2,3,10,11,8,13,15,5"
15011,commdev-image-keyboard-response,133,916887,learnblock1,19.399999976158142,img/planet12_right.png,12,Community 1,NA,FALSE,f,j,NA,NA,NA,4,6,"6,7,9,4,12,1,14,2,3,10,11,8,13,15,5"
15011,commdev-image-keyboard-response,134,918140,learnblock1,null,img/planet6_left.png,6,Community 1,NA,FALSE,null,f,NA,NA,NA,4,6,"6,7,9,4,12,1,14,2,3,10,11,8,13,15,5"
15011,commdev-image-keyboard-response,135,919392,learnblock1,941,img/planet4_left.png,4,Community 1,NA,TRUE,f,f,NA,NA,NA,4,6,"6,7,9,4,12,1,14,2,3,10,11,8,13,15,5"
15011,commdev-image-keyboard-response,136,920644,learnblock1,917.3000000715256,img/planet7_left.png,7,Community 1,NA,TRUE,f,f,NA,NA,NA,4,6,"6,7,9,4,12,1,14,2,3,10,11,8,13,15,5"
15011,commdev-image-keyboard-response,137,921900,learnblock1,893.6000000238419,img/planet6_left.png,6,Community 1,NA,FALSE,j,f,NA,NA,NA,4,6,"6,7,9,4,12,1,14,2,3,10,11,8,13,15,5"
15011,commdev-image-keyboard-response,138,923155,learnblock1,null,img/planet9_right.png,9,Community 1,NA,FALSE,null,j,NA,NA,NA,4,6,"6,7,9,4,12,1,14,2,3,10,11,8,13,15,5"
15011,commdev-image-keyboard-response,139,924412,learnblock1,51.59999990463257,img/planet4_left.png,4,Community 1,NA,FALSE,j,f,NA,NA,NA,4,6,"6,7,9,4,12,1,14,2,3,10,11,8,13,15,5"
15011,commdev-image-keyboard-response,140,925666,learnblock1,1062.8999999761581,img/planet7_left.png,7,Community 1,NA,TRUE,f,f,NA,NA,NA,4,6,"6,7,9,4,12,1,14,2,3,10,11,8,13,15,5"
15011,commdev-image-keyboard-response,141,926926,learnblock1,924,img/planet4_left.png,4,Community 1,NA,TRUE,f,f,NA,NA,NA,4,6,"6,7,9,4,12,1,14,2,3,10,11,8,13,15,5"
15011,commdev-image-keyboard-response,142,928184,learnblock1,null,img/planet7_right.png,7,Community 1,NA,FALSE,null,j,NA,NA,NA,4,6,"6,7,9,4,12,1,14,2,3,10,11,8,13,15,5"
15011,commdev-image-keyboard-response,143,929439,learnblock1,106.40000009536743,img/planet9_left.png,9,Community 1,NA,FALSE,j,f,NA,NA,NA,4,6,"6,7,9,4,12,1,14,2,3,10,11,8,13,15,5"
15011,commdev-image-keyboard-response,144,930699,learnblock1,214.60000002384186,img/planet7_right.png,7,Community 1,NA,TRUE,j,j,NA,NA,NA,4,6,"6,7,9,4,12,1,14,2,3,10,11,8,13,15,5"
15011,commdev-image-keyboard-response,145,931967,learnblock1,732.3000000715256,img/planet6_right.png,6,Community 1,NA,TRUE,j,j,NA,NA,NA,4,6,"6,7,9,4,12,1,14,2,3,10,11,8,13,15,5"
15011,commdev-image-keyboard-response,146,933226,learnblock1,875.2000000476837,img/planet12_right.png,12,Community 1,NA,TRUE,j,j,NA,NA,NA,4,6,"6,7,9,4,12,1,14,2,3,10,11,8,13,15,5"
15011,commdev-image-keyboard-response,147,934484,learnblock1,null,img/planet7_left.png,7,Community 1,NA,FALSE,null,f,NA,NA,NA,4,6,"6,7,9,4,12,1,14,2,3,10,11,8,13,15,5"
15011,commdev-image-keyboard-response,148,935740,learnblock1,9.200000047683716,img/planet12_right.png,12,Community 1,NA,TRUE,j,j,NA,NA,NA,4,6,"6,7,9,4,12,1,14,2,3,10,11,8,13,15,5"
15011,commdev-image-keyboard-response,149,936994,learnblock1,279.2999999523163,img/planet9_right.png,9,Community 1,NA,TRUE,j,j,NA,NA,NA,4,6,"6,7,9,4,12,1,14,2,3,10,11,8,13,15,5"
15011,commdev-image-keyboard-response,150,938248,learnblock1,null,img/planet4_left.png,4,Community 1,NA,FALSE,null,f,NA,NA,NA,4,6,"6,7,9,4,12,1,14,2,3,10,11,8,13,15,5"
15011,commdev-image-keyboard-response,151,939512,learnblock1,238.89999997615814,img/planet9_left.png,9,Community 1,NA,FALSE,j,f,NA,NA,NA,4,6,"6,7,9,4,12,1,14,2,3,10,11,8,13,15,5"
15011,commdev-image-keyboard-response,152,940764,learnblock1,809.2999999523163,img/planet6_right.png,6,Community 1,NA,TRUE,j,j,NA,NA,NA,4,6,"6,7,9,4,12,1,14,2,3,10,11,8,13,15,5"
15011,commdev-image-keyboard-response,153,942018,learnblock1,1035.7999999523163,img/planet7_left.png,7,Community 1,NA,TRUE,f,f,NA,NA,NA,4,6,"6,7,9,4,12,1,14,2,3,10,11,8,13,15,5"
15011,commdev-image-keyboard-response,154,943273,learnblock1,1117.8999999761581,img/planet4_right.png,4,Community 1,NA,FALSE,f,j,NA,NA,NA,4,6,"6,7,9,4,12,1,14,2,3,10,11,8,13,15,5"
15011,commdev-image-keyboard-response,155,944527,learnblock1,956.9000000953674,img/planet9_left.png,9,Community 1,NA,TRUE,f,f,NA,NA,NA,4,6,"6,7,9,4,12,1,14,2,3,10,11,8,13,15,5"
15011,commdev-image-keyboard-response,156,945783,learnblock1,737.5,img/planet12_left.png,12,Community 1,NA,TRUE,f,f,NA,NA,NA,4,6,"6,7,9,4,12,1,14,2,3,10,11,8,13,15,5"
15011,commdev-image-keyboard-response,157,947047,learnblock1,713.3999999761581,img/planet6_right.png,6,Community 1,NA,TRUE,j,j,NA,NA,NA,4,6,"6,7,9,4,12,1,14,2,3,10,11,8,13,15,5"
15011,commdev-image-keyboard-response,158,948305,learnblock1,630.3999999761581,img/planet12_left.png,12,Community 1,NA,TRUE,f,f,NA,NA,NA,4,6,"6,7,9,4,12,1,14,2,3,10,11,8,13,15,5"
15011,commdev-image-keyboard-response,159,949565,learnblock1,1160.7000000476837,img/planet6_left.png,6,Community 1,NA,TRUE,f,f,NA,NA,NA,4,6,"6,7,9,4,12,1,14,2,3,10,11,8,13,15,5"
15011,commdev-image-keyboard-response,160,950816,learnblock1,804.1999999284744,img/planet12_right.png,12,Community 1,NA,TRUE,j,j,NA,NA,NA,4,6,"6,7,9,4,12,1,14,2,3,10,11,8,13,15,5"
15011,commdev-image-keyboard-response,161,952077,learnblock1,560.7999999523163,img/planet11_left.png,11,Community 3,NA,TRUE,f,f,NA,NA,NA,4,6,"6,7,9,4,12,1,14,2,3,10,11,8,13,15,5"
15011,commdev-image-keyboard-response,162,953335,learnblock1,421.7999999523163,img/planet15_left.png,15,Community 3,NA,FALSE,j,f,NA,NA,NA,4,6,"6,7,9,4,12,1,14,2,3,10,11,8,13,15,5"
15011,commdev-image-keyboard-response,163,954594,learnblock1,780.8000000715256,img/planet13_right.png,13,Community 3,NA,FALSE,f,j,NA,NA,NA,4,6,"6,7,9,4,12,1,14,2,3,10,11,8,13,15,5"
15011,commdev-image-keyboard-response,164,955853,learnblock1,32.89999997615814,img/planet8_left.png,8,Community 3,NA,FALSE,j,f,NA,NA,NA,4,6,"6,7,9,4,12,1,14,2,3,10,11,8,13,15,5"
15011,commdev-image-keyboard-response,165,957108,learnblock1,793,img/planet13_left.png,13,Community 3,NA,TRUE,f,f,NA,NA,NA,4,6,"6,7,9,4,12,1,14,2,3,10,11,8,13,15,5"
15011,commdev-image-keyboard-response,166,958364,learnblock1,571.2999999523163,img/planet8_right.png,8,Community 3,NA,TRUE,j,j,NA,NA,NA,4,6,"6,7,9,4,12,1,14,2,3,10,11,8,13,15,5"
15011,commdev-image-keyboard-response,167,959618,learnblock1,727,img/planet2_right.png,2,Community 2,NA,TRUE,j,j,NA,NA,NA,4,6,"6,7,9,4,12,1,14,2,3,10,11,8,13,15,5"
15011,commdev-image-keyboard-response,168,960875,learnblock1,767.8999999761581,img/planet14_right.png,14,Community 2,NA,TRUE,j,j,NA,NA,NA,4,6,"6,7,9,4,12,1,14,2,3,10,11,8,13,15,5"
15011,commdev-image-keyboard-response,169,962132,learnblock1,577.7999999523163,img/planet2_left.png,2,Community 2,NA,TRUE,f,f,NA,NA,NA,4,6,"6,7,9,4,12,1,14,2,3,10,11,8,13,15,5"
15011,commdev-image-keyboard-response,170,963389,learnblock1,434.5,img/planet3_right.png,3,Community 2,NA,TRUE,j,j,NA,NA,NA,4,6,"6,7,9,4,12,1,14,2,3,10,11,8,13,15,5"
15011,commdev-image-keyboard-response,171,964657,learnblock1,555.3999999761581,img/planet2_left.png,2,Community 2,NA,TRUE,f,f,NA,NA,NA,4,6,"6,7,9,4,12,1,14,2,3,10,11,8,13,15,5"
15011,commdev-image-keyboard-response,172,965918,learnblock1,800.2999999523163,img/planet14_left.png,14,Community 2,NA,TRUE,f,f,NA,NA,NA,4,6,"6,7,9,4,12,1,14,2,3,10,11,8,13,15,5"
15011,commdev-image-keyboard-response,173,967172,learnblock1,690.3999999761581,img/planet10_right.png,10,Community 2,NA,TRUE,j,j,NA,NA,NA,4,6,"6,7,9,4,12,1,14,2,3,10,11,8,13,15,5"
15011,commdev-image-keyboard-response,174,968431,learnblock1,778.1999999284744,img/planet1_left.png,1,Community 2,NA,TRUE,f,f,NA,NA,NA,4,6,"6,7,9,4,12,1,14,2,3,10,11,8,13,15,5"
15011,commdev-image-keyboard-response,175,969689,learnblock1,903.3999999761581,img/planet4_left.png,4,Community 1,NA,TRUE,f,f,NA,NA,NA,4,6,"6,7,9,4,12,1,14,2,3,10,11,8,13,15,5"
15011,commdev-image-keyboard-response,176,970948,learnblock1,837.5,img/planet6_left.png,6,Community 1,NA,TRUE,f,f,NA,NA,NA,4,6,"6,7,9,4,12,1,14,2,3,10,11,8,13,15,5"
15011,commdev-image-keyboard-response,177,972203,learnblock1,644.8000000715256,img/planet12_left.png,12,Community 1,NA,TRUE,f,f,NA,NA,NA,4,6,"6,7,9,4,12,1,14,2,3,10,11,8,13,15,5"
15011,commdev-image-keyboard-response,178,973465,learnblock1,690.5,img/planet9_right.png,9,Community 1,NA,TRUE,j,j,NA,NA,NA,4,6,"6,7,9,4,12,1,14,2,3,10,11,8,13,15,5"
15011,commdev-image-keyboard-response,179,974722,learnblock1,797.6000000238419,img/planet4_right.png,4,Community 1,NA,TRUE,j,j,NA,NA,NA,4,6,"6,7,9,4,12,1,14,2,3,10,11,8,13,15,5"
15011,commdev-image-keyboard-response,180,975978,learnblock1,1011.8999999761581,img/planet7_left.png,7,Community 1,NA,TRUE,f,f,NA,NA,NA,4,6,"6,7,9,4,12,1,14,2,3,10,11,8,13,15,5"
15011,commdev-image-keyboard-response,181,977237,learnblock1,987.2000000476837,img/planet12_right.png,12,Community 1,NA,TRUE,j,j,NA,NA,NA,4,6,"6,7,9,4,12,1,14,2,3,10,11,8,13,15,5"
15011,commdev-image-keyboard-response,182,978491,learnblock1,595.1000000238419,img/planet6_left.png,6,Community 1,NA,TRUE,f,f,NA,NA,NA,4,6,"6,7,9,4,12,1,14,2,3,10,11,8,13,15,5"
15011,commdev-image-keyboard-response,183,979747,learnblock1,1061,img/planet4_left.png,4,Community 1,NA,TRUE,f,f,NA,NA,NA,4,6,"6,7,9,4,12,1,14,2,3,10,11,8,13,15,5"
15011,commdev-image-keyboard-response,184,981001,learnblock1,931.1000000238419,img/planet7_left.png,7,Community 1,NA,TRUE,f,f,NA,NA,NA,4,6,"6,7,9,4,12,1,14,2,3,10,11,8,13,15,5"
15011,commdev-image-keyboard-response,185,982254,learnblock1,751,img/planet6_right.png,6,Community 1,NA,TRUE,j,j,NA,NA,NA,4,6,"6,7,9,4,12,1,14,2,3,10,11,8,13,15,5"
15011,commdev-image-keyboard-response,186,983508,learnblock1,843.6000000238419,img/planet12_right.png,12,Community 1,NA,TRUE,j,j,NA,NA,NA,4,6,"6,7,9,4,12,1,14,2,3,10,11,8,13,15,5"
15011,commdev-image-keyboard-response,187,984775,learnblock1,777.7999999523163,img/planet7_left.png,7,Community 1,NA,TRUE,f,f,NA,NA,NA,4,6,"6,7,9,4,12,1,14,2,3,10,11,8,13,15,5"
15011,commdev-image-keyboard-response,188,986033,learnblock1,833.2000000476837,img/planet9_left.png,9,Community 1,NA,TRUE,f,f,NA,NA,NA,4,6,"6,7,9,4,12,1,14,2,3,10,11,8,13,15,5"
15011,commdev-image-keyboard-response,189,987287,learnblock1,709.7999999523163,img/planet6_right.png,6,Community 1,NA,TRUE,j,j,NA,NA,NA,4,6,"6,7,9,4,12,1,14,2,3,10,11,8,13,15,5"
15011,commdev-image-keyboard-response,190,988550,learnblock1,733.2999999523163,img/planet9_left.png,9,Community 1,NA,TRUE,f,f,NA,NA,NA,4,6,"6,7,9,4,12,1,14,2,3,10,11,8,13,15,5"
15011,commdev-image-keyboard-response,191,989805,learnblock1,844.4000000953674,img/planet12_left.png,12,Community 1,NA,TRUE,f,f,NA,NA,NA,4,6,"6,7,9,4,12,1,14,2,3,10,11,8,13,15,5"
15011,commdev-image-keyboard-response,192,991068,learnblock1,668.0999999046326,img/planet7_left.png,7,Community 1,NA,TRUE,f,f,NA,NA,NA,4,6,"6,7,9,4,12,1,14,2,3,10,11,8,13,15,5"
15011,commdev-image-keyboard-response,193,992326,learnblock1,710.3999999761581,img/planet9_left.png,9,Community 1,NA,TRUE,f,f,NA,NA,NA,4,6,"6,7,9,4,12,1,14,2,3,10,11,8,13,15,5"
15011,commdev-image-keyboard-response,194,993582,learnblock1,705.5,img/planet6_right.png,6,Community 1,NA,TRUE,j,j,NA,NA,NA,4,6,"6,7,9,4,12,1,14,2,3,10,11,8,13,15,5"
15011,commdev-image-keyboard-response,195,994836,learnblock1,741.2000000476837,img/planet9_left.png,9,Community 1,NA,TRUE,f,f,NA,NA,NA,4,6,"6,7,9,4,12,1,14,2,3,10,11,8,13,15,5"
15011,commdev-image-keyboard-response,196,996105,learnblock1,756.8999999761581,img/planet7_right.png,7,Community 1,NA,TRUE,j,j,NA,NA,NA,4,6,"6,7,9,4,12,1,14,2,3,10,11,8,13,15,5"
15011,commdev-image-keyboard-response,197,997358,learnblock1,889.3999999761581,img/planet6_right.png,6,Community 1,NA,TRUE,j,j,NA,NA,NA,4,6,"6,7,9,4,12,1,14,2,3,10,11,8,13,15,5"
15011,commdev-image-keyboard-response,198,998613,learnblock1,1087.7999999523163,img/planet7_left.png,7,Community 1,NA,TRUE,f,f,NA,NA,NA,4,6,"6,7,9,4,12,1,14,2,3,10,11,8,13,15,5"
15011,commdev-image-keyboard-response,199,999867,learnblock1,1124.7000000476837,img/planet12_left.png,12,Community 1,NA,TRUE,f,f,NA,NA,NA,4,6,"6,7,9,4,12,1,14,2,3,10,11,8,13,15,5"
15011,commdev-image-keyboard-response,200,1001122,learnblock1,1045.2999999523163,img/planet6_left.png,6,Community 1,NA,TRUE,f,f,NA,NA,NA,4,6,"6,7,9,4,12,1,14,2,3,10,11,8,13,15,5"
15011,commdev-image-keyboard-response,201,1002373,learnblock1,757.8000000715256,img/planet12_left.png,12,Community 1,NA,TRUE,f,f,NA,NA,NA,4,6,"6,7,9,4,12,1,14,2,3,10,11,8,13,15,5"
15011,commdev-image-keyboard-response,202,1003638,learnblock1,671.1000000238419,img/planet7_left.png,7,Community 1,NA,TRUE,f,f,NA,NA,NA,4,6,"6,7,9,4,12,1,14,2,3,10,11,8,13,15,5"
15011,commdev-image-keyboard-response,203,1004892,learnblock1,1027.2000000476837,img/planet12_left.png,12,Community 1,NA,TRUE,f,f,NA,NA,NA,4,6,"6,7,9,4,12,1,14,2,3,10,11,8,13,15,5"
15011,commdev-image-keyboard-response,204,1006150,learnblock1,657.3000000715256,img/planet7_right.png,7,Community 1,NA,TRUE,j,j,NA,NA,NA,4,6,"6,7,9,4,12,1,14,2,3,10,11,8,13,15,5"
15011,commdev-image-keyboard-response,205,1007411,learnblock1,727.1000000238419,img/planet12_left.png,12,Community 1,NA,TRUE,f,f,NA,NA,NA,4,6,"6,7,9,4,12,1,14,2,3,10,11,8,13,15,5"
15011,commdev-image-keyboard-response,206,1008665,learnblock1,607.3999999761581,img/planet6_right.png,6,Community 1,NA,TRUE,j,j,NA,NA,NA,4,6,"6,7,9,4,12,1,14,2,3,10,11,8,13,15,5"
15011,commdev-image-keyboard-response,207,1009923,learnblock1,609.6000000238419,img/planet7_left.png,7,Community 1,NA,TRUE,f,f,NA,NA,NA,4,6,"6,7,9,4,12,1,14,2,3,10,11,8,13,15,5"
15011,commdev-image-keyboard-response,208,1011187,learnblock1,568.7000000476837,img/planet4_right.png,4,Community 1,NA,TRUE,j,j,NA,NA,NA,4,6,"6,7,9,4,12,1,14,2,3,10,11,8,13,15,5"
15011,commdev-image-keyboard-response,209,1012444,learnblock1,501.89999997615814,img/planet6_left.png,6,Community 1,NA,TRUE,f,f,NA,NA,NA,4,6,"6,7,9,4,12,1,14,2,3,10,11,8,13,15,5"
15011,commdev-image-keyboard-response,210,1013696,learnblock1,605.8999999761581,img/planet12_right.png,12,Community 1,NA,TRUE,j,j,NA,NA,NA,4,6,"6,7,9,4,12,1,14,2,3,10,11,8,13,15,5"
15011,commdev-image-keyboard-response,211,1014951,learnblock1,568.7000000476837,img/planet7_left.png,7,Community 1,NA,TRUE,f,f,NA,NA,NA,4,6,"6,7,9,4,12,1,14,2,3,10,11,8,13,15,5"
15011,commdev-image-keyboard-response,212,1016210,learnblock1,450.10000002384186,img/planet4_left.png,4,Community 1,NA,FALSE,j,f,NA,NA,NA,4,6,"6,7,9,4,12,1,14,2,3,10,11,8,13,15,5"
15011,commdev-image-keyboard-response,213,1017466,learnblock1,40.300000071525574,img/planet6_left.png,6,Community 1,NA,TRUE,f,f,NA,NA,NA,4,6,"6,7,9,4,12,1,14,2,3,10,11,8,13,15,5"
15011,commdev-image-keyboard-response,214,1018722,learnblock1,746.3999999761581,img/planet9_left.png,9,Community 1,NA,TRUE,f,f,NA,NA,NA,4,6,"6,7,9,4,12,1,14,2,3,10,11,8,13,15,5"
15011,commdev-image-keyboard-response,215,1019981,learnblock1,604.3999999761581,img/planet4_right.png,4,Community 1,NA,TRUE,j,j,NA,NA,NA,4,6,"6,7,9,4,12,1,14,2,3,10,11,8,13,15,5"
15011,commdev-image-keyboard-response,216,1021233,learnblock1,459.1999999284744,img/planet9_right.png,9,Community 1,NA,TRUE,j,j,NA,NA,NA,4,6,"6,7,9,4,12,1,14,2,3,10,11,8,13,15,5"
15011,commdev-image-keyboard-response,217,1022488,learnblock1,686.7000000476837,img/planet12_left.png,12,Community 1,NA,TRUE,f,f,NA,NA,NA,4,6,"6,7,9,4,12,1,14,2,3,10,11,8,13,15,5"
15011,commdev-image-keyboard-response,218,1023741,learnblock1,808.6000000238419,img/planet6_left.png,6,Community 1,NA,TRUE,f,f,NA,NA,NA,4,6,"6,7,9,4,12,1,14,2,3,10,11,8,13,15,5"
15011,commdev-image-keyboard-response,219,1024995,learnblock1,823.9000000953674,img/planet7_right.png,7,Community 1,NA,TRUE,j,j,NA,NA,NA,4,6,"6,7,9,4,12,1,14,2,3,10,11,8,13,15,5"
15011,commdev-image-keyboard-response,220,1026247,learnblock1,906.6000000238419,img/planet9_left.png,9,Community 1,NA,TRUE,f,f,NA,NA,NA,4,6,"6,7,9,4,12,1,14,2,3,10,11,8,13,15,5"
15011,commdev-image-keyboard-response,221,1027505,learnblock1,959.8999999761581,img/planet7_right.png,7,Community 1,NA,TRUE,j,j,NA,NA,NA,4,6,"6,7,9,4,12,1,14,2,3,10,11,8,13,15,5"
15011,commdev-image-keyboard-response,222,1028765,learnblock1,576.8999999761581,img/planet6_left.png,6,Community 1,NA,TRUE,f,f,NA,NA,NA,4,6,"6,7,9,4,12,1,14,2,3,10,11,8,13,15,5"
15011,commdev-image-keyboard-response,223,1030025,learnblock1,507.89999997615814,img/planet7_right.png,7,Community 1,NA,TRUE,j,j,NA,NA,NA,4,6,"6,7,9,4,12,1,14,2,3,10,11,8,13,15,5"
15011,commdev-image-keyboard-response,224,1031281,learnblock1,665.1000000238419,img/planet9_left.png,9,Community 1,NA,TRUE,f,f,NA,NA,NA,4,6,"6,7,9,4,12,1,14,2,3,10,11,8,13,15,5"
15011,commdev-image-keyboard-response,225,1032539,learnblock1,584.7999999523163,img/planet6_right.png,6,Community 1,NA,TRUE,j,j,NA,NA,NA,4,6,"6,7,9,4,12,1,14,2,3,10,11,8,13,15,5"
15011,commdev-image-keyboard-response,226,1033800,learnblock1,711.1000000238419,img/planet9_left.png,9,Community 1,NA,TRUE,f,f,NA,NA,NA,4,6,"6,7,9,4,12,1,14,2,3,10,11,8,13,15,5"
15011,commdev-image-keyboard-response,227,1035059,learnblock1,890.6000000238419,img/planet7_left.png,7,Community 1,NA,TRUE,f,f,NA,NA,NA,4,6,"6,7,9,4,12,1,14,2,3,10,11,8,13,15,5"
15011,commdev-image-keyboard-response,228,1036316,learnblock1,990.8999999761581,img/planet6_left.png,6,Community 1,NA,TRUE,f,f,NA,NA,NA,4,6,"6,7,9,4,12,1,14,2,3,10,11,8,13,15,5"
15011,commdev-image-keyboard-response,229,1037573,learnblock1,1158.2999999523163,img/planet12_right.png,12,Community 1,NA,TRUE,j,j,NA,NA,NA,4,6,"6,7,9,4,12,1,14,2,3,10,11,8,13,15,5"
15011,commdev-image-keyboard-response,230,1038828,learnblock1,706.7999999523163,img/planet9_left.png,9,Community 1,NA,TRUE,f,f,NA,NA,NA,4,6,"6,7,9,4,12,1,14,2,3,10,11,8,13,15,5"
15011,commdev-image-keyboard-response,231,1040091,learnblock1,536.6000000238419,img/planet4_right.png,4,Community 1,NA,TRUE,j,j,NA,NA,NA,4,6,"6,7,9,4,12,1,14,2,3,10,11,8,13,15,5"
15011,commdev-image-keyboard-response,232,1041350,learnblock1,545.5,img/planet7_left.png,7,Community 1,NA,TRUE,f,f,NA,NA,NA,4,6,"6,7,9,4,12,1,14,2,3,10,11,8,13,15,5"
15011,commdev-image-keyboard-response,233,1042610,learnblock1,461.3000000715256,img/planet9_right.png,9,Community 1,NA,TRUE,j,j,NA,NA,NA,4,6,"6,7,9,4,12,1,14,2,3,10,11,8,13,15,5"
15011,commdev-image-keyboard-response,234,1043870,learnblock1,562.5,img/planet12_right.png,12,Community 1,NA,FALSE,f,j,NA,NA,NA,4,6,"6,7,9,4,12,1,14,2,3,10,11,8,13,15,5"
15011,commdev-image-keyboard-response,235,1045124,learnblock1,586.6999999284744,img/planet9_left.png,9,Community 1,NA,TRUE,f,f,NA,NA,NA,4,6,"6,7,9,4,12,1,14,2,3,10,11,8,13,15,5"
15011,commdev-image-keyboard-response,236,1046397,learnblock1,664.8999999761581,img/planet6_right.png,6,Community 1,NA,TRUE,j,j,NA,NA,NA,4,6,"6,7,9,4,12,1,14,2,3,10,11,8,13,15,5"
15011,commdev-image-keyboard-response,237,1047649,learnblock1,936.6000000238419,img/planet4_left.png,4,Community 1,NA,TRUE,f,f,NA,NA,NA,4,6,"6,7,9,4,12,1,14,2,3,10,11,8,13,15,5"
15011,commdev-image-keyboard-response,238,1048902,learnblock1,1014.8999999761581,img/planet9_right.png,9,Community 1,NA,TRUE,j,j,NA,NA,NA,4,6,"6,7,9,4,12,1,14,2,3,10,11,8,13,15,5"
15011,commdev-image-keyboard-response,239,1050163,learnblock1,812.3999999761581,img/planet6_right.png,6,Community 1,NA,TRUE,j,j,NA,NA,NA,4,6,"6,7,9,4,12,1,14,2,3,10,11,8,13,15,5"
15011,commdev-image-keyboard-response,240,1051419,learnblock1,744.4000000953674,img/planet9_left.png,9,Community 1,NA,TRUE,f,f,NA,NA,NA,4,6,"6,7,9,4,12,1,14,2,3,10,11,8,13,15,5"
15011,commdev-image-keyboard-response,241,1052676,learnblock1,1237.7000000476837,img/planet4_left.png,4,Community 1,NA,TRUE,f,f,NA,NA,NA,4,6,"6,7,9,4,12,1,14,2,3,10,11,8,13,15,5"
15011,commdev-image-keyboard-response,242,1053935,learnblock1,926,img/planet1_left.png,1,Community 2,NA,TRUE,f,f,NA,NA,NA,4,6,"6,7,9,4,12,1,14,2,3,10,11,8,13,15,5"
15011,commdev-image-keyboard-response,243,1055190,learnblock1,814.2999999523163,img/planet10_right.png,10,Community 2,NA,TRUE,j,j,NA,NA,NA,4,6,"6,7,9,4,12,1,14,2,3,10,11,8,13,15,5"
15011,commdev-image-keyboard-response,244,1056452,learnblock1,701.3000000715256,img/planet2_right.png,2,Community 2,NA,TRUE,j,j,NA,NA,NA,4,6,"6,7,9,4,12,1,14,2,3,10,11,8,13,15,5"
15011,commdev-image-keyboard-response,245,1057712,learnblock1,1156.9000000953674,img/planet3_left.png,3,Community 2,NA,TRUE,f,f,NA,NA,NA,4,6,"6,7,9,4,12,1,14,2,3,10,11,8,13,15,5"
15011,commdev-image-keyboard-response,246,1058964,learnblock1,681.2000000476837,img/planet2_right.png,2,Community 2,NA,TRUE,j,j,NA,NA,NA,4,6,"6,7,9,4,12,1,14,2,3,10,11,8,13,15,5"
15011,commdev-image-keyboard-response,247,1060219,learnblock1,1064.8000000715256,img/planet3_right.png,3,Community 2,NA,FALSE,f,j,NA,NA,NA,4,6,"6,7,9,4,12,1,14,2,3,10,11,8,13,15,5"
15011,commdev-image-keyboard-response,248,1061472,learnblock1,1112.9000000953674,img/planet2_right.png,2,Community 2,NA,TRUE,j,j,NA,NA,NA,4,6,"6,7,9,4,12,1,14,2,3,10,11,8,13,15,5"
15011,commdev-image-keyboard-response,249,1062729,learnblock1,751.6999999284744,img/planet10_left.png,10,Community 2,NA,TRUE,f,f,NA,NA,NA,4,6,"6,7,9,4,12,1,14,2,3,10,11,8,13,15,5"
15011,commdev-image-keyboard-response,250,1063984,learnblock1,1165.5,img/planet1_left.png,1,Community 2,NA,TRUE,f,f,NA,NA,NA,4,6,"6,7,9,4,12,1,14,2,3,10,11,8,13,15,5"
15011,commdev-image-keyboard-response,251,1065236,learnblock1,976.7000000476837,img/planet14_right.png,14,Community 2,NA,TRUE,j,j,NA,NA,NA,4,6,"6,7,9,4,12,1,14,2,3,10,11,8,13,15,5"
15011,commdev-image-keyboard-response,252,1066503,learnblock1,754.1000000238419,img/planet10_left.png,10,Community 2,NA,TRUE,f,f,NA,NA,NA,4,6,"6,7,9,4,12,1,14,2,3,10,11,8,13,15,5"
15011,commdev-image-keyboard-response,253,1067758,learnblock1,960.6999999284744,img/planet2_left.png,2,Community 2,NA,TRUE,f,f,NA,NA,NA,4,6,"6,7,9,4,12,1,14,2,3,10,11,8,13,15,5"
15011,commdev-image-keyboard-response,254,1069020,learnblock1,1040.6999999284744,img/planet14_left.png,14,Community 2,NA,TRUE,f,f,NA,NA,NA,4,6,"6,7,9,4,12,1,14,2,3,10,11,8,13,15,5"
15011,commdev-image-keyboard-response,255,1070271,learnblock1,1124.7999999523163,img/planet2_left.png,2,Community 2,NA,TRUE,f,f,NA,NA,NA,4,6,"6,7,9,4,12,1,14,2,3,10,11,8,13,15,5"
15011,commdev-image-keyboard-response,256,1071531,learnblock1,835.1999999284744,img/planet10_right.png,10,Community 2,NA,TRUE,j,j,NA,NA,NA,4,6,"6,7,9,4,12,1,14,2,3,10,11,8,13,15,5"
15011,commdev-image-keyboard-response,257,1072788,learnblock1,1033.8000000715256,img/planet14_left.png,14,Community 2,NA,TRUE,f,f,NA,NA,NA,4,6,"6,7,9,4,12,1,14,2,3,10,11,8,13,15,5"
15011,commdev-image-keyboard-response,258,1074040,learnblock1,813.9000000953674,img/planet1_right.png,1,Community 2,NA,TRUE,j,j,NA,NA,NA,4,6,"6,7,9,4,12,1,14,2,3,10,11,8,13,15,5"
15011,commdev-image-keyboard-response,259,1075292,learnblock1,1089.6999999284744,img/planet14_left.png,14,Community 2,NA,TRUE,f,f,NA,NA,NA,4,6,"6,7,9,4,12,1,14,2,3,10,11,8,13,15,5"
15011,commdev-image-keyboard-response,260,1076557,learnblock1,856.2999999523163,img/planet3_right.png,3,Community 2,NA,TRUE,j,j,NA,NA,NA,4,6,"6,7,9,4,12,1,14,2,3,10,11,8,13,15,5"
15011,commdev-image-keyboard-response,261,1077816,learnblock1,792.1999999284744,img/planet1_left.png,1,Community 2,NA,TRUE,f,f,NA,NA,NA,4,6,"6,7,9,4,12,1,14,2,3,10,11,8,13,15,5"
15011,commdev-image-keyboard-response,262,1079080,learnblock1,1020.0999999046326,img/planet3_left.png,3,Community 2,NA,TRUE,f,f,NA,NA,NA,4,6,"6,7,9,4,12,1,14,2,3,10,11,8,13,15,5"
15011,commdev-image-keyboard-response,263,1080336,learnblock1,1149.3000000715256,img/planet10_left.png,10,Community 2,NA,TRUE,f,f,NA,NA,NA,4,6,"6,7,9,4,12,1,14,2,3,10,11,8,13,15,5"
15011,commdev-image-keyboard-response,264,1081588,learnblock1,1049.2999999523163,img/planet1_right.png,1,Community 2,NA,TRUE,j,j,NA,NA,NA,4,6,"6,7,9,4,12,1,14,2,3,10,11,8,13,15,5"
15011,commdev-image-keyboard-response,265,1082843,learnblock1,1003.0999999046326,img/planet4_right.png,4,Community 1,NA,TRUE,j,j,NA,NA,NA,4,6,"6,7,9,4,12,1,14,2,3,10,11,8,13,15,5"
15011,commdev-image-keyboard-response,266,1084098,learnblock1,1023.7000000476837,img/planet6_right.png,6,Community 1,NA,TRUE,j,j,NA,NA,NA,4,6,"6,7,9,4,12,1,14,2,3,10,11,8,13,15,5"
15011,commdev-image-keyboard-response,267,1085349,learnblock1,979.6999999284744,img/planet7_right.png,7,Community 1,NA,TRUE,j,j,NA,NA,NA,4,6,"6,7,9,4,12,1,14,2,3,10,11,8,13,15,5"
15011,commdev-image-keyboard-response,268,1086601,learnblock1,895.1000000238419,img/planet9_left.png,9,Community 1,NA,TRUE,f,f,NA,NA,NA,4,6,"6,7,9,4,12,1,14,2,3,10,11,8,13,15,5"
15011,commdev-image-keyboard-response,269,1087865,learnblock1,830.4000000953674,img/planet6_left.png,6,Community 1,NA,TRUE,f,f,NA,NA,NA,4,6,"6,7,9,4,12,1,14,2,3,10,11,8,13,15,5"
15011,commdev-image-keyboard-response,270,1089129,learnblock1,959.1000000238419,img/planet4_left.png,4,Community 1,NA,TRUE,f,f,NA,NA,NA,4,6,"6,7,9,4,12,1,14,2,3,10,11,8,13,15,5"
15011,commdev-image-keyboard-response,271,1090382,learnblock1,821.2000000476837,img/planet9_right.png,9,Community 1,NA,TRUE,j,j,NA,NA,NA,4,6,"6,7,9,4,12,1,14,2,3,10,11,8,13,15,5"
15011,commdev-image-keyboard-response,272,1091634,learnblock1,869.6000000238419,img/planet12_left.png,12,Community 1,NA,FALSE,j,f,NA,NA,NA,4,6,"6,7,9,4,12,1,14,2,3,10,11,8,13,15,5"
15011,commdev-image-keyboard-response,273,1092887,learnblock1,1007.8000000715256,img/planet6_left.png,6,Community 1,NA,TRUE,f,f,NA,NA,NA,4,6,"6,7,9,4,12,1,14,2,3,10,11,8,13,15,5"
15011,commdev-image-keyboard-response,274,1094140,learnblock1,646.6000000238419,img/planet12_left.png,12,Community 1,NA,TRUE,f,f,NA,NA,NA,4,6,"6,7,9,4,12,1,14,2,3,10,11,8,13,15,5"
15011,commdev-image-keyboard-response,275,1095400,learnblock1,726.6000000238419,img/planet9_right.png,9,Community 1,NA,TRUE,j,j,NA,NA,NA,4,6,"6,7,9,4,12,1,14,2,3,10,11,8,13,15,5"
15011,commdev-image-keyboard-response,276,1096659,learnblock1,951.6999999284744,img/planet6_left.png,6,Community 1,NA,TRUE,f,f,NA,NA,NA,4,6,"6,7,9,4,12,1,14,2,3,10,11,8,13,15,5"
15011,commdev-image-keyboard-response,277,1097912,learnblock1,839.5999999046326,img/planet9_right.png,9,Community 1,NA,TRUE,j,j,NA,NA,NA,4,6,"6,7,9,4,12,1,14,2,3,10,11,8,13,15,5"
15011,commdev-image-keyboard-response,278,1099164,learnblock1,785.7999999523163,img/planet12_right.png,12,Community 1,NA,TRUE,j,j,NA,NA,NA,4,6,"6,7,9,4,12,1,14,2,3,10,11,8,13,15,5"
15011,commdev-image-keyboard-response,279,1100419,learnblock1,691.1999999284744,img/planet9_left.png,9,Community 1,NA,TRUE,f,f,NA,NA,NA,4,6,"6,7,9,4,12,1,14,2,3,10,11,8,13,15,5"
15011,commdev-image-keyboard-response,280,1101673,learnblock1,1031.8000000715256,img/planet6_left.png,6,Community 1,NA,TRUE,f,f,NA,NA,NA,4,6,"6,7,9,4,12,1,14,2,3,10,11,8,13,15,5"
15011,commdev-image-keyboard-response,281,1102930,learnblock1,966.5,img/planet9_left.png,9,Community 1,NA,TRUE,f,f,NA,NA,NA,4,6,"6,7,9,4,12,1,14,2,3,10,11,8,13,15,5"
15011,commdev-image-keyboard-response,282,1104184,learnblock1,991.3000000715256,img/planet6_left.png,6,Community 1,NA,TRUE,f,f,NA,NA,NA,4,6,"6,7,9,4,12,1,14,2,3,10,11,8,13,15,5"
15011,commdev-image-keyboard-response,283,1105442,learnblock1,null,img/planet9_left.png,9,Community 1,NA,FALSE,null,f,NA,NA,NA,4,6,"6,7,9,4,12,1,14,2,3,10,11,8,13,15,5"
15011,commdev-image-keyboard-response,284,1106701,learnblock1,144.30000007152557,img/planet4_left.png,4,Community 1,NA,FALSE,j,f,NA,NA,NA,4,6,"6,7,9,4,12,1,14,2,3,10,11,8,13,15,5"
15011,commdev-image-keyboard-response,285,1107955,learnblock1,0.7999999523162842,img/planet7_right.png,7,Community 1,NA,FALSE,f,j,NA,NA,NA,4,6,"6,7,9,4,12,1,14,2,3,10,11,8,13,15,5"
15011,commdev-image-keyboard-response,286,1109207,learnblock1,997.8999999761581,img/planet4_right.png,4,Community 1,NA,TRUE,j,j,NA,NA,NA,4,6,"6,7,9,4,12,1,14,2,3,10,11,8,13,15,5"
15011,commdev-image-keyboard-response,287,1110463,learnblock1,593.0999999046326,img/planet6_right.png,6,Community 1,NA,FALSE,f,j,NA,NA,NA,4,6,"6,7,9,4,12,1,14,2,3,10,11,8,13,15,5"
15011,commdev-image-keyboard-response,288,1111720,learnblock1,906.8999999761581,img/planet4_left.png,4,Community 1,NA,FALSE,j,f,NA,NA,NA,4,6,"6,7,9,4,12,1,14,2,3,10,11,8,13,15,5"
15011,commdev-image-keyboard-response,289,1112971,learnblock1,26.5,img/planet9_left.png,9,Community 1,NA,TRUE,f,f,NA,NA,NA,4,6,"6,7,9,4,12,1,14,2,3,10,11,8,13,15,5"
15011,commdev-image-keyboard-response,290,1114225,learnblock1,804.7000000476837,img/planet7_right.png,7,Community 1,NA,FALSE,f,j,NA,NA,NA,4,6,"6,7,9,4,12,1,14,2,3,10,11,8,13,15,5"
15011,commdev-image-keyboard-response,291,1115479,learnblock1,1022.3999999761581,img/planet12_left.png,12,Community 1,NA,TRUE,f,f,NA,NA,NA,4,6,"6,7,9,4,12,1,14,2,3,10,11,8,13,15,5"
15011,commdev-image-keyboard-response,292,1116738,learnblock1,1212.6999999284744,img/planet6_right.png,6,Community 1,NA,TRUE,j,j,NA,NA,NA,4,6,"6,7,9,4,12,1,14,2,3,10,11,8,13,15,5"
15011,commdev-image-keyboard-response,293,1118002,learnblock1,787.8000000715256,img/planet9_right.png,9,Community 1,NA,TRUE,j,j,NA,NA,NA,4,6,"6,7,9,4,12,1,14,2,3,10,11,8,13,15,5"
15011,commdev-image-keyboard-response,294,1119266,learnblock1,808.2000000476837,img/planet4_left.png,4,Community 1,NA,TRUE,f,f,NA,NA,NA,4,6,"6,7,9,4,12,1,14,2,3,10,11,8,13,15,5"
15011,commdev-image-keyboard-response,295,1120525,learnblock1,619.1000000238419,img/planet1_right.png,1,Community 2,NA,TRUE,j,j,NA,NA,NA,4,6,"6,7,9,4,12,1,14,2,3,10,11,8,13,15,5"
15011,commdev-image-keyboard-response,296,1121777,learnblock1,895.7999999523163,img/planet10_left.png,10,Community 2,NA,TRUE,f,f,NA,NA,NA,4,6,"6,7,9,4,12,1,14,2,3,10,11,8,13,15,5"
15011,commdev-image-keyboard-response,297,1123039,learnblock1,1017.6000000238419,img/planet3_left.png,3,Community 2,NA,TRUE,f,f,NA,NA,NA,4,6,"6,7,9,4,12,1,14,2,3,10,11,8,13,15,5"
15011,commdev-image-keyboard-response,298,1124294,learnblock1,847.4000000953674,img/planet10_right.png,10,Community 2,NA,TRUE,j,j,NA,NA,NA,4,6,"6,7,9,4,12,1,14,2,3,10,11,8,13,15,5"
15011,commdev-image-keyboard-response,299,1125550,learnblock1,950.2999999523163,img/planet3_right.png,3,Community 2,NA,TRUE,j,j,NA,NA,NA,4,6,"6,7,9,4,12,1,14,2,3,10,11,8,13,15,5"
15011,commdev-image-keyboard-response,300,1126806,learnblock1,829.5,img/planet10_left.png,10,Community 2,NA,TRUE,f,f,NA,NA,NA,4,6,"6,7,9,4,12,1,14,2,3,10,11,8,13,15,5"
15011,commdev-image-keyboard-response,301,1128065,learnblock1,648.5,img/planet1_right.png,1,Community 2,NA,TRUE,j,j,NA,NA,NA,4,6,"6,7,9,4,12,1,14,2,3,10,11,8,13,15,5"
15011,commdev-image-keyboard-response,302,1129319,learnblock1,1195,img/planet4_left.png,4,Community 1,NA,TRUE,f,f,NA,NA,NA,4,6,"6,7,9,4,12,1,14,2,3,10,11,8,13,15,5"
15011,commdev-image-keyboard-response,303,1130576,learnblock1,865.3999999761581,img/planet6_right.png,6,Community 1,NA,TRUE,j,j,NA,NA,NA,4,6,"6,7,9,4,12,1,14,2,3,10,11,8,13,15,5"
15011,commdev-image-keyboard-response,304,1131830,learnblock1,848.7999999523163,img/planet4_right.png,4,Community 1,NA,TRUE,j,j,NA,NA,NA,4,6,"6,7,9,4,12,1,14,2,3,10,11,8,13,15,5"
15011,commdev-image-keyboard-response,305,1133082,learnblock1,820.2999999523163,img/planet7_right.png,7,Community 1,NA,TRUE,j,j,NA,NA,NA,4,6,"6,7,9,4,12,1,14,2,3,10,11,8,13,15,5"
15011,commdev-image-keyboard-response,306,1134338,learnblock1,790,img/planet9_right.png,9,Community 1,NA,TRUE,j,j,NA,NA,NA,4,6,"6,7,9,4,12,1,14,2,3,10,11,8,13,15,5"
15011,commdev-image-keyboard-response,307,1135603,learnblock1,811.2000000476837,img/planet4_right.png,4,Community 1,NA,TRUE,j,j,NA,NA,NA,4,6,"6,7,9,4,12,1,14,2,3,10,11,8,13,15,5"
15011,commdev-image-keyboard-response,308,1136862,learnblock1,802.6000000238419,img/planet1_right.png,1,Community 2,NA,TRUE,j,j,NA,NA,NA,4,6,"6,7,9,4,12,1,14,2,3,10,11,8,13,15,5"
15011,commdev-image-keyboard-response,309,1138119,learnblock1,832.8999999761581,img/planet4_left.png,4,Community 1,NA,TRUE,f,f,NA,NA,NA,4,6,"6,7,9,4,12,1,14,2,3,10,11,8,13,15,5"
15011,commdev-image-keyboard-response,310,1139377,learnblock1,752.3999999761581,img/planet1_left.png,1,Community 2,NA,TRUE,f,f,NA,NA,NA,4,6,"6,7,9,4,12,1,14,2,3,10,11,8,13,15,5"
15011,commdev-image-keyboard-response,311,1140635,learnblock1,659.7999999523163,img/planet10_left.png,10,Community 2,NA,TRUE,f,f,NA,NA,NA,4,6,"6,7,9,4,12,1,14,2,3,10,11,8,13,15,5"
15011,commdev-image-keyboard-response,312,1141890,learnblock1,703,img/planet14_left.png,14,Community 2,NA,TRUE,f,f,NA,NA,NA,4,6,"6,7,9,4,12,1,14,2,3,10,11,8,13,15,5"
15011,commdev-image-keyboard-response,313,1143142,learnblock1,507.89999997615814,img/planet1_right.png,1,Community 2,NA,FALSE,f,j,NA,NA,NA,4,6,"6,7,9,4,12,1,14,2,3,10,11,8,13,15,5"
15011,commdev-image-keyboard-response,314,1144399,learnblock1,955.7000000476837,img/planet10_right.png,10,Community 2,NA,TRUE,j,j,NA,NA,NA,4,6,"6,7,9,4,12,1,14,2,3,10,11,8,13,15,5"
15011,commdev-image-keyboard-response,315,1145660,learnblock1,515.5999999046326,img/planet3_right.png,3,Community 2,NA,TRUE,j,j,NA,NA,NA,4,6,"6,7,9,4,12,1,14,2,3,10,11,8,13,15,5"
15011,commdev-image-keyboard-response,316,1146923,learnblock1,597.0999999046326,img/planet1_left.png,1,Community 2,NA,TRUE,f,f,NA,NA,NA,4,6,"6,7,9,4,12,1,14,2,3,10,11,8,13,15,5"
15011,commdev-image-keyboard-response,317,1148183,learnblock1,548.2999999523163,img/planet10_right.png,10,Community 2,NA,FALSE,f,j,NA,NA,NA,4,6,"6,7,9,4,12,1,14,2,3,10,11,8,13,15,5"
15011,commdev-image-keyboard-response,318,1149436,learnblock1,783.5,img/planet1_left.png,1,Community 2,NA,TRUE,f,f,NA,NA,NA,4,6,"6,7,9,4,12,1,14,2,3,10,11,8,13,15,5"
15011,commdev-image-keyboard-response,319,1150690,learnblock1,941.7000000476837,img/planet4_left.png,4,Community 1,NA,TRUE,f,f,NA,NA,NA,4,6,"6,7,9,4,12,1,14,2,3,10,11,8,13,15,5"
15011,commdev-image-keyboard-response,320,1151942,learnblock1,1067.3000000715256,img/planet9_left.png,9,Community 1,NA,TRUE,f,f,NA,NA,NA,4,6,"6,7,9,4,12,1,14,2,3,10,11,8,13,15,5"
15011,commdev-image-keyboard-response,321,1153203,learnblock1,696.5,img/planet6_right.png,6,Community 1,NA,TRUE,j,j,NA,NA,NA,4,6,"6,7,9,4,12,1,14,2,3,10,11,8,13,15,5"
15011,commdev-image-keyboard-response,322,1154460,learnblock1,591.8999999761581,img/planet9_left.png,9,Community 1,NA,TRUE,f,f,NA,NA,NA,4,6,"6,7,9,4,12,1,14,2,3,10,11,8,13,15,5"
15011,commdev-image-keyboard-response,323,1155716,learnblock1,603.3000000715256,img/planet7_right.png,7,Community 1,NA,TRUE,j,j,NA,NA,NA,4,6,"6,7,9,4,12,1,14,2,3,10,11,8,13,15,5"
15011,commdev-image-keyboard-response,324,1156972,learnblock1,845.3999999761581,img/planet9_right.png,9,Community 1,NA,TRUE,j,j,NA,NA,NA,4,6,"6,7,9,4,12,1,14,2,3,10,11,8,13,15,5"
15011,commdev-image-keyboard-response,325,1158226,learnblock1,816.1000000238419,img/planet7_left.png,7,Community 1,NA,TRUE,f,f,NA,NA,NA,4,6,"6,7,9,4,12,1,14,2,3,10,11,8,13,15,5"
15011,commdev-image-keyboard-response,326,1159486,learnblock1,800.9000000953674,img/planet9_left.png,9,Community 1,NA,TRUE,f,f,NA,NA,NA,4,6,"6,7,9,4,12,1,14,2,3,10,11,8,13,15,5"
15011,commdev-image-keyboard-response,327,1160743,learnblock1,1012.5,img/planet4_left.png,4,Community 1,NA,FALSE,j,f,NA,NA,NA,4,6,"6,7,9,4,12,1,14,2,3,10,11,8,13,15,5"
15011,commdev-image-keyboard-response,328,1161996,learnblock1,872.7999999523163,img/planet1_right.png,1,Community 2,NA,TRUE,j,j,NA,NA,NA,4,6,"6,7,9,4,12,1,14,2,3,10,11,8,13,15,5"
15011,commdev-image-keyboard-response,329,1163253,learnblock1,894.2999999523163,img/planet3_right.png,3,Community 2,NA,TRUE,j,j,NA,NA,NA,4,6,"6,7,9,4,12,1,14,2,3,10,11,8,13,15,5"
15011,commdev-image-keyboard-response,330,1164508,learnblock1,767,img/planet14_left.png,14,Community 2,NA,TRUE,f,f,NA,NA,NA,4,6,"6,7,9,4,12,1,14,2,3,10,11,8,13,15,5"
15011,commdev-image-keyboard-response,331,1165768,learnblock1,734.7000000476837,img/planet1_left.png,1,Community 2,NA,TRUE,f,f,NA,NA,NA,4,6,"6,7,9,4,12,1,14,2,3,10,11,8,13,15,5"
15011,commdev-image-keyboard-response,332,1167024,learnblock1,782.8999999761581,img/planet14_right.png,14,Community 2,NA,TRUE,j,j,NA,NA,NA,4,6,"6,7,9,4,12,1,14,2,3,10,11,8,13,15,5"
15011,commdev-image-keyboard-response,333,1168280,learnblock1,753.6000000238419,img/planet1_right.png,1,Community 2,NA,TRUE,j,j,NA,NA,NA,4,6,"6,7,9,4,12,1,14,2,3,10,11,8,13,15,5"
15011,commdev-image-keyboard-response,334,1169543,learnblock1,793.2000000476837,img/planet3_left.png,3,Community 2,NA,TRUE,f,f,NA,NA,NA,4,6,"6,7,9,4,12,1,14,2,3,10,11,8,13,15,5"
15011,commdev-image-keyboard-response,335,1170807,learnblock1,669.6000000238419,img/planet10_right.png,10,Community 2,NA,TRUE,j,j,NA,NA,NA,4,6,"6,7,9,4,12,1,14,2,3,10,11,8,13,15,5"
15011,commdev-image-keyboard-response,336,1172062,learnblock1,1214,img/planet14_right.png,14,Community 2,NA,FALSE,f,j,NA,NA,NA,4,6,"6,7,9,4,12,1,14,2,3,10,11,8,13,15,5"
15011,commdev-image-keyboard-response,337,1173319,learnblock1,1050.6000000238419,img/planet1_right.png,1,Community 2,NA,TRUE,j,j,NA,NA,NA,4,6,"6,7,9,4,12,1,14,2,3,10,11,8,13,15,5"
15011,commdev-image-keyboard-response,338,1174577,learnblock1,1151.3999999761581,img/planet3_right.png,3,Community 2,NA,FALSE,f,j,NA,NA,NA,4,6,"6,7,9,4,12,1,14,2,3,10,11,8,13,15,5"
15011,commdev-image-keyboard-response,339,1175830,learnblock1,739.4000000953674,img/planet10_right.png,10,Community 2,NA,TRUE,j,j,NA,NA,NA,4,6,"6,7,9,4,12,1,14,2,3,10,11,8,13,15,5"
15011,commdev-image-keyboard-response,340,1177084,learnblock1,911.2000000476837,img/planet3_left.png,3,Community 2,NA,TRUE,f,f,NA,NA,NA,4,6,"6,7,9,4,12,1,14,2,3,10,11,8,13,15,5"
15011,commdev-image-keyboard-response,341,1178344,learnblock1,null,img/planet2_right.png,2,Community 2,NA,FALSE,null,j,NA,NA,NA,4,6,"6,7,9,4,12,1,14,2,3,10,11,8,13,15,5"
15011,commdev-image-keyboard-response,342,1179596,learnblock1,292.5,img/planet14_right.png,14,Community 2,NA,FALSE,f,j,NA,NA,NA,4,6,"6,7,9,4,12,1,14,2,3,10,11,8,13,15,5"
15011,commdev-image-keyboard-response,343,1180848,learnblock1,925.5,img/planet2_left.png,2,Community 2,NA,TRUE,f,f,NA,NA,NA,4,6,"6,7,9,4,12,1,14,2,3,10,11,8,13,15,5"
15011,commdev-image-keyboard-response,344,1182108,learnblock1,544,img/planet10_right.png,10,Community 2,NA,FALSE,f,j,NA,NA,NA,4,6,"6,7,9,4,12,1,14,2,3,10,11,8,13,15,5"
15011,commdev-image-keyboard-response,345,1183364,learnblock1,940.3999999761581,img/planet14_right.png,14,Community 2,NA,TRUE,j,j,NA,NA,NA,4,6,"6,7,9,4,12,1,14,2,3,10,11,8,13,15,5"
15011,commdev-image-keyboard-response,346,1184621,learnblock1,665.6999999284744,img/planet10_right.png,10,Community 2,NA,TRUE,j,j,NA,NA,NA,4,6,"6,7,9,4,12,1,14,2,3,10,11,8,13,15,5"
15011,commdev-image-keyboard-response,347,1185886,learnblock1,613.6000000238419,img/planet2_right.png,2,Community 2,NA,TRUE,j,j,NA,NA,NA,4,6,"6,7,9,4,12,1,14,2,3,10,11,8,13,15,5"
15011,commdev-image-keyboard-response,348,1187143,learnblock1,894.6000000238419,img/planet8_left.png,8,Community 3,NA,TRUE,f,f,NA,NA,NA,4,6,"6,7,9,4,12,1,14,2,3,10,11,8,13,15,5"
15011,commdev-image-keyboard-response,349,1188398,learnblock1,896.3000000715256,img/planet13_left.png,13,Community 3,NA,TRUE,f,f,NA,NA,NA,4,6,"6,7,9,4,12,1,14,2,3,10,11,8,13,15,5"
15011,commdev-image-keyboard-response,350,1189651,learnblock1,null,img/planet8_left.png,8,Community 3,NA,FALSE,null,f,NA,NA,NA,4,6,"6,7,9,4,12,1,14,2,3,10,11,8,13,15,5"
15011,commdev-image-keyboard-response,351,1190905,learnblock1,8.300000071525574,img/planet15_left.png,15,Community 3,NA,FALSE,j,f,NA,NA,NA,4,6,"6,7,9,4,12,1,14,2,3,10,11,8,13,15,5"
15011,commdev-image-keyboard-response,352,1192158,learnblock1,1008.7000000476837,img/planet13_left.png,13,Community 3,NA,TRUE,f,f,NA,NA,NA,4,6,"6,7,9,4,12,1,14,2,3,10,11,8,13,15,5"
15011,commdev-image-keyboard-response,353,1193414,learnblock1,766.1999999284744,img/planet5_right.png,5,Community 3,NA,TRUE,j,j,NA,NA,NA,4,6,"6,7,9,4,12,1,14,2,3,10,11,8,13,15,5"
15011,commdev-image-keyboard-response,354,1194666,learnblock1,1004.2999999523163,img/planet13_right.png,13,Community 3,NA,TRUE,j,j,NA,NA,NA,4,6,"6,7,9,4,12,1,14,2,3,10,11,8,13,15,5"
15011,commdev-image-keyboard-response,355,1195919,learnblock1,752.6000000238419,img/planet11_left.png,11,Community 3,NA,TRUE,f,f,NA,NA,NA,4,6,"6,7,9,4,12,1,14,2,3,10,11,8,13,15,5"
15011,commdev-image-keyboard-response,356,1197176,learnblock1,873.6000000238419,img/planet12_right.png,12,Community 1,NA,TRUE,j,j,NA,NA,NA,4,6,"6,7,9,4,12,1,14,2,3,10,11,8,13,15,5"
15011,commdev-image-keyboard-response,357,1198433,learnblock1,852.8999999761581,img/planet9_right.png,9,Community 1,NA,TRUE,j,j,NA,NA,NA,4,6,"6,7,9,4,12,1,14,2,3,10,11,8,13,15,5"
15011,commdev-image-keyboard-response,358,1199698,learnblock1,934,img/planet7_left.png,7,Community 1,NA,FALSE,j,f,NA,NA,NA,4,6,"6,7,9,4,12,1,14,2,3,10,11,8,13,15,5"
15011,commdev-image-keyboard-response,359,1200956,learnblock1,150.79999995231628,img/planet6_right.png,6,Community 1,NA,FALSE,f,j,NA,NA,NA,4,6,"6,7,9,4,12,1,14,2,3,10,11,8,13,15,5"
15011,commdev-image-keyboard-response,360,1202212,learnblock1,874,img/planet9_left.png,9,Community 1,NA,TRUE,f,f,NA,NA,NA,4,6,"6,7,9,4,12,1,14,2,3,10,11,8,13,15,5"
15011,commdev-image-keyboard-response,361,1203468,learnblock1,1193.6999999284744,img/planet4_left.png,4,Community 1,NA,TRUE,f,f,NA,NA,NA,4,6,"6,7,9,4,12,1,14,2,3,10,11,8,13,15,5"
15011,commdev-image-keyboard-response,362,1204726,learnblock1,1150.1000000238419,img/planet7_left.png,7,Community 1,NA,TRUE,f,f,NA,NA,NA,4,6,"6,7,9,4,12,1,14,2,3,10,11,8,13,15,5"
15011,commdev-image-keyboard-response,363,1205980,learnblock1,954.9000000953674,img/planet4_right.png,4,Community 1,NA,TRUE,j,j,NA,NA,NA,4,6,"6,7,9,4,12,1,14,2,3,10,11,8,13,15,5"
15011,commdev-image-keyboard-response,364,1207245,learnblock1,863.8999999761581,img/planet7_right.png,7,Community 1,NA,TRUE,j,j,NA,NA,NA,4,6,"6,7,9,4,12,1,14,2,3,10,11,8,13,15,5"
15011,commdev-image-keyboard-response,365,1208497,learnblock1,925.1999999284744,img/planet4_left.png,4,Community 1,NA,TRUE,f,f,NA,NA,NA,4,6,"6,7,9,4,12,1,14,2,3,10,11,8,13,15,5"
15011,commdev-image-keyboard-response,366,1209758,learnblock1,780.2999999523163,img/planet1_right.png,1,Community 2,NA,TRUE,j,j,NA,NA,NA,4,6,"6,7,9,4,12,1,14,2,3,10,11,8,13,15,5"
15011,commdev-image-keyboard-response,367,1211018,learnblock1,811.3999999761581,img/planet4_right.png,4,Community 1,NA,TRUE,j,j,NA,NA,NA,4,6,"6,7,9,4,12,1,14,2,3,10,11,8,13,15,5"
15011,commdev-image-keyboard-response,368,1212271,learnblock1,647.8999999761581,img/planet6_right.png,6,Community 1,NA,TRUE,j,j,NA,NA,NA,4,6,"6,7,9,4,12,1,14,2,3,10,11,8,13,15,5"
15011,commdev-image-keyboard-response,369,1213527,learnblock1,679,img/planet4_right.png,4,Community 1,NA,TRUE,j,j,NA,NA,NA,4,6,"6,7,9,4,12,1,14,2,3,10,11,8,13,15,5"
15011,commdev-image-keyboard-response,370,1214785,learnblock1,741.2000000476837,img/planet9_right.png,9,Community 1,NA,TRUE,j,j,NA,NA,NA,4,6,"6,7,9,4,12,1,14,2,3,10,11,8,13,15,5"
15011,commdev-image-keyboard-response,371,1216041,learnblock1,800.2999999523163,img/planet7_right.png,7,Community 1,NA,TRUE,j,j,NA,NA,NA,4,6,"6,7,9,4,12,1,14,2,3,10,11,8,13,15,5"
15011,commdev-image-keyboard-response,372,1217300,learnblock1,668.2999999523163,img/planet6_right.png,6,Community 1,NA,TRUE,j,j,NA,NA,NA,4,6,"6,7,9,4,12,1,14,2,3,10,11,8,13,15,5"
15011,commdev-image-keyboard-response,373,1218557,learnblock1,757.3999999761581,img/planet4_left.png,4,Community 1,NA,TRUE,f,f,NA,NA,NA,4,6,"6,7,9,4,12,1,14,2,3,10,11,8,13,15,5"
15011,commdev-image-keyboard-response,374,1219809,learnblock1,1179.2000000476837,img/planet6_left.png,6,Community 1,NA,TRUE,f,f,NA,NA,NA,4,6,"6,7,9,4,12,1,14,2,3,10,11,8,13,15,5"
15011,commdev-image-keyboard-response,375,1221064,learnblock1,765.5,img/planet9_right.png,9,Community 1,NA,TRUE,j,j,NA,NA,NA,4,6,"6,7,9,4,12,1,14,2,3,10,11,8,13,15,5"
15011,commdev-image-keyboard-response,376,1222323,learnblock1,711.6000000238419,img/planet7_right.png,7,Community 1,NA,TRUE,j,j,NA,NA,NA,4,6,"6,7,9,4,12,1,14,2,3,10,11,8,13,15,5"
15011,commdev-image-keyboard-response,377,1223582,learnblock1,806.8999999761581,img/planet4_left.png,4,Community 1,NA,TRUE,f,f,NA,NA,NA,4,6,"6,7,9,4,12,1,14,2,3,10,11,8,13,15,5"
15011,commdev-image-keyboard-response,378,1224841,learnblock1,936.7000000476837,img/planet7_left.png,7,Community 1,NA,TRUE,f,f,NA,NA,NA,4,6,"6,7,9,4,12,1,14,2,3,10,11,8,13,15,5"
15011,commdev-image-keyboard-response,379,1226102,learnblock1,819.3999999761581,img/planet12_left.png,12,Community 1,NA,TRUE,f,f,NA,NA,NA,4,6,"6,7,9,4,12,1,14,2,3,10,11,8,13,15,5"
15011,commdev-image-keyboard-response,380,1227367,learnblock1,912.7999999523163,img/planet11_left.png,11,Community 3,NA,TRUE,f,f,NA,NA,NA,4,6,"6,7,9,4,12,1,14,2,3,10,11,8,13,15,5"
15011,commdev-image-keyboard-response,381,1228622,learnblock1,995.8000000715256,img/planet5_right.png,5,Community 3,NA,TRUE,j,j,NA,NA,NA,4,6,"6,7,9,4,12,1,14,2,3,10,11,8,13,15,5"
15011,commdev-image-keyboard-response,382,1229875,learnblock1,777.3999999761581,img/planet13_right.png,13,Community 3,NA,TRUE,j,j,NA,NA,NA,4,6,"6,7,9,4,12,1,14,2,3,10,11,8,13,15,5"
15011,commdev-image-keyboard-response,383,1231134,learnblock1,841.9000000953674,img/planet11_left.png,11,Community 3,NA,TRUE,f,f,NA,NA,NA,4,6,"6,7,9,4,12,1,14,2,3,10,11,8,13,15,5"
15011,commdev-image-keyboard-response,384,1232391,learnblock1,972.1000000238419,img/planet12_left.png,12,Community 1,NA,TRUE,f,f,NA,NA,NA,4,6,"6,7,9,4,12,1,14,2,3,10,11,8,13,15,5"
15011,commdev-image-keyboard-response,385,1233649,learnblock1,664.2000000476837,img/planet7_right.png,7,Community 1,NA,TRUE,j,j,NA,NA,NA,4,6,"6,7,9,4,12,1,14,2,3,10,11,8,13,15,5"
15011,commdev-image-keyboard-response,386,1234906,learnblock1,786.7000000476837,img/planet9_left.png,9,Community 1,NA,TRUE,f,f,NA,NA,NA,4,6,"6,7,9,4,12,1,14,2,3,10,11,8,13,15,5"
15011,commdev-image-keyboard-response,387,1236166,learnblock1,578.5,img/planet7_right.png,7,Community 1,NA,TRUE,j,j,NA,NA,NA,4,6,"6,7,9,4,12,1,14,2,3,10,11,8,13,15,5"
15011,commdev-image-keyboard-response,388,1237420,learnblock1,831.1000000238419,img/planet4_right.png,4,Community 1,NA,TRUE,j,j,NA,NA,NA,4,6,"6,7,9,4,12,1,14,2,3,10,11,8,13,15,5"
15011,commdev-image-keyboard-response,389,1238677,learnblock1,828.3000000715256,img/planet7_left.png,7,Community 1,NA,TRUE,f,f,NA,NA,NA,4,6,"6,7,9,4,12,1,14,2,3,10,11,8,13,15,5"
15011,commdev-image-keyboard-response,390,1239935,learnblock1,828.2999999523163,img/planet9_left.png,9,Community 1,NA,TRUE,f,f,NA,NA,NA,4,6,"6,7,9,4,12,1,14,2,3,10,11,8,13,15,5"
15011,commdev-image-keyboard-response,391,1241192,learnblock1,779.5,img/planet7_right.png,7,Community 1,NA,TRUE,j,j,NA,NA,NA,4,6,"6,7,9,4,12,1,14,2,3,10,11,8,13,15,5"
15011,commdev-image-keyboard-response,392,1242445,learnblock1,859.8000000715256,img/planet6_right.png,6,Community 1,NA,TRUE,j,j,NA,NA,NA,4,6,"6,7,9,4,12,1,14,2,3,10,11,8,13,15,5"
15011,commdev-image-keyboard-response,393,1243697,learnblock1,948.8999999761581,img/planet12_right.png,12,Community 1,NA,TRUE,j,j,NA,NA,NA,4,6,"6,7,9,4,12,1,14,2,3,10,11,8,13,15,5"
15011,commdev-image-keyboard-response,394,1244949,learnblock1,805.8000000715256,img/planet9_right.png,9,Community 1,NA,TRUE,j,j,NA,NA,NA,4,6,"6,7,9,4,12,1,14,2,3,10,11,8,13,15,5"
15011,commdev-image-keyboard-response,395,1246201,learnblock1,751.1999999284744,img/planet7_right.png,7,Community 1,NA,FALSE,f,j,NA,NA,NA,4,6,"6,7,9,4,12,1,14,2,3,10,11,8,13,15,5"
15011,commdev-image-keyboard-response,396,1247453,learnblock1,1113.8999999761581,img/planet4_right.png,4,Community 1,NA,TRUE,j,j,NA,NA,NA,4,6,"6,7,9,4,12,1,14,2,3,10,11,8,13,15,5"
15011,commdev-image-keyboard-response,397,1248709,learnblock1,1041.5,img/planet6_right.png,6,Community 1,NA,TRUE,j,j,NA,NA,NA,4,6,"6,7,9,4,12,1,14,2,3,10,11,8,13,15,5"
15011,commdev-image-keyboard-response,398,1249971,learnblock1,730.6999999284744,img/planet7_right.png,7,Community 1,NA,TRUE,j,j,NA,NA,NA,4,6,"6,7,9,4,12,1,14,2,3,10,11,8,13,15,5"
15011,commdev-image-keyboard-response,399,1251224,learnblock1,791.6000000238419,img/planet6_left.png,6,Community 1,NA,TRUE,f,f,NA,NA,NA,4,6,"6,7,9,4,12,1,14,2,3,10,11,8,13,15,5"
15011,commdev-image-keyboard-response,400,1252482,learnblock1,1040.7000000476837,img/planet9_left.png,9,Community 1,NA,TRUE,f,f,NA,NA,NA,4,6,"6,7,9,4,12,1,14,2,3,10,11,8,13,15,5"
15011,commdev-image-keyboard-response,401,1253740,learnblock1,995,img/planet6_left.png,6,Community 1,NA,TRUE,f,f,NA,NA,NA,4,6,"6,7,9,4,12,1,14,2,3,10,11,8,13,15,5"
15011,commdev-image-keyboard-response,402,1254994,learnblock1,801.2000000476837,img/planet7_left.png,7,Community 1,NA,TRUE,f,f,NA,NA,NA,4,6,"6,7,9,4,12,1,14,2,3,10,11,8,13,15,5"
15011,commdev-image-keyboard-response,403,1256254,learnblock1,764.6000000238419,img/planet4_right.png,4,Community 1,NA,TRUE,j,j,NA,NA,NA,4,6,"6,7,9,4,12,1,14,2,3,10,11,8,13,15,5"
15011,commdev-image-keyboard-response,404,1257522,learnblock1,643.6000000238419,img/planet7_left.png,7,Community 1,NA,TRUE,f,f,NA,NA,NA,4,6,"6,7,9,4,12,1,14,2,3,10,11,8,13,15,5"
15011,commdev-image-keyboard-response,405,1258776,learnblock1,813.6000000238419,img/planet12_left.png,12,Community 1,NA,TRUE,f,f,NA,NA,NA,4,6,"6,7,9,4,12,1,14,2,3,10,11,8,13,15,5"
15011,commdev-image-keyboard-response,406,1260034,learnblock1,736.1000000238419,img/planet6_right.png,6,Community 1,NA,TRUE,j,j,NA,NA,NA,4,6,"6,7,9,4,12,1,14,2,3,10,11,8,13,15,5"
15011,commdev-image-keyboard-response,407,1261292,learnblock1,716.6000000238419,img/planet12_right.png,12,Community 1,NA,TRUE,j,j,NA,NA,NA,4,6,"6,7,9,4,12,1,14,2,3,10,11,8,13,15,5"
15011,commdev-image-keyboard-response,408,1262547,learnblock1,852,img/planet9_right.png,9,Community 1,NA,TRUE,j,j,NA,NA,NA,4,6,"6,7,9,4,12,1,14,2,3,10,11,8,13,15,5"
15011,commdev-image-keyboard-response,409,1263804,learnblock1,780.8999999761581,img/planet12_left.png,12,Community 1,NA,TRUE,f,f,NA,NA,NA,4,6,"6,7,9,4,12,1,14,2,3,10,11,8,13,15,5"
15011,commdev-image-keyboard-response,413,1544652,learnblock2,853.6000000238419,img/planet4_right.png,4,Community 1,NA,TRUE,j,j,NA,NA,NA,4,6,"6,7,9,4,12,1,14,2,3,10,11,8,13,15,5"
15011,commdev-image-keyboard-response,414,1545915,learnblock2,559.6000000238419,img/planet9_right.png,9,Community 1,NA,TRUE,j,j,NA,NA,NA,4,6,"6,7,9,4,12,1,14,2,3,10,11,8,13,15,5"
15011,commdev-image-keyboard-response,415,1547181,learnblock2,754.2999999523163,img/planet12_left.png,12,Community 1,NA,TRUE,f,f,NA,NA,NA,4,6,"6,7,9,4,12,1,14,2,3,10,11,8,13,15,5"
15011,commdev-image-keyboard-response,416,1548436,learnblock2,663.7999999523163,img/planet11_right.png,11,Community 3,NA,TRUE,j,j,NA,NA,NA,4,6,"6,7,9,4,12,1,14,2,3,10,11,8,13,15,5"
15011,commdev-image-keyboard-response,417,1549693,learnblock2,771.5,img/planet15_right.png,15,Community 3,NA,TRUE,j,j,NA,NA,NA,4,6,"6,7,9,4,12,1,14,2,3,10,11,8,13,15,5"
15011,commdev-image-keyboard-response,418,1550951,learnblock2,717.6000000238419,img/planet13_right.png,13,Community 3,NA,TRUE,j,j,NA,NA,NA,4,6,"6,7,9,4,12,1,14,2,3,10,11,8,13,15,5"
15011,commdev-image-keyboard-response,419,1552204,learnblock2,566.3000000715256,img/planet15_left.png,15,Community 3,NA,TRUE,f,f,NA,NA,NA,4,6,"6,7,9,4,12,1,14,2,3,10,11,8,13,15,5"
15011,commdev-image-keyboard-response,420,1553460,learnblock2,675.7000000476837,img/planet11_right.png,11,Community 3,NA,TRUE,j,j,NA,NA,NA,4,6,"6,7,9,4,12,1,14,2,3,10,11,8,13,15,5"
15011,commdev-image-keyboard-response,421,1554716,learnblock2,574.8999999761581,img/planet15_left.png,15,Community 3,NA,TRUE,f,f,NA,NA,NA,4,6,"6,7,9,4,12,1,14,2,3,10,11,8,13,15,5"
15011,commdev-image-keyboard-response,422,1555973,learnblock2,656.7000000476837,img/planet11_right.png,11,Community 3,NA,TRUE,j,j,NA,NA,NA,4,6,"6,7,9,4,12,1,14,2,3,10,11,8,13,15,5"
15011,commdev-image-keyboard-response,423,1557228,learnblock2,673.1000000238419,img/planet15_right.png,15,Community 3,NA,TRUE,j,j,NA,NA,NA,4,6,"6,7,9,4,12,1,14,2,3,10,11,8,13,15,5"
15011,commdev-image-keyboard-response,424,1558485,learnblock2,663.8000000715256,img/planet11_right.png,11,Community 3,NA,TRUE,j,j,NA,NA,NA,4,6,"6,7,9,4,12,1,14,2,3,10,11,8,13,15,5"
15011,commdev-image-keyboard-response,425,1559745,learnblock2,620.3999999761581,img/planet12_left.png,12,Community 1,NA,TRUE,f,f,NA,NA,NA,4,6,"6,7,9,4,12,1,14,2,3,10,11,8,13,15,5"
15011,commdev-image-keyboard-response,426,1561003,learnblock2,549.0999999046326,img/planet7_right.png,7,Community 1,NA,TRUE,j,j,NA,NA,NA,4,6,"6,7,9,4,12,1,14,2,3,10,11,8,13,15,5"
15011,commdev-image-keyboard-response,427,1562259,learnblock2,697.8999999761581,img/planet9_left.png,9,Community 1,NA,TRUE,f,f,NA,NA,NA,4,6,"6,7,9,4,12,1,14,2,3,10,11,8,13,15,5"
15011,commdev-image-keyboard-response,428,1563511,learnblock2,638.9000000953674,img/planet4_right.png,4,Community 1,NA,TRUE,j,j,NA,NA,NA,4,6,"6,7,9,4,12,1,14,2,3,10,11,8,13,15,5"
15011,commdev-image-keyboard-response,429,1564764,learnblock2,533.1000000238419,img/planet7_left.png,7,Community 1,NA,TRUE,f,f,NA,NA,NA,4,6,"6,7,9,4,12,1,14,2,3,10,11,8,13,15,5"
15011,commdev-image-keyboard-response,430,1566016,learnblock2,780.2999999523163,img/planet4_left.png,4,Community 1,NA,TRUE,f,f,NA,NA,NA,4,6,"6,7,9,4,12,1,14,2,3,10,11,8,13,15,5"
15011,commdev-image-keyboard-response,431,1567277,learnblock2,757.6000000238419,img/planet1_right.png,1,Community 2,NA,TRUE,j,j,NA,NA,NA,4,6,"6,7,9,4,12,1,14,2,3,10,11,8,13,15,5"
15011,commdev-image-keyboard-response,432,1568533,learnblock2,630.9000000953674,img/planet3_left.png,3,Community 2,NA,TRUE,f,f,NA,NA,NA,4,6,"6,7,9,4,12,1,14,2,3,10,11,8,13,15,5"
15011,commdev-image-keyboard-response,433,1569793,learnblock2,916.8999999761581,img/planet2_right.png,2,Community 2,NA,TRUE,j,j,NA,NA,NA,4,6,"6,7,9,4,12,1,14,2,3,10,11,8,13,15,5"
15011,commdev-image-keyboard-response,434,1571047,learnblock2,514.8999999761581,img/planet10_left.png,10,Community 2,NA,TRUE,f,f,NA,NA,NA,4,6,"6,7,9,4,12,1,14,2,3,10,11,8,13,15,5"
15011,commdev-image-keyboard-response,435,1572300,learnblock2,776.3999999761581,img/planet3_left.png,3,Community 2,NA,TRUE,f,f,NA,NA,NA,4,6,"6,7,9,4,12,1,14,2,3,10,11,8,13,15,5"
15011,commdev-image-keyboard-response,436,1573562,learnblock2,555.2000000476837,img/planet2_right.png,2,Community 2,NA,TRUE,j,j,NA,NA,NA,4,6,"6,7,9,4,12,1,14,2,3,10,11,8,13,15,5"
15011,commdev-image-keyboard-response,437,1574818,learnblock2,770.8999999761581,img/planet14_left.png,14,Community 2,NA,TRUE,f,f,NA,NA,NA,4,6,"6,7,9,4,12,1,14,2,3,10,11,8,13,15,5"
15011,commdev-image-keyboard-response,438,1576071,learnblock2,578.5,img/planet3_right.png,3,Community 2,NA,TRUE,j,j,NA,NA,NA,4,6,"6,7,9,4,12,1,14,2,3,10,11,8,13,15,5"
15011,commdev-image-keyboard-response,439,1577331,learnblock2,742.6999999284744,img/planet10_right.png,10,Community 2,NA,TRUE,j,j,NA,NA,NA,4,6,"6,7,9,4,12,1,14,2,3,10,11,8,13,15,5"
15011,commdev-image-keyboard-response,440,1578590,learnblock2,559.7999999523163,img/planet14_left.png,14,Community 2,NA,TRUE,f,f,NA,NA,NA,4,6,"6,7,9,4,12,1,14,2,3,10,11,8,13,15,5"
15011,commdev-image-keyboard-response,441,1579847,learnblock2,773.1000000238419,img/planet3_left.png,3,Community 2,NA,TRUE,f,f,NA,NA,NA,4,6,"6,7,9,4,12,1,14,2,3,10,11,8,13,15,5"
15011,commdev-image-keyboard-response,442,1581105,learnblock2,720.3999999761581,img/planet10_right.png,10,Community 2,NA,TRUE,j,j,NA,NA,NA,4,6,"6,7,9,4,12,1,14,2,3,10,11,8,13,15,5"
15011,commdev-image-keyboard-response,443,1582364,learnblock2,515.8000000715256,img/planet1_right.png,1,Community 2,NA,TRUE,j,j,NA,NA,NA,4,6,"6,7,9,4,12,1,14,2,3,10,11,8,13,15,5"
15011,commdev-image-keyboard-response,444,1583619,learnblock2,750.3999999761581,img/planet3_right.png,3,Community 2,NA,TRUE,j,j,NA,NA,NA,4,6,"6,7,9,4,12,1,14,2,3,10,11,8,13,15,5"
15011,commdev-image-keyboard-response,445,1584873,learnblock2,567.9000000953674,img/planet1_right.png,1,Community 2,NA,TRUE,j,j,NA,NA,NA,4,6,"6,7,9,4,12,1,14,2,3,10,11,8,13,15,5"
15011,commdev-image-keyboard-response,446,1586132,learnblock2,585.4000000953674,img/planet10_left.png,10,Community 2,NA,TRUE,f,f,NA,NA,NA,4,6,"6,7,9,4,12,1,14,2,3,10,11,8,13,15,5"
15011,commdev-image-keyboard-response,447,1587394,learnblock2,674,img/planet1_right.png,1,Community 2,NA,TRUE,j,j,NA,NA,NA,4,6,"6,7,9,4,12,1,14,2,3,10,11,8,13,15,5"
15011,commdev-image-keyboard-response,448,1588651,learnblock2,672.6000000238419,img/planet4_right.png,4,Community 1,NA,TRUE,j,j,NA,NA,NA,4,6,"6,7,9,4,12,1,14,2,3,10,11,8,13,15,5"
15011,commdev-image-keyboard-response,449,1589904,learnblock2,698.5,img/planet9_left.png,9,Community 1,NA,TRUE,f,f,NA,NA,NA,4,6,"6,7,9,4,12,1,14,2,3,10,11,8,13,15,5"
15011,commdev-image-keyboard-response,450,1591163,learnblock2,708.8999999761581,img/planet4_right.png,4,Community 1,NA,TRUE,j,j,NA,NA,NA,4,6,"6,7,9,4,12,1,14,2,3,10,11,8,13,15,5"
15011,commdev-image-keyboard-response,451,1592419,learnblock2,715.1000000238419,img/planet9_left.png,9,Community 1,NA,TRUE,f,f,NA,NA,NA,4,6,"6,7,9,4,12,1,14,2,3,10,11,8,13,15,5"
15011,commdev-image-keyboard-response,452,1593673,learnblock2,562,img/planet4_right.png,4,Community 1,NA,TRUE,j,j,NA,NA,NA,4,6,"6,7,9,4,12,1,14,2,3,10,11,8,13,15,5"
15011,commdev-image-keyboard-response,453,1594929,learnblock2,355.2999999523163,img/planet9_left.png,9,Community 1,NA,TRUE,f,f,NA,NA,NA,4,6,"6,7,9,4,12,1,14,2,3,10,11,8,13,15,5"
15011,commdev-image-keyboard-response,454,1596186,learnblock2,675.8999999761581,img/planet4_left.png,4,Community 1,NA,TRUE,f,f,NA,NA,NA,4,6,"6,7,9,4,12,1,14,2,3,10,11,8,13,15,5"
15011,commdev-image-keyboard-response,455,1597439,learnblock2,822.5,img/planet1_left.png,1,Community 2,NA,TRUE,f,f,NA,NA,NA,4,6,"6,7,9,4,12,1,14,2,3,10,11,8,13,15,5"
15011,commdev-image-keyboard-response,456,1598692,learnblock2,692.8999999761581,img/planet10_right.png,10,Community 2,NA,TRUE,j,j,NA,NA,NA,4,6,"6,7,9,4,12,1,14,2,3,10,11,8,13,15,5"
15011,commdev-image-keyboard-response,457,1599952,learnblock2,716.6000000238419,img/planet14_left.png,14,Community 2,NA,TRUE,f,f,NA,NA,NA,4,6,"6,7,9,4,12,1,14,2,3,10,11,8,13,15,5"
15011,commdev-image-keyboard-response,458,1601203,learnblock2,617.6000000238419,img/planet1_right.png,1,Community 2,NA,TRUE,j,j,NA,NA,NA,4,6,"6,7,9,4,12,1,14,2,3,10,11,8,13,15,5"
15011,commdev-image-keyboard-response,459,1602457,learnblock2,602.1000000238419,img/planet3_left.png,3,Community 2,NA,TRUE,f,f,NA,NA,NA,4,6,"6,7,9,4,12,1,14,2,3,10,11,8,13,15,5"
15011,commdev-image-keyboard-response,460,1603721,learnblock2,708.3999999761581,img/planet14_left.png,14,Community 2,NA,TRUE,f,f,NA,NA,NA,4,6,"6,7,9,4,12,1,14,2,3,10,11,8,13,15,5"
15011,commdev-image-keyboard-response,461,1604976,learnblock2,618,img/planet2_left.png,2,Community 2,NA,TRUE,f,f,NA,NA,NA,4,6,"6,7,9,4,12,1,14,2,3,10,11,8,13,15,5"
15011,commdev-image-keyboard-response,462,1606234,learnblock2,668.6999999284744,img/planet3_left.png,3,Community 2,NA,TRUE,f,f,NA,NA,NA,4,6,"6,7,9,4,12,1,14,2,3,10,11,8,13,15,5"
15011,commdev-image-keyboard-response,463,1607487,learnblock2,717.6999999284744,img/planet14_right.png,14,Community 2,NA,TRUE,j,j,NA,NA,NA,4,6,"6,7,9,4,12,1,14,2,3,10,11,8,13,15,5"
15011,commdev-image-keyboard-response,464,1608753,learnblock2,650.1999999284744,img/planet3_left.png,3,Community 2,NA,TRUE,f,f,NA,NA,NA,4,6,"6,7,9,4,12,1,14,2,3,10,11,8,13,15,5"
15011,commdev-image-keyboard-response,465,1610011,learnblock2,672,img/planet2_left.png,2,Community 2,NA,TRUE,f,f,NA,NA,NA,4,6,"6,7,9,4,12,1,14,2,3,10,11,8,13,15,5"
15011,commdev-image-keyboard-response,466,1611266,learnblock2,1028.1000000238419,img/planet3_left.png,3,Community 2,NA,TRUE,f,f,NA,NA,NA,4,6,"6,7,9,4,12,1,14,2,3,10,11,8,13,15,5"
15011,commdev-image-keyboard-response,467,1612522,learnblock2,994.2000000476837,img/planet14_right.png,14,Community 2,NA,TRUE,j,j,NA,NA,NA,4,6,"6,7,9,4,12,1,14,2,3,10,11,8,13,15,5"
15011,commdev-image-keyboard-response,468,1613777,learnblock2,863.8999999761581,img/planet10_right.png,10,Community 2,NA,TRUE,j,j,NA,NA,NA,4,6,"6,7,9,4,12,1,14,2,3,10,11,8,13,15,5"
15011,commdev-image-keyboard-response,469,1615041,learnblock2,659.8999999761581,img/planet2_right.png,2,Community 2,NA,TRUE,j,j,NA,NA,NA,4,6,"6,7,9,4,12,1,14,2,3,10,11,8,13,15,5"
15011,commdev-image-keyboard-response,470,1616299,learnblock2,715.8999999761581,img/planet14_left.png,14,Community 2,NA,TRUE,f,f,NA,NA,NA,4,6,"6,7,9,4,12,1,14,2,3,10,11,8,13,15,5"
15011,commdev-image-keyboard-response,471,1617557,learnblock2,776.5999999046326,img/planet2_right.png,2,Community 2,NA,TRUE,j,j,NA,NA,NA,4,6,"6,7,9,4,12,1,14,2,3,10,11,8,13,15,5"
15011,commdev-image-keyboard-response,472,1618813,learnblock2,843.3000000715256,img/planet14_right.png,14,Community 2,NA,TRUE,j,j,NA,NA,NA,4,6,"6,7,9,4,12,1,14,2,3,10,11,8,13,15,5"
15011,commdev-image-keyboard-response,473,1620070,learnblock2,887.0999999046326,img/planet3_right.png,3,Community 2,NA,TRUE,j,j,NA,NA,NA,4,6,"6,7,9,4,12,1,14,2,3,10,11,8,13,15,5"
15011,commdev-image-keyboard-response,474,1621324,learnblock2,819.7999999523163,img/planet14_right.png,14,Community 2,NA,TRUE,j,j,NA,NA,NA,4,6,"6,7,9,4,12,1,14,2,3,10,11,8,13,15,5"
15011,commdev-image-keyboard-response,475,1622583,learnblock2,653,img/planet2_right.png,2,Community 2,NA,TRUE,j,j,NA,NA,NA,4,6,"6,7,9,4,12,1,14,2,3,10,11,8,13,15,5"
15011,commdev-image-keyboard-response,476,1623837,learnblock2,688.2000000476837,img/planet14_left.png,14,Community 2,NA,TRUE,f,f,NA,NA,NA,4,6,"6,7,9,4,12,1,14,2,3,10,11,8,13,15,5"
15011,commdev-image-keyboard-response,477,1625092,learnblock2,766.1000000238419,img/planet3_left.png,3,Community 2,NA,TRUE,f,f,NA,NA,NA,4,6,"6,7,9,4,12,1,14,2,3,10,11,8,13,15,5"
15011,commdev-image-keyboard-response,478,1626349,learnblock2,744.5,img/planet10_left.png,10,Community 2,NA,TRUE,f,f,NA,NA,NA,4,6,"6,7,9,4,12,1,14,2,3,10,11,8,13,15,5"
15011,commdev-image-keyboard-response,479,1627603,learnblock2,759.8999999761581,img/planet1_right.png,1,Community 2,NA,TRUE,j,j,NA,NA,NA,4,6,"6,7,9,4,12,1,14,2,3,10,11,8,13,15,5"
15011,commdev-image-keyboard-response,480,1628860,learnblock2,813.7000000476837,img/planet3_right.png,3,Community 2,NA,TRUE,j,j,NA,NA,NA,4,6,"6,7,9,4,12,1,14,2,3,10,11,8,13,15,5"
15011,commdev-image-keyboard-response,481,1630126,learnblock2,888.7000000476837,img/planet2_right.png,2,Community 2,NA,TRUE,j,j,NA,NA,NA,4,6,"6,7,9,4,12,1,14,2,3,10,11,8,13,15,5"
15011,commdev-image-keyboard-response,482,1631394,learnblock2,750.2999999523163,img/planet14_left.png,14,Community 2,NA,TRUE,f,f,NA,NA,NA,4,6,"6,7,9,4,12,1,14,2,3,10,11,8,13,15,5"
15011,commdev-image-keyboard-response,483,1632647,learnblock2,668.3000000715256,img/planet2_right.png,2,Community 2,NA,TRUE,j,j,NA,NA,NA,4,6,"6,7,9,4,12,1,14,2,3,10,11,8,13,15,5"
15011,commdev-image-keyboard-response,484,1633910,learnblock2,846.8000000715256,img/planet14_right.png,14,Community 2,NA,TRUE,j,j,NA,NA,NA,4,6,"6,7,9,4,12,1,14,2,3,10,11,8,13,15,5"
15011,commdev-image-keyboard-response,485,1635164,learnblock2,626.2999999523163,img/planet10_left.png,10,Community 2,NA,TRUE,f,f,NA,NA,NA,4,6,"6,7,9,4,12,1,14,2,3,10,11,8,13,15,5"
15011,commdev-image-keyboard-response,486,1636417,learnblock2,729.7000000476837,img/planet2_left.png,2,Community 2,NA,TRUE,f,f,NA,NA,NA,4,6,"6,7,9,4,12,1,14,2,3,10,11,8,13,15,5"
15011,commdev-image-keyboard-response,487,1637678,learnblock2,696.2999999523163,img/planet14_right.png,14,Community 2,NA,TRUE,j,j,NA,NA,NA,4,6,"6,7,9,4,12,1,14,2,3,10,11,8,13,15,5"
15011,commdev-image-keyboard-response,488,1638937,learnblock2,558.8000000715256,img/planet3_left.png,3,Community 2,NA,TRUE,f,f,NA,NA,NA,4,6,"6,7,9,4,12,1,14,2,3,10,11,8,13,15,5"
15011,commdev-image-keyboard-response,489,1640199,learnblock2,690.2000000476837,img/planet1_right.png,1,Community 2,NA,TRUE,j,j,NA,NA,NA,4,6,"6,7,9,4,12,1,14,2,3,10,11,8,13,15,5"
15011,commdev-image-keyboard-response,490,1641456,learnblock2,799.3999999761581,img/planet14_right.png,14,Community 2,NA,TRUE,j,j,NA,NA,NA,4,6,"6,7,9,4,12,1,14,2,3,10,11,8,13,15,5"
15011,commdev-image-keyboard-response,491,1642714,learnblock2,835.4000000953674,img/planet10_right.png,10,Community 2,NA,TRUE,j,j,NA,NA,NA,4,6,"6,7,9,4,12,1,14,2,3,10,11,8,13,15,5"
15011,commdev-image-keyboard-response,492,1643972,learnblock2,851.2000000476837,img/planet2_right.png,2,Community 2,NA,TRUE,j,j,NA,NA,NA,4,6,"6,7,9,4,12,1,14,2,3,10,11,8,13,15,5"
15011,commdev-image-keyboard-response,493,1645224,learnblock2,791.5,img/planet10_left.png,10,Community 2,NA,TRUE,f,f,NA,NA,NA,4,6,"6,7,9,4,12,1,14,2,3,10,11,8,13,15,5"
15011,commdev-image-keyboard-response,494,1646490,learnblock2,736.8000000715256,img/planet2_right.png,2,Community 2,NA,TRUE,j,j,NA,NA,NA,4,6,"6,7,9,4,12,1,14,2,3,10,11,8,13,15,5"
15011,commdev-image-keyboard-response,495,1647742,learnblock2,730.2999999523163,img/planet3_left.png,3,Community 2,NA,TRUE,f,f,NA,NA,NA,4,6,"6,7,9,4,12,1,14,2,3,10,11,8,13,15,5"
15011,commdev-image-keyboard-response,496,1649000,learnblock2,690.3999999761581,img/planet14_right.png,14,Community 2,NA,TRUE,j,j,NA,NA,NA,4,6,"6,7,9,4,12,1,14,2,3,10,11,8,13,15,5"
15011,commdev-image-keyboard-response,497,1650253,learnblock2,612.8000000715256,img/planet2_left.png,2,Community 2,NA,TRUE,f,f,NA,NA,NA,4,6,"6,7,9,4,12,1,14,2,3,10,11,8,13,15,5"
15011,commdev-image-keyboard-response,498,1651519,learnblock2,839.2000000476837,img/planet8_left.png,8,Community 3,NA,TRUE,f,f,NA,NA,NA,4,6,"6,7,9,4,12,1,14,2,3,10,11,8,13,15,5"
15011,commdev-image-keyboard-response,499,1652781,learnblock2,586.5,img/planet2_left.png,2,Community 2,NA,TRUE,f,f,NA,NA,NA,4,6,"6,7,9,4,12,1,14,2,3,10,11,8,13,15,5"
15011,commdev-image-keyboard-response,500,1654038,learnblock2,726.3000000715256,img/planet3_right.png,3,Community 2,NA,TRUE,j,j,NA,NA,NA,4,6,"6,7,9,4,12,1,14,2,3,10,11,8,13,15,5"
15011,commdev-image-keyboard-response,501,1655289,learnblock2,623.7999999523163,img/planet2_left.png,2,Community 2,NA,TRUE,f,f,NA,NA,NA,4,6,"6,7,9,4,12,1,14,2,3,10,11,8,13,15,5"
15011,commdev-image-keyboard-response,502,1656542,learnblock2,575.5,img/planet14_right.png,14,Community 2,NA,TRUE,j,j,NA,NA,NA,4,6,"6,7,9,4,12,1,14,2,3,10,11,8,13,15,5"
15011,commdev-image-keyboard-response,503,1657805,learnblock2,678.8000000715256,img/planet10_left.png,10,Community 2,NA,TRUE,f,f,NA,NA,NA,4,6,"6,7,9,4,12,1,14,2,3,10,11,8,13,15,5"
15011,commdev-image-keyboard-response,504,1659070,learnblock2,885.2999999523163,img/planet1_left.png,1,Community 2,NA,TRUE,f,f,NA,NA,NA,4,6,"6,7,9,4,12,1,14,2,3,10,11,8,13,15,5"
15011,commdev-image-keyboard-response,505,1660329,learnblock2,695.1000000238419,img/planet3_right.png,3,Community 2,NA,TRUE,j,j,NA,NA,NA,4,6,"6,7,9,4,12,1,14,2,3,10,11,8,13,15,5"
15011,commdev-image-keyboard-response,506,1661591,learnblock2,523,img/planet2_left.png,2,Community 2,NA,TRUE,f,f,NA,NA,NA,4,6,"6,7,9,4,12,1,14,2,3,10,11,8,13,15,5"
15011,commdev-image-keyboard-response,507,1662848,learnblock2,925.2999999523163,img/planet3_left.png,3,Community 2,NA,TRUE,f,f,NA,NA,NA,4,6,"6,7,9,4,12,1,14,2,3,10,11,8,13,15,5"
15011,commdev-image-keyboard-response,508,1664107,learnblock2,824.2000000476837,img/planet14_right.png,14,Community 2,NA,TRUE,j,j,NA,NA,NA,4,6,"6,7,9,4,12,1,14,2,3,10,11,8,13,15,5"
15011,commdev-image-keyboard-response,509,1665361,learnblock2,741.5,img/planet1_left.png,1,Community 2,NA,TRUE,f,f,NA,NA,NA,4,6,"6,7,9,4,12,1,14,2,3,10,11,8,13,15,5"
15011,commdev-image-keyboard-response,510,1666619,learnblock2,757.6999999284744,img/planet3_right.png,3,Community 2,NA,TRUE,j,j,NA,NA,NA,4,6,"6,7,9,4,12,1,14,2,3,10,11,8,13,15,5"
15011,commdev-image-keyboard-response,511,1667875,learnblock2,927,img/planet10_right.png,10,Community 2,NA,TRUE,j,j,NA,NA,NA,4,6,"6,7,9,4,12,1,14,2,3,10,11,8,13,15,5"
15011,commdev-image-keyboard-response,512,1669135,learnblock2,754.2000000476837,img/planet2_left.png,2,Community 2,NA,TRUE,f,f,NA,NA,NA,4,6,"6,7,9,4,12,1,14,2,3,10,11,8,13,15,5"
15011,commdev-image-keyboard-response,513,1670387,learnblock2,753.1000000238419,img/planet14_left.png,14,Community 2,NA,TRUE,f,f,NA,NA,NA,4,6,"6,7,9,4,12,1,14,2,3,10,11,8,13,15,5"
15011,commdev-image-keyboard-response,514,1671645,learnblock2,784.3000000715256,img/planet2_left.png,2,Community 2,NA,TRUE,f,f,NA,NA,NA,4,6,"6,7,9,4,12,1,14,2,3,10,11,8,13,15,5"
15011,commdev-image-keyboard-response,515,1672904,learnblock2,690.7999999523163,img/planet14_left.png,14,Community 2,NA,TRUE,f,f,NA,NA,NA,4,6,"6,7,9,4,12,1,14,2,3,10,11,8,13,15,5"
15011,commdev-image-keyboard-response,516,1674159,learnblock2,501.5,img/planet2_right.png,2,Community 2,NA,TRUE,j,j,NA,NA,NA,4,6,"6,7,9,4,12,1,14,2,3,10,11,8,13,15,5"
15011,commdev-image-keyboard-response,517,1675422,learnblock2,451.1999999284744,img/planet10_right.png,10,Community 2,NA,TRUE,j,j,NA,NA,NA,4,6,"6,7,9,4,12,1,14,2,3,10,11,8,13,15,5"
15011,commdev-image-keyboard-response,518,1676685,learnblock2,637.7000000476837,img/planet3_right.png,3,Community 2,NA,TRUE,j,j,NA,NA,NA,4,6,"6,7,9,4,12,1,14,2,3,10,11,8,13,15,5"
15011,commdev-image-keyboard-response,519,1677938,learnblock2,622.3999999761581,img/planet10_right.png,10,Community 2,NA,TRUE,j,j,NA,NA,NA,4,6,"6,7,9,4,12,1,14,2,3,10,11,8,13,15,5"
15011,commdev-image-keyboard-response,520,1679193,learnblock2,680.7999999523163,img/planet2_right.png,2,Community 2,NA,TRUE,j,j,NA,NA,NA,4,6,"6,7,9,4,12,1,14,2,3,10,11,8,13,15,5"
15011,commdev-image-keyboard-response,521,1680455,learnblock2,612.2999999523163,img/planet8_left.png,8,Community 3,NA,TRUE,f,f,NA,NA,NA,4,6,"6,7,9,4,12,1,14,2,3,10,11,8,13,15,5"
15011,commdev-image-keyboard-response,522,1681710,learnblock2,661.8999999761581,img/planet15_left.png,15,Community 3,NA,TRUE,f,f,NA,NA,NA,4,6,"6,7,9,4,12,1,14,2,3,10,11,8,13,15,5"
15011,commdev-image-keyboard-response,523,1682963,learnblock2,716.1999999284744,img/planet5_right.png,5,Community 3,NA,TRUE,j,j,NA,NA,NA,4,6,"6,7,9,4,12,1,14,2,3,10,11,8,13,15,5"
15011,commdev-image-keyboard-response,524,1684221,learnblock2,733.5999999046326,img/planet15_right.png,15,Community 3,NA,TRUE,j,j,NA,NA,NA,4,6,"6,7,9,4,12,1,14,2,3,10,11,8,13,15,5"
15011,commdev-image-keyboard-response,525,1685490,learnblock2,742.9000000953674,img/planet13_right.png,13,Community 3,NA,TRUE,j,j,NA,NA,NA,4,6,"6,7,9,4,12,1,14,2,3,10,11,8,13,15,5"
15011,commdev-image-keyboard-response,526,1686749,learnblock2,549.7999999523163,img/planet15_left.png,15,Community 3,NA,TRUE,f,f,NA,NA,NA,4,6,"6,7,9,4,12,1,14,2,3,10,11,8,13,15,5"
15011,commdev-image-keyboard-response,527,1688009,learnblock2,774.5,img/planet11_left.png,11,Community 3,NA,TRUE,f,f,NA,NA,NA,4,6,"6,7,9,4,12,1,14,2,3,10,11,8,13,15,5"
15011,commdev-image-keyboard-response,528,1689274,learnblock2,728,img/planet5_right.png,5,Community 3,NA,TRUE,j,j,NA,NA,NA,4,6,"6,7,9,4,12,1,14,2,3,10,11,8,13,15,5"
15011,commdev-image-keyboard-response,529,1690527,learnblock2,673.7999999523163,img/planet11_left.png,11,Community 3,NA,TRUE,f,f,NA,NA,NA,4,6,"6,7,9,4,12,1,14,2,3,10,11,8,13,15,5"
15011,commdev-image-keyboard-response,530,1691785,learnblock2,625.3000000715256,img/planet13_left.png,13,Community 3,NA,TRUE,f,f,NA,NA,NA,4,6,"6,7,9,4,12,1,14,2,3,10,11,8,13,15,5"
15011,commdev-image-keyboard-response,531,1693047,learnblock2,606.6000000238419,img/planet5_left.png,5,Community 3,NA,TRUE,f,f,NA,NA,NA,4,6,"6,7,9,4,12,1,14,2,3,10,11,8,13,15,5"
15011,commdev-image-keyboard-response,532,1694302,learnblock2,532.5999999046326,img/planet15_left.png,15,Community 3,NA,TRUE,f,f,NA,NA,NA,4,6,"6,7,9,4,12,1,14,2,3,10,11,8,13,15,5"
15011,commdev-image-keyboard-response,533,1695555,learnblock2,622.2000000476837,img/planet11_left.png,11,Community 3,NA,TRUE,f,f,NA,NA,NA,4,6,"6,7,9,4,12,1,14,2,3,10,11,8,13,15,5"
15011,commdev-image-keyboard-response,534,1696814,learnblock2,533.2000000476837,img/planet13_right.png,13,Community 3,NA,FALSE,f,j,NA,NA,NA,4,6,"6,7,9,4,12,1,14,2,3,10,11,8,13,15,5"
15011,commdev-image-keyboard-response,535,1698074,learnblock2,96.19999992847443,img/planet15_left.png,15,Community 3,NA,FALSE,j,f,NA,NA,NA,4,6,"6,7,9,4,12,1,14,2,3,10,11,8,13,15,5"
15011,commdev-image-keyboard-response,536,1699337,learnblock2,737.2999999523163,img/planet13_left.png,13,Community 3,NA,TRUE,f,f,NA,NA,NA,4,6,"6,7,9,4,12,1,14,2,3,10,11,8,13,15,5"
15011,commdev-image-keyboard-response,537,1700592,learnblock2,620.2000000476837,img/planet5_left.png,5,Community 3,NA,TRUE,f,f,NA,NA,NA,4,6,"6,7,9,4,12,1,14,2,3,10,11,8,13,15,5"
15011,commdev-image-keyboard-response,538,1701858,learnblock2,694.6000000238419,img/planet13_right.png,13,Community 3,NA,TRUE,j,j,NA,NA,NA,4,6,"6,7,9,4,12,1,14,2,3,10,11,8,13,15,5"
15011,commdev-image-keyboard-response,539,1703115,learnblock2,1042.9000000953674,img/planet15_right.png,15,Community 3,NA,TRUE,j,j,NA,NA,NA,4,6,"6,7,9,4,12,1,14,2,3,10,11,8,13,15,5"
15011,commdev-image-keyboard-response,540,1704375,learnblock2,763.3999999761581,img/planet13_left.png,13,Community 3,NA,TRUE,f,f,NA,NA,NA,4,6,"6,7,9,4,12,1,14,2,3,10,11,8,13,15,5"
15011,commdev-image-keyboard-response,541,1705627,learnblock2,764.1000000238419,img/planet15_left.png,15,Community 3,NA,TRUE,f,f,NA,NA,NA,4,6,"6,7,9,4,12,1,14,2,3,10,11,8,13,15,5"
15011,commdev-image-keyboard-response,542,1706883,learnblock2,865.8000000715256,img/planet5_left.png,5,Community 3,NA,TRUE,f,f,NA,NA,NA,4,6,"6,7,9,4,12,1,14,2,3,10,11,8,13,15,5"
15011,commdev-image-keyboard-response,543,1708142,learnblock2,739.1999999284744,img/planet11_left.png,11,Community 3,NA,TRUE,f,f,NA,NA,NA,4,6,"6,7,9,4,12,1,14,2,3,10,11,8,13,15,5"
15011,commdev-image-keyboard-response,544,1709406,learnblock2,611.1000000238419,img/planet13_right.png,13,Community 3,NA,TRUE,j,j,NA,NA,NA,4,6,"6,7,9,4,12,1,14,2,3,10,11,8,13,15,5"
15011,commdev-image-keyboard-response,545,1710658,learnblock2,835.6000000238419,img/planet15_right.png,15,Community 3,NA,TRUE,j,j,NA,NA,NA,4,6,"6,7,9,4,12,1,14,2,3,10,11,8,13,15,5"
15011,commdev-image-keyboard-response,546,1711915,learnblock2,842.7999999523163,img/planet5_left.png,5,Community 3,NA,TRUE,f,f,NA,NA,NA,4,6,"6,7,9,4,12,1,14,2,3,10,11,8,13,15,5"
15011,commdev-image-keyboard-response,547,1713175,learnblock2,766.1999999284744,img/planet8_left.png,8,Community 3,NA,TRUE,f,f,NA,NA,NA,4,6,"6,7,9,4,12,1,14,2,3,10,11,8,13,15,5"
15011,commdev-image-keyboard-response,548,1714431,learnblock2,804.8000000715256,img/planet2_left.png,2,Community 2,NA,TRUE,f,f,NA,NA,NA,4,6,"6,7,9,4,12,1,14,2,3,10,11,8,13,15,5"
15011,commdev-image-keyboard-response,549,1715684,learnblock2,672.5,img/planet14_right.png,14,Community 2,NA,TRUE,j,j,NA,NA,NA,4,6,"6,7,9,4,12,1,14,2,3,10,11,8,13,15,5"
15011,commdev-image-keyboard-response,550,1716943,learnblock2,786.1999999284744,img/planet2_right.png,2,Community 2,NA,TRUE,j,j,NA,NA,NA,4,6,"6,7,9,4,12,1,14,2,3,10,11,8,13,15,5"
15011,commdev-image-keyboard-response,551,1718203,learnblock2,696.7000000476837,img/planet10_right.png,10,Community 2,NA,TRUE,j,j,NA,NA,NA,4,6,"6,7,9,4,12,1,14,2,3,10,11,8,13,15,5"
15011,commdev-image-keyboard-response,552,1719460,learnblock2,777.3999999761581,img/planet14_right.png,14,Community 2,NA,TRUE,j,j,NA,NA,NA,4,6,"6,7,9,4,12,1,14,2,3,10,11,8,13,15,5"
15011,commdev-image-keyboard-response,553,1720716,learnblock2,777.7999999523163,img/planet1_right.png,1,Community 2,NA,TRUE,j,j,NA,NA,NA,4,6,"6,7,9,4,12,1,14,2,3,10,11,8,13,15,5"
15011,commdev-image-keyboard-response,554,1721982,learnblock2,799.3999999761581,img/planet14_right.png,14,Community 2,NA,TRUE,j,j,NA,NA,NA,4,6,"6,7,9,4,12,1,14,2,3,10,11,8,13,15,5"
15011,commdev-image-keyboard-response,555,1723249,learnblock2,523.2000000476837,img/planet2_right.png,2,Community 2,NA,TRUE,j,j,NA,NA,NA,4,6,"6,7,9,4,12,1,14,2,3,10,11,8,13,15,5"
15011,commdev-image-keyboard-response,556,1724506,learnblock2,816,img/planet8_right.png,8,Community 3,NA,TRUE,j,j,NA,NA,NA,4,6,"6,7,9,4,12,1,14,2,3,10,11,8,13,15,5"
15011,commdev-image-keyboard-response,557,1725757,learnblock2,704.5,img/planet2_right.png,2,Community 2,NA,TRUE,j,j,NA,NA,NA,4,6,"6,7,9,4,12,1,14,2,3,10,11,8,13,15,5"
15011,commdev-image-keyboard-response,558,1727017,learnblock2,680.1999999284744,img/planet8_right.png,8,Community 3,NA,TRUE,j,j,NA,NA,NA,4,6,"6,7,9,4,12,1,14,2,3,10,11,8,13,15,5"
15011,commdev-image-keyboard-response,559,1728285,learnblock2,645.3999999761581,img/planet2_left.png,2,Community 2,NA,TRUE,f,f,NA,NA,NA,4,6,"6,7,9,4,12,1,14,2,3,10,11,8,13,15,5"
15011,commdev-image-keyboard-response,560,1729548,learnblock2,669.2000000476837,img/planet8_right.png,8,Community 3,NA,TRUE,j,j,NA,NA,NA,4,6,"6,7,9,4,12,1,14,2,3,10,11,8,13,15,5"
15011,commdev-image-keyboard-response,561,1730804,learnblock2,546.8999999761581,img/planet5_left.png,5,Community 3,NA,TRUE,f,f,NA,NA,NA,4,6,"6,7,9,4,12,1,14,2,3,10,11,8,13,15,5"
15011,commdev-image-keyboard-response,562,1732063,learnblock2,858.5,img/planet13_left.png,13,Community 3,NA,TRUE,f,f,NA,NA,NA,4,6,"6,7,9,4,12,1,14,2,3,10,11,8,13,15,5"
15011,commdev-image-keyboard-response,563,1733319,learnblock2,712.3999999761581,img/planet15_left.png,15,Community 3,NA,TRUE,f,f,NA,NA,NA,4,6,"6,7,9,4,12,1,14,2,3,10,11,8,13,15,5"
15011,commdev-image-keyboard-response,564,1734575,learnblock2,635.6000000238419,img/planet11_left.png,11,Community 3,NA,TRUE,f,f,NA,NA,NA,4,6,"6,7,9,4,12,1,14,2,3,10,11,8,13,15,5"
15011,commdev-image-keyboard-response,565,1735836,learnblock2,654.5,img/planet13_right.png,13,Community 3,NA,TRUE,j,j,NA,NA,NA,4,6,"6,7,9,4,12,1,14,2,3,10,11,8,13,15,5"
15011,commdev-image-keyboard-response,566,1737093,learnblock2,617.5,img/planet5_left.png,5,Community 3,NA,TRUE,f,f,NA,NA,NA,4,6,"6,7,9,4,12,1,14,2,3,10,11,8,13,15,5"
15011,commdev-image-keyboard-response,567,1738360,learnblock2,547,img/planet13_right.png,13,Community 3,NA,TRUE,j,j,NA,NA,NA,4,6,"6,7,9,4,12,1,14,2,3,10,11,8,13,15,5"
15011,commdev-image-keyboard-response,568,1739611,learnblock2,411.2000000476837,img/planet5_right.png,5,Community 3,NA,FALSE,f,j,NA,NA,NA,4,6,"6,7,9,4,12,1,14,2,3,10,11,8,13,15,5"
15011,commdev-image-keyboard-response,569,1740869,learnblock2,712,img/planet15_right.png,15,Community 3,NA,FALSE,f,j,NA,NA,NA,4,6,"6,7,9,4,12,1,14,2,3,10,11,8,13,15,5"
15011,commdev-image-keyboard-response,570,1742125,learnblock2,637.6000000238419,img/planet5_left.png,5,Community 3,NA,TRUE,f,f,NA,NA,NA,4,6,"6,7,9,4,12,1,14,2,3,10,11,8,13,15,5"
15011,commdev-image-keyboard-response,571,1743379,learnblock2,621.1999999284744,img/planet11_left.png,11,Community 3,NA,TRUE,f,f,NA,NA,NA,4,6,"6,7,9,4,12,1,14,2,3,10,11,8,13,15,5"
15011,commdev-image-keyboard-response,572,1744638,learnblock2,679.5999999046326,img/planet5_right.png,5,Community 3,NA,TRUE,j,j,NA,NA,NA,4,6,"6,7,9,4,12,1,14,2,3,10,11,8,13,15,5"
15011,commdev-image-keyboard-response,573,1745891,learnblock2,771.2999999523163,img/planet13_right.png,13,Community 3,NA,TRUE,j,j,NA,NA,NA,4,6,"6,7,9,4,12,1,14,2,3,10,11,8,13,15,5"
15011,commdev-image-keyboard-response,574,1747155,learnblock2,595.0999999046326,img/planet8_left.png,8,Community 3,NA,TRUE,f,f,NA,NA,NA,4,6,"6,7,9,4,12,1,14,2,3,10,11,8,13,15,5"
15011,commdev-image-keyboard-response,575,1748412,learnblock2,724.5,img/planet13_left.png,13,Community 3,NA,TRUE,f,f,NA,NA,NA,4,6,"6,7,9,4,12,1,14,2,3,10,11,8,13,15,5"
15011,commdev-image-keyboard-response,576,1749668,learnblock2,698.3999999761581,img/planet5_left.png,5,Community 3,NA,TRUE,f,f,NA,NA,NA,4,6,"6,7,9,4,12,1,14,2,3,10,11,8,13,15,5"
15011,commdev-image-keyboard-response,577,1750920,learnblock2,633.8000000715256,img/planet15_left.png,15,Community 3,NA,TRUE,f,f,NA,NA,NA,4,6,"6,7,9,4,12,1,14,2,3,10,11,8,13,15,5"
15011,commdev-image-keyboard-response,578,1752184,learnblock2,715.9000000953674,img/planet8_right.png,8,Community 3,NA,TRUE,j,j,NA,NA,NA,4,6,"6,7,9,4,12,1,14,2,3,10,11,8,13,15,5"
15011,commdev-image-keyboard-response,579,1753440,learnblock2,805.6999999284744,img/planet15_right.png,15,Community 3,NA,TRUE,j,j,NA,NA,NA,4,6,"6,7,9,4,12,1,14,2,3,10,11,8,13,15,5"
15011,commdev-image-keyboard-response,580,1754700,learnblock2,702.2000000476837,img/planet13_left.png,13,Community 3,NA,TRUE,f,f,NA,NA,NA,4,6,"6,7,9,4,12,1,14,2,3,10,11,8,13,15,5"
15011,commdev-image-keyboard-response,581,1755953,learnblock2,689.3999999761581,img/planet11_left.png,11,Community 3,NA,TRUE,f,f,NA,NA,NA,4,6,"6,7,9,4,12,1,14,2,3,10,11,8,13,15,5"
15011,commdev-image-keyboard-response,582,1757212,learnblock2,705.2999999523163,img/planet15_left.png,15,Community 3,NA,TRUE,f,f,NA,NA,NA,4,6,"6,7,9,4,12,1,14,2,3,10,11,8,13,15,5"
15011,commdev-image-keyboard-response,583,1758473,learnblock2,623.5999999046326,img/planet5_right.png,5,Community 3,NA,TRUE,j,j,NA,NA,NA,4,6,"6,7,9,4,12,1,14,2,3,10,11,8,13,15,5"
15011,commdev-image-keyboard-response,584,1759725,learnblock2,832.8999999761581,img/planet15_left.png,15,Community 3,NA,TRUE,f,f,NA,NA,NA,4,6,"6,7,9,4,12,1,14,2,3,10,11,8,13,15,5"
15011,commdev-image-keyboard-response,585,1760989,learnblock2,722.2999999523163,img/planet11_left.png,11,Community 3,NA,TRUE,f,f,NA,NA,NA,4,6,"6,7,9,4,12,1,14,2,3,10,11,8,13,15,5"
15011,commdev-image-keyboard-response,586,1762244,learnblock2,775,img/planet13_left.png,13,Community 3,NA,TRUE,f,f,NA,NA,NA,4,6,"6,7,9,4,12,1,14,2,3,10,11,8,13,15,5"
15011,commdev-image-keyboard-response,587,1763495,learnblock2,837.0999999046326,img/planet11_right.png,11,Community 3,NA,TRUE,j,j,NA,NA,NA,4,6,"6,7,9,4,12,1,14,2,3,10,11,8,13,15,5"
15011,commdev-image-keyboard-response,588,1764753,learnblock2,40.5,img/planet13_right.png,13,Community 3,NA,FALSE,f,j,NA,NA,NA,4,6,"6,7,9,4,12,1,14,2,3,10,11,8,13,15,5"
15011,commdev-image-keyboard-response,589,1766014,learnblock2,787.7000000476837,img/planet8_left.png,8,Community 3,NA,TRUE,f,f,NA,NA,NA,4,6,"6,7,9,4,12,1,14,2,3,10,11,8,13,15,5"
15011,commdev-image-keyboard-response,590,1767272,learnblock2,729.6000000238419,img/planet5_left.png,5,Community 3,NA,TRUE,f,f,NA,NA,NA,4,6,"6,7,9,4,12,1,14,2,3,10,11,8,13,15,5"
15011,commdev-image-keyboard-response,591,1768529,learnblock2,585.5,img/planet13_right.png,13,Community 3,NA,TRUE,j,j,NA,NA,NA,4,6,"6,7,9,4,12,1,14,2,3,10,11,8,13,15,5"
15011,commdev-image-keyboard-response,592,1769791,learnblock2,486.3000000715256,img/planet11_left.png,11,Community 3,NA,TRUE,f,f,NA,NA,NA,4,6,"6,7,9,4,12,1,14,2,3,10,11,8,13,15,5"
15011,commdev-image-keyboard-response,593,1771051,learnblock2,538.1000000238419,img/planet13_right.png,13,Community 3,NA,TRUE,j,j,NA,NA,NA,4,6,"6,7,9,4,12,1,14,2,3,10,11,8,13,15,5"
15011,commdev-image-keyboard-response,594,1772310,learnblock2,309.5,img/planet8_left.png,8,Community 3,NA,TRUE,f,f,NA,NA,NA,4,6,"6,7,9,4,12,1,14,2,3,10,11,8,13,15,5"
15011,commdev-image-keyboard-response,595,1773577,learnblock2,709.1000000238419,img/planet13_left.png,13,Community 3,NA,TRUE,f,f,NA,NA,NA,4,6,"6,7,9,4,12,1,14,2,3,10,11,8,13,15,5"
15011,commdev-image-keyboard-response,596,1774831,learnblock2,531.5999999046326,img/planet15_left.png,15,Community 3,NA,TRUE,f,f,NA,NA,NA,4,6,"6,7,9,4,12,1,14,2,3,10,11,8,13,15,5"
15011,commdev-image-keyboard-response,597,1776085,learnblock2,529.8999999761581,img/planet11_left.png,11,Community 3,NA,TRUE,f,f,NA,NA,NA,4,6,"6,7,9,4,12,1,14,2,3,10,11,8,13,15,5"
15011,commdev-image-keyboard-response,598,1777344,learnblock2,551,img/planet15_left.png,15,Community 3,NA,TRUE,f,f,NA,NA,NA,4,6,"6,7,9,4,12,1,14,2,3,10,11,8,13,15,5"
15011,commdev-image-keyboard-response,599,1778601,learnblock2,707.5999999046326,img/planet8_right.png,8,Community 3,NA,TRUE,j,j,NA,NA,NA,4,6,"6,7,9,4,12,1,14,2,3,10,11,8,13,15,5"
15011,commdev-image-keyboard-response,600,1779853,learnblock2,677.9000000953674,img/planet15_right.png,15,Community 3,NA,TRUE,j,j,NA,NA,NA,4,6,"6,7,9,4,12,1,14,2,3,10,11,8,13,15,5"
15011,commdev-image-keyboard-response,601,1781113,learnblock2,793.7999999523163,img/planet11_right.png,11,Community 3,NA,TRUE,j,j,NA,NA,NA,4,6,"6,7,9,4,12,1,14,2,3,10,11,8,13,15,5"
15011,commdev-image-keyboard-response,602,1782370,learnblock2,824.7999999523163,img/planet15_right.png,15,Community 3,NA,TRUE,j,j,NA,NA,NA,4,6,"6,7,9,4,12,1,14,2,3,10,11,8,13,15,5"
15011,commdev-image-keyboard-response,603,1783622,learnblock2,729.7000000476837,img/planet13_left.png,13,Community 3,NA,TRUE,f,f,NA,NA,NA,4,6,"6,7,9,4,12,1,14,2,3,10,11,8,13,15,5"
15011,commdev-image-keyboard-response,604,1784883,learnblock2,573.5,img/planet5_right.png,5,Community 3,NA,TRUE,j,j,NA,NA,NA,4,6,"6,7,9,4,12,1,14,2,3,10,11,8,13,15,5"
15011,commdev-image-keyboard-response,605,1786147,learnblock2,892.7000000476837,img/planet15_right.png,15,Community 3,NA,TRUE,j,j,NA,NA,NA,4,6,"6,7,9,4,12,1,14,2,3,10,11,8,13,15,5"
15011,commdev-image-keyboard-response,606,1787411,learnblock2,666.8999999761581,img/planet8_right.png,8,Community 3,NA,TRUE,j,j,NA,NA,NA,4,6,"6,7,9,4,12,1,14,2,3,10,11,8,13,15,5"
15011,commdev-image-keyboard-response,607,1788676,learnblock2,566,img/planet2_right.png,2,Community 2,NA,TRUE,j,j,NA,NA,NA,4,6,"6,7,9,4,12,1,14,2,3,10,11,8,13,15,5"
15011,commdev-image-keyboard-response,608,1789936,learnblock2,705.2999999523163,img/planet10_left.png,10,Community 2,NA,TRUE,f,f,NA,NA,NA,4,6,"6,7,9,4,12,1,14,2,3,10,11,8,13,15,5"
15011,commdev-image-keyboard-response,609,1791196,learnblock2,708,img/planet1_right.png,1,Community 2,NA,TRUE,j,j,NA,NA,NA,4,6,"6,7,9,4,12,1,14,2,3,10,11,8,13,15,5"
15011,commdev-image-keyboard-response,610,1792456,learnblock2,822.3999999761581,img/planet4_left.png,4,Community 1,NA,TRUE,f,f,NA,NA,NA,4,6,"6,7,9,4,12,1,14,2,3,10,11,8,13,15,5"
15011,commdev-image-keyboard-response,611,1793711,learnblock2,720.8999999761581,img/planet7_left.png,7,Community 1,NA,TRUE,f,f,NA,NA,NA,4,6,"6,7,9,4,12,1,14,2,3,10,11,8,13,15,5"
15011,commdev-image-keyboard-response,612,1794970,learnblock2,816.2999999523163,img/planet4_right.png,4,Community 1,NA,TRUE,j,j,NA,NA,NA,4,6,"6,7,9,4,12,1,14,2,3,10,11,8,13,15,5"
15011,commdev-image-keyboard-response,613,1796226,learnblock2,770.5,img/planet1_left.png,1,Community 2,NA,TRUE,f,f,NA,NA,NA,4,6,"6,7,9,4,12,1,14,2,3,10,11,8,13,15,5"
15011,commdev-image-keyboard-response,614,1797480,learnblock2,560.2999999523163,img/planet10_right.png,10,Community 2,NA,TRUE,j,j,NA,NA,NA,4,6,"6,7,9,4,12,1,14,2,3,10,11,8,13,15,5"
15011,commdev-image-keyboard-response,615,1798733,learnblock2,655.9000000953674,img/planet2_left.png,2,Community 2,NA,TRUE,f,f,NA,NA,NA,4,6,"6,7,9,4,12,1,14,2,3,10,11,8,13,15,5"
15011,commdev-image-keyboard-response,616,1799990,learnblock2,647.6999999284744,img/planet10_right.png,10,Community 2,NA,TRUE,j,j,NA,NA,NA,4,6,"6,7,9,4,12,1,14,2,3,10,11,8,13,15,5"
15011,commdev-image-keyboard-response,617,1801245,learnblock2,697.1000000238419,img/planet3_right.png,3,Community 2,NA,TRUE,j,j,NA,NA,NA,4,6,"6,7,9,4,12,1,14,2,3,10,11,8,13,15,5"
15011,commdev-image-keyboard-response,618,1802497,learnblock2,568.7000000476837,img/planet2_left.png,2,Community 2,NA,TRUE,f,f,NA,NA,NA,4,6,"6,7,9,4,12,1,14,2,3,10,11,8,13,15,5"
15011,commdev-image-keyboard-response,619,1803757,learnblock2,705.2000000476837,img/planet8_right.png,8,Community 3,NA,TRUE,j,j,NA,NA,NA,4,6,"6,7,9,4,12,1,14,2,3,10,11,8,13,15,5"
15011,commdev-image-keyboard-response,620,1805023,learnblock2,629,img/planet5_left.png,5,Community 3,NA,TRUE,f,f,NA,NA,NA,4,6,"6,7,9,4,12,1,14,2,3,10,11,8,13,15,5"
15011,commdev-image-keyboard-response,621,1806285,learnblock2,603.6000000238419,img/planet11_right.png,11,Community 3,NA,TRUE,j,j,NA,NA,NA,4,6,"6,7,9,4,12,1,14,2,3,10,11,8,13,15,5"
15011,commdev-image-keyboard-response,622,1807541,learnblock2,752.6999999284744,img/planet12_right.png,12,Community 1,NA,TRUE,j,j,NA,NA,NA,4,6,"6,7,9,4,12,1,14,2,3,10,11,8,13,15,5"
15011,commdev-image-keyboard-response,623,1808807,learnblock2,686.5,img/planet11_right.png,11,Community 3,NA,TRUE,j,j,NA,NA,NA,4,6,"6,7,9,4,12,1,14,2,3,10,11,8,13,15,5"
15011,commdev-image-keyboard-response,624,1810067,learnblock2,652.3999999761581,img/planet12_left.png,12,Community 1,NA,TRUE,f,f,NA,NA,NA,4,6,"6,7,9,4,12,1,14,2,3,10,11,8,13,15,5"
15011,commdev-image-keyboard-response,625,1811321,learnblock2,656.8999999761581,img/planet11_right.png,11,Community 3,NA,TRUE,j,j,NA,NA,NA,4,6,"6,7,9,4,12,1,14,2,3,10,11,8,13,15,5"
15011,commdev-image-keyboard-response,626,1812575,learnblock2,681.5,img/planet13_right.png,13,Community 3,NA,TRUE,j,j,NA,NA,NA,4,6,"6,7,9,4,12,1,14,2,3,10,11,8,13,15,5"
15011,commdev-image-keyboard-response,627,1813828,learnblock2,658.3999999761581,img/planet8_right.png,8,Community 3,NA,TRUE,j,j,NA,NA,NA,4,6,"6,7,9,4,12,1,14,2,3,10,11,8,13,15,5"
15011,commdev-image-keyboard-response,628,1815089,learnblock2,637,img/planet13_left.png,13,Community 3,NA,TRUE,f,f,NA,NA,NA,4,6,"6,7,9,4,12,1,14,2,3,10,11,8,13,15,5"
15011,commdev-image-keyboard-response,629,1816343,learnblock2,555.2999999523163,img/planet8_right.png,8,Community 3,NA,TRUE,j,j,NA,NA,NA,4,6,"6,7,9,4,12,1,14,2,3,10,11,8,13,15,5"
15011,commdev-image-keyboard-response,630,1817596,learnblock2,1014.7999999523163,img/planet5_left.png,5,Community 3,NA,TRUE,f,f,NA,NA,NA,4,6,"6,7,9,4,12,1,14,2,3,10,11,8,13,15,5"
15011,commdev-image-keyboard-response,631,1818848,learnblock2,790.3999999761581,img/planet15_right.png,15,Community 3,NA,TRUE,j,j,NA,NA,NA,4,6,"6,7,9,4,12,1,14,2,3,10,11,8,13,15,5"
15011,commdev-image-keyboard-response,632,1820103,learnblock2,674.2000000476837,img/planet8_left.png,8,Community 3,NA,TRUE,f,f,NA,NA,NA,4,6,"6,7,9,4,12,1,14,2,3,10,11,8,13,15,5"
15011,commdev-image-keyboard-response,633,1821368,learnblock2,615.1000000238419,img/planet2_right.png,2,Community 2,NA,TRUE,j,j,NA,NA,NA,4,6,"6,7,9,4,12,1,14,2,3,10,11,8,13,15,5"
15011,commdev-image-keyboard-response,634,1822621,learnblock2,806.5999999046326,img/planet8_right.png,8,Community 3,NA,TRUE,j,j,NA,NA,NA,4,6,"6,7,9,4,12,1,14,2,3,10,11,8,13,15,5"
15011,commdev-image-keyboard-response,635,1823879,learnblock2,636.8000000715256,img/planet2_left.png,2,Community 2,NA,TRUE,f,f,NA,NA,NA,4,6,"6,7,9,4,12,1,14,2,3,10,11,8,13,15,5"
15011,commdev-image-keyboard-response,636,1825135,learnblock2,575.1999999284744,img/planet14_right.png,14,Community 2,NA,TRUE,j,j,NA,NA,NA,4,6,"6,7,9,4,12,1,14,2,3,10,11,8,13,15,5"
