subject_id,trial_type,trial_index,time_elapsed,block,rt,stimulus,planet,community,response,correct,key_press,learning_correct_response,parse,init_locations,final_locations,browser_interactions,num_comp,planet_map
14225,commdev-instructions,7,44167,NA,1524.4000000059605,"<p>In this game, you will be shown a 3x3 grid of patterns.</p> <p>The last one in the bottom right-hand corner, <strong>will be missing:</strong></p> <div style='width: 700px;'><div style='float: top;'><img style='width: 200px;' src='practice/p1_M1.png'></img><p class='small'>You need to select<strong> which of the four possible patterns </strong>along the bottom<strong> fits into the gap:</strong></p></div><div style='float: top;'><img style='width: 300px;' src='practice/p1_T1.png'></img></div><br>",NA,NA,NA,NA,NA,NA,NA,NA,NA,NA,6,"14,7,6,8,1,3,4,5,13,9,12,2,10,11,15"
14225,commdev-instructions,8,64211,NA,1442.8999999910593,"<p>Try to be as fast and as accurate as you can be.</p> <p>If you cannot solve the puzzle then you should guess - you will not be penalised for an incorrect answer.</p> <p>The task contains a shuffled mix of easy, medium and hard puzzles.</p> <p>You will have <strong>30 seconds</strong> to complete each puzzle.</p><br>",NA,NA,NA,NA,NA,NA,NA,NA,NA,NA,6,"14,7,6,8,1,3,4,5,13,9,12,2,10,11,15"
14225,commdev-instructions,15,89226,NA,1897.9000000059605,<p><strong>Success!</strong></p> <p>You seem to be getting the hang of this...</p> <p>Let's move on to the real trials.</p><br>,NA,NA,NA,NA,NA,NA,NA,NA,NA,NA,6,"14,7,6,8,1,3,4,5,13,9,12,2,10,11,15"
14225,commdev-instructions,127,582339,NA,1180.2000000029802,"<p>In this game, you are a scientist on board a space shuttle. </p><p> On each mission, you will visit planets all across the universe.</p><img src=""img/controlroom.jpg"" width=300vw>",NA,NA,NA,NA,NA,NA,NA,NA,NA,NA,6,"14,7,6,8,1,3,4,5,13,9,12,2,10,11,15"
14225,commdev-instructions,128,585716,NA,1304.300000011921,"<p>Here are a few planets you might see:</p><img src=""img/practice1.png"" width=200vw><img src=""img/practice2.png"" width=200vw><img src=""img/practice3.png"" width=200vw>",NA,NA,NA,NA,NA,NA,NA,NA,NA,NA,6,"14,7,6,8,1,3,4,5,13,9,12,2,10,11,15"
14225,commdev-instructions,129,594823,NA,1707.4000000059605,"<p>Your job as a scientist is to record which direction the winds are moving on each planet.</p><p>There are two types of wind directions:</p><img src=""img/practice1_left.png"" width=200vw><img src=""img/practice1_right.png"" width=200vw>",NA,NA,NA,NA,NA,NA,NA,NA,NA,NA,6,"14,7,6,8,1,3,4,5,13,9,12,2,10,11,15"
14225,commdev-instructions,130,604228,NA,4526,"<p>If the winds are moving this way, press the letter <strong>F</strong> on the keyboard as fast as you can.</p><img src=""img/leftwind.png"" width=250vw>",NA,NA,NA,NA,NA,NA,NA,NA,NA,NA,6,"14,7,6,8,1,3,4,5,13,9,12,2,10,11,15"
14225,commdev-instructions,131,613737,NA,5011,"<p>If the winds are moving this way, press the letter <strong>J</strong> on the keyboard as fast as you can.</p><img src=""img/rightwind.png"" width=350vw>",NA,NA,NA,NA,NA,NA,NA,NA,NA,NA,6,"14,7,6,8,1,3,4,5,13,9,12,2,10,11,15"
14225,commdev-instructions,132,620840,NA,2679.7999999970198,<p>You will have 1 second to respond. Try to respond before the time runs out!,NA,NA,NA,NA,NA,NA,NA,NA,NA,NA,6,"14,7,6,8,1,3,4,5,13,9,12,2,10,11,15"
14225,commdev-instructions,133,627393,NA,1120.7999999970198,<p>The planets you will visit will look different from each other.</p><p>You should respond <strong>only</strong> based on wind direction.,NA,NA,NA,NA,NA,NA,NA,NA,NA,NA,6,"14,7,6,8,1,3,4,5,13,9,12,2,10,11,15"
14225,commdev-instructions,134,636163,NA,3602.1000000089407,"<p> Ready to start the practice round? </p><p> Remember, press <strong>F</strong> or <strong>J</strong> depending on the wind direction.<br><img src=""img/categorize_planet_example.png""",NA,NA,NA,NA,NA,NA,NA,NA,NA,NA,6,"14,7,6,8,1,3,4,5,13,9,12,2,10,11,15"
14225,commdev-instructions,146,700256,NA,3523.7999999970198,"<p>Great, now try a short practice mission. </p><p> This time, you will have 1 second to respond and you won't know whether you pressed the right or wrong key for each planet.</p>",NA,NA,NA,NA,NA,NA,NA,NA,NA,NA,6,"14,7,6,8,1,3,4,5,13,9,12,2,10,11,15"
14225,commdev-image-keyboard-response,147,701613,practice,null,img/practice4_left.png,NA,Number not found in mappings,NA,FALSE,null,f,NA,NA,NA,NA,6,"14,7,6,8,1,3,4,5,13,9,12,2,10,11,15"
14225,commdev-image-keyboard-response,148,702867,practice,997.9000000059605,img/practice3_right.png,NA,Number not found in mappings,NA,TRUE,j,j,NA,NA,NA,NA,6,"14,7,6,8,1,3,4,5,13,9,12,2,10,11,15"
14225,commdev-image-keyboard-response,149,704120,practice,783.7999999970198,img/practice2_right.png,NA,Number not found in mappings,NA,FALSE,f,j,NA,NA,NA,NA,6,"14,7,6,8,1,3,4,5,13,9,12,2,10,11,15"
14225,commdev-image-keyboard-response,150,705374,practice,552.0999999940395,img/practice4_right.png,NA,Number not found in mappings,NA,TRUE,j,j,NA,NA,NA,NA,6,"14,7,6,8,1,3,4,5,13,9,12,2,10,11,15"
14225,commdev-image-keyboard-response,151,706626,practice,264.09999999403954,img/practice1_right.png,NA,Number not found in mappings,NA,FALSE,f,j,NA,NA,NA,NA,6,"14,7,6,8,1,3,4,5,13,9,12,2,10,11,15"
14225,commdev-image-keyboard-response,152,707879,practice,264,img/practice3_right.png,NA,Number not found in mappings,NA,FALSE,f,j,NA,NA,NA,NA,6,"14,7,6,8,1,3,4,5,13,9,12,2,10,11,15"
14225,commdev-image-keyboard-response,153,709131,practice,30.599999994039536,img/practice4_right.png,NA,Number not found in mappings,NA,TRUE,j,j,NA,NA,NA,NA,6,"14,7,6,8,1,3,4,5,13,9,12,2,10,11,15"
14225,commdev-image-keyboard-response,154,710384,practice,302.69999998807907,img/practice3_left.png,NA,Number not found in mappings,NA,FALSE,j,f,NA,NA,NA,NA,6,"14,7,6,8,1,3,4,5,13,9,12,2,10,11,15"
14225,commdev-instructions,155,724392,NA,4455.100000008941,"<p>Great job with the practice round.</p><p>During real missions, you won't know whether you pressed the right or wrong key for each planet.</p><p>But between missions, we will tell you how you did overall.</p>",NA,NA,NA,NA,NA,NA,NA,NA,NA,NA,6,"14,7,6,8,1,3,4,5,13,9,12,2,10,11,15"
14225,commdev-instructions,156,736348,NA,3717,<p>Try your best! You will be paid a bonus based on how many correct responses you make!</p><p>Responses that are too slow will not count toward your bonus.</p>,NA,NA,NA,NA,NA,NA,NA,NA,NA,NA,6,"14,7,6,8,1,3,4,5,13,9,12,2,10,11,15"
14225,commdev-instructions,157,746721,NA,4175.79999999702,"<p>You are almost ready to start the real game.</p><p> First, we are going to ask you some questions about how the game works.</p>",NA,NA,NA,NA,NA,NA,NA,NA,NA,NA,6,"14,7,6,8,1,3,4,5,13,9,12,2,10,11,15"
14225,commdev-instructions,166,849020,NA,3887.699999988079,"<p> Nice work! It is now time to start the real game.<p></p>You will go on two missions to record wind directions of different planets.<p></p>Each one will take about 5 minutes. You will get to take a break between missions.<p><p> Remember, press <strong>F</strong> or <strong>J</strong> depending on the wind direction. Good luck!<br><img src=""img/categorize_planet_example.png""",NA,NA,NA,NA,NA,NA,NA,NA,NA,NA,6,"14,7,6,8,1,3,4,5,13,9,12,2,10,11,15"
14225,commdev-image-keyboard-response,168,853799,learnblock1,888.3999999910593,img/planet12_left.png,12,Community 3,NA,FALSE,j,f,NA,NA,NA,NA,6,"14,7,6,8,1,3,4,5,13,9,12,2,10,11,15"
14225,commdev-image-keyboard-response,169,855051,learnblock1,739.2000000029802,img/planet1_right.png,1,Community 1,NA,FALSE,f,j,NA,NA,NA,NA,6,"14,7,6,8,1,3,4,5,13,9,12,2,10,11,15"
14225,commdev-image-keyboard-response,170,856304,learnblock1,454.20000000298023,img/planet14_left.png,14,Community 1,NA,FALSE,j,f,NA,NA,NA,NA,6,"14,7,6,8,1,3,4,5,13,9,12,2,10,11,15"
14225,commdev-image-keyboard-response,171,857557,learnblock1,741.6999999880791,img/planet1_left.png,1,Community 1,NA,FALSE,j,f,NA,NA,NA,NA,6,"14,7,6,8,1,3,4,5,13,9,12,2,10,11,15"
14225,commdev-image-keyboard-response,172,858810,learnblock1,849.2999999970198,img/planet6_right.png,6,Community 1,NA,TRUE,j,j,NA,NA,NA,NA,6,"14,7,6,8,1,3,4,5,13,9,12,2,10,11,15"
14225,commdev-image-keyboard-response,173,860063,learnblock1,964.2000000029802,img/planet1_left.png,1,Community 1,NA,TRUE,f,f,NA,NA,NA,NA,6,"14,7,6,8,1,3,4,5,13,9,12,2,10,11,15"
14225,commdev-image-keyboard-response,174,861316,learnblock1,647.4000000059605,img/planet12_right.png,12,Community 3,NA,TRUE,j,j,NA,NA,NA,NA,6,"14,7,6,8,1,3,4,5,13,9,12,2,10,11,15"
14225,commdev-image-keyboard-response,175,862569,learnblock1,919.5999999940395,img/planet15_left.png,15,Community 3,NA,FALSE,j,f,NA,NA,NA,NA,6,"14,7,6,8,1,3,4,5,13,9,12,2,10,11,15"
14225,commdev-image-keyboard-response,176,863822,learnblock1,33.099999994039536,img/planet10_left.png,10,Community 3,NA,FALSE,j,f,NA,NA,NA,NA,6,"14,7,6,8,1,3,4,5,13,9,12,2,10,11,15"
14225,commdev-image-keyboard-response,177,865076,learnblock1,767.0999999940395,img/planet2_left.png,2,Community 3,NA,FALSE,j,f,NA,NA,NA,NA,6,"14,7,6,8,1,3,4,5,13,9,12,2,10,11,15"
14225,commdev-image-keyboard-response,178,866329,learnblock1,1061.7000000029802,img/planet15_left.png,15,Community 3,NA,TRUE,f,f,NA,NA,NA,NA,6,"14,7,6,8,1,3,4,5,13,9,12,2,10,11,15"
14225,commdev-image-keyboard-response,179,867582,learnblock1,null,img/planet12_right.png,12,Community 3,NA,FALSE,null,j,NA,NA,NA,NA,6,"14,7,6,8,1,3,4,5,13,9,12,2,10,11,15"
14225,commdev-image-keyboard-response,180,868835,learnblock1,64.1000000089407,img/planet11_left.png,11,Community 3,NA,FALSE,j,f,NA,NA,NA,NA,6,"14,7,6,8,1,3,4,5,13,9,12,2,10,11,15"
14225,commdev-image-keyboard-response,181,870088,learnblock1,97.6000000089407,img/planet12_right.png,12,Community 3,NA,TRUE,j,j,NA,NA,NA,NA,6,"14,7,6,8,1,3,4,5,13,9,12,2,10,11,15"
14225,commdev-image-keyboard-response,182,871341,learnblock1,1034.8999999910593,img/planet10_right.png,10,Community 3,NA,FALSE,f,j,NA,NA,NA,NA,6,"14,7,6,8,1,3,4,5,13,9,12,2,10,11,15"
14225,commdev-image-keyboard-response,183,872594,learnblock1,null,img/planet12_left.png,12,Community 3,NA,FALSE,null,f,NA,NA,NA,NA,6,"14,7,6,8,1,3,4,5,13,9,12,2,10,11,15"
14225,commdev-image-keyboard-response,184,873847,learnblock1,19.200000002980232,img/planet1_left.png,1,Community 1,NA,TRUE,f,f,NA,NA,NA,NA,6,"14,7,6,8,1,3,4,5,13,9,12,2,10,11,15"
14225,commdev-image-keyboard-response,185,875100,learnblock1,null,img/planet14_right.png,14,Community 1,NA,FALSE,null,j,NA,NA,NA,NA,6,"14,7,6,8,1,3,4,5,13,9,12,2,10,11,15"
14225,commdev-image-keyboard-response,186,876354,learnblock1,381,img/planet6_left.png,6,Community 1,NA,FALSE,j,f,NA,NA,NA,NA,6,"14,7,6,8,1,3,4,5,13,9,12,2,10,11,15"
14225,commdev-image-keyboard-response,187,877606,learnblock1,1107,img/planet7_left.png,7,Community 1,NA,FALSE,j,f,NA,NA,NA,NA,6,"14,7,6,8,1,3,4,5,13,9,12,2,10,11,15"
14225,commdev-image-keyboard-response,188,878860,learnblock1,825.0999999940395,img/planet1_left.png,1,Community 1,NA,FALSE,j,f,NA,NA,NA,NA,6,"14,7,6,8,1,3,4,5,13,9,12,2,10,11,15"
14225,commdev-image-keyboard-response,189,880113,learnblock1,1195.9000000059605,img/planet6_right.png,6,Community 1,NA,TRUE,j,j,NA,NA,NA,NA,6,"14,7,6,8,1,3,4,5,13,9,12,2,10,11,15"
14225,commdev-image-keyboard-response,190,881366,learnblock1,null,img/planet8_right.png,8,Community 1,NA,FALSE,null,j,NA,NA,NA,NA,6,"14,7,6,8,1,3,4,5,13,9,12,2,10,11,15"
14225,commdev-image-keyboard-response,191,882619,learnblock1,46.8999999910593,img/planet6_left.png,6,Community 1,NA,FALSE,j,f,NA,NA,NA,NA,6,"14,7,6,8,1,3,4,5,13,9,12,2,10,11,15"
14225,commdev-image-keyboard-response,192,883872,learnblock1,null,img/planet7_left.png,7,Community 1,NA,FALSE,null,f,NA,NA,NA,NA,6,"14,7,6,8,1,3,4,5,13,9,12,2,10,11,15"
14225,commdev-image-keyboard-response,193,885125,learnblock1,151.90000000596046,img/planet14_left.png,14,Community 1,NA,FALSE,j,f,NA,NA,NA,NA,6,"14,7,6,8,1,3,4,5,13,9,12,2,10,11,15"
14225,commdev-image-keyboard-response,194,886379,learnblock1,571.2000000029802,img/planet1_right.png,1,Community 1,NA,TRUE,j,j,NA,NA,NA,NA,6,"14,7,6,8,1,3,4,5,13,9,12,2,10,11,15"
14225,commdev-image-keyboard-response,195,887632,learnblock1,111.70000000298023,img/planet6_left.png,6,Community 1,NA,FALSE,j,f,NA,NA,NA,NA,6,"14,7,6,8,1,3,4,5,13,9,12,2,10,11,15"
14225,commdev-image-keyboard-response,196,888885,learnblock1,null,img/planet1_left.png,1,Community 1,NA,FALSE,null,f,NA,NA,NA,NA,6,"14,7,6,8,1,3,4,5,13,9,12,2,10,11,15"
14225,commdev-image-keyboard-response,197,890137,learnblock1,171.90000000596046,img/planet14_left.png,14,Community 1,NA,FALSE,j,f,NA,NA,NA,NA,6,"14,7,6,8,1,3,4,5,13,9,12,2,10,11,15"
14225,commdev-image-keyboard-response,198,891390,learnblock1,93.8999999910593,img/planet6_left.png,6,Community 1,NA,FALSE,j,f,NA,NA,NA,NA,6,"14,7,6,8,1,3,4,5,13,9,12,2,10,11,15"
14225,commdev-image-keyboard-response,199,892643,learnblock1,840,img/planet7_right.png,7,Community 1,NA,TRUE,j,j,NA,NA,NA,NA,6,"14,7,6,8,1,3,4,5,13,9,12,2,10,11,15"
14225,commdev-image-keyboard-response,200,893896,learnblock1,1093.7000000029802,img/planet14_right.png,14,Community 1,NA,FALSE,f,j,NA,NA,NA,NA,6,"14,7,6,8,1,3,4,5,13,9,12,2,10,11,15"
14225,commdev-image-keyboard-response,201,895149,learnblock1,null,img/planet8_left.png,8,Community 1,NA,FALSE,null,f,NA,NA,NA,NA,6,"14,7,6,8,1,3,4,5,13,9,12,2,10,11,15"
14225,commdev-image-keyboard-response,202,896402,learnblock1,133.79999999701977,img/planet7_left.png,7,Community 1,NA,FALSE,j,f,NA,NA,NA,NA,6,"14,7,6,8,1,3,4,5,13,9,12,2,10,11,15"
14225,commdev-image-keyboard-response,203,897655,learnblock1,562.5,img/planet6_right.png,6,Community 1,NA,FALSE,f,j,NA,NA,NA,NA,6,"14,7,6,8,1,3,4,5,13,9,12,2,10,11,15"
14225,commdev-image-keyboard-response,204,898908,learnblock1,1136,img/planet8_right.png,8,Community 1,NA,TRUE,j,j,NA,NA,NA,NA,6,"14,7,6,8,1,3,4,5,13,9,12,2,10,11,15"
14225,commdev-image-keyboard-response,205,900160,learnblock1,850.7000000029802,img/planet7_right.png,7,Community 1,NA,FALSE,f,j,NA,NA,NA,NA,6,"14,7,6,8,1,3,4,5,13,9,12,2,10,11,15"
14225,commdev-image-keyboard-response,206,901413,learnblock1,741.3999999910593,img/planet8_left.png,8,Community 1,NA,FALSE,j,f,NA,NA,NA,NA,6,"14,7,6,8,1,3,4,5,13,9,12,2,10,11,15"
14225,commdev-image-keyboard-response,207,902666,learnblock1,null,img/planet3_left.png,3,Community 2,NA,FALSE,null,f,NA,NA,NA,NA,6,"14,7,6,8,1,3,4,5,13,9,12,2,10,11,15"
14225,commdev-image-keyboard-response,208,903919,learnblock1,211.5,img/planet9_left.png,9,Community 2,NA,TRUE,f,f,NA,NA,NA,NA,6,"14,7,6,8,1,3,4,5,13,9,12,2,10,11,15"
14225,commdev-image-keyboard-response,209,905171,learnblock1,851.2000000029802,img/planet5_left.png,5,Community 2,NA,FALSE,j,f,NA,NA,NA,NA,6,"14,7,6,8,1,3,4,5,13,9,12,2,10,11,15"
14225,commdev-image-keyboard-response,210,906424,learnblock1,812,img/planet9_left.png,9,Community 2,NA,TRUE,f,f,NA,NA,NA,NA,6,"14,7,6,8,1,3,4,5,13,9,12,2,10,11,15"
14225,commdev-image-keyboard-response,211,907677,learnblock1,null,img/planet13_right.png,13,Community 2,NA,FALSE,null,j,NA,NA,NA,NA,6,"14,7,6,8,1,3,4,5,13,9,12,2,10,11,15"
14225,commdev-image-keyboard-response,212,908930,learnblock1,716.7000000029802,img/planet5_left.png,5,Community 2,NA,TRUE,f,f,NA,NA,NA,NA,6,"14,7,6,8,1,3,4,5,13,9,12,2,10,11,15"
14225,commdev-image-keyboard-response,213,910183,learnblock1,455.5,img/planet13_left.png,13,Community 2,NA,FALSE,j,f,NA,NA,NA,NA,6,"14,7,6,8,1,3,4,5,13,9,12,2,10,11,15"
14225,commdev-image-keyboard-response,214,911436,learnblock1,499.20000000298023,img/planet5_right.png,5,Community 2,NA,FALSE,f,j,NA,NA,NA,NA,6,"14,7,6,8,1,3,4,5,13,9,12,2,10,11,15"
14225,commdev-image-keyboard-response,215,912689,learnblock1,535.2999999970198,img/planet4_right.png,4,Community 2,NA,TRUE,j,j,NA,NA,NA,NA,6,"14,7,6,8,1,3,4,5,13,9,12,2,10,11,15"
14225,commdev-image-keyboard-response,216,913942,learnblock1,666.9000000059605,img/planet5_left.png,5,Community 2,NA,TRUE,f,f,NA,NA,NA,NA,6,"14,7,6,8,1,3,4,5,13,9,12,2,10,11,15"
14225,commdev-image-keyboard-response,217,915195,learnblock1,452.20000000298023,img/planet9_left.png,9,Community 2,NA,FALSE,j,f,NA,NA,NA,NA,6,"14,7,6,8,1,3,4,5,13,9,12,2,10,11,15"
14225,commdev-image-keyboard-response,218,916448,learnblock1,838.2000000029802,img/planet5_left.png,5,Community 2,NA,TRUE,f,f,NA,NA,NA,NA,6,"14,7,6,8,1,3,4,5,13,9,12,2,10,11,15"
14225,commdev-image-keyboard-response,219,917701,learnblock1,603.5,img/planet4_right.png,4,Community 2,NA,TRUE,j,j,NA,NA,NA,NA,6,"14,7,6,8,1,3,4,5,13,9,12,2,10,11,15"
14225,commdev-image-keyboard-response,220,918954,learnblock1,705.5999999940395,img/planet13_left.png,13,Community 2,NA,FALSE,j,f,NA,NA,NA,NA,6,"14,7,6,8,1,3,4,5,13,9,12,2,10,11,15"
14225,commdev-image-keyboard-response,221,920206,learnblock1,417.29999999701977,img/planet9_left.png,9,Community 2,NA,TRUE,f,f,NA,NA,NA,NA,6,"14,7,6,8,1,3,4,5,13,9,12,2,10,11,15"
14225,commdev-image-keyboard-response,222,921459,learnblock1,914.3999999910593,img/planet4_left.png,4,Community 2,NA,FALSE,j,f,NA,NA,NA,NA,6,"14,7,6,8,1,3,4,5,13,9,12,2,10,11,15"
14225,commdev-image-keyboard-response,223,922713,learnblock1,1017.6999999880791,img/planet3_right.png,3,Community 2,NA,TRUE,j,j,NA,NA,NA,NA,6,"14,7,6,8,1,3,4,5,13,9,12,2,10,11,15"
14225,commdev-image-keyboard-response,224,923966,learnblock1,null,img/planet4_left.png,4,Community 2,NA,FALSE,null,f,NA,NA,NA,NA,6,"14,7,6,8,1,3,4,5,13,9,12,2,10,11,15"
14225,commdev-image-keyboard-response,225,925219,learnblock1,523.2000000029802,img/planet3_left.png,3,Community 2,NA,TRUE,f,f,NA,NA,NA,NA,6,"14,7,6,8,1,3,4,5,13,9,12,2,10,11,15"
14225,commdev-image-keyboard-response,226,926472,learnblock1,1209.2000000029802,img/planet9_right.png,9,Community 2,NA,FALSE,f,j,NA,NA,NA,NA,6,"14,7,6,8,1,3,4,5,13,9,12,2,10,11,15"
14225,commdev-image-keyboard-response,227,927725,learnblock1,837.3000000119209,img/planet3_right.png,3,Community 2,NA,FALSE,f,j,NA,NA,NA,NA,6,"14,7,6,8,1,3,4,5,13,9,12,2,10,11,15"
14225,commdev-image-keyboard-response,228,928979,learnblock1,null,img/planet4_left.png,4,Community 2,NA,FALSE,null,f,NA,NA,NA,NA,6,"14,7,6,8,1,3,4,5,13,9,12,2,10,11,15"
14225,commdev-image-keyboard-response,229,930232,learnblock1,42.900000005960464,img/planet3_left.png,3,Community 2,NA,FALSE,j,f,NA,NA,NA,NA,6,"14,7,6,8,1,3,4,5,13,9,12,2,10,11,15"
14225,commdev-image-keyboard-response,230,931485,learnblock1,null,img/planet4_right.png,4,Community 2,NA,FALSE,null,j,NA,NA,NA,NA,6,"14,7,6,8,1,3,4,5,13,9,12,2,10,11,15"
14225,commdev-image-keyboard-response,231,932738,learnblock1,304,img/planet5_left.png,5,Community 2,NA,TRUE,f,f,NA,NA,NA,NA,6,"14,7,6,8,1,3,4,5,13,9,12,2,10,11,15"
14225,commdev-image-keyboard-response,232,933992,learnblock1,772,img/planet2_left.png,2,Community 3,NA,FALSE,j,f,NA,NA,NA,NA,6,"14,7,6,8,1,3,4,5,13,9,12,2,10,11,15"
14225,commdev-image-keyboard-response,233,935244,learnblock1,1056.2000000029802,img/planet15_right.png,15,Community 3,NA,FALSE,f,j,NA,NA,NA,NA,6,"14,7,6,8,1,3,4,5,13,9,12,2,10,11,15"
14225,commdev-image-keyboard-response,234,936497,learnblock1,34.29999999701977,img/planet11_left.png,11,Community 3,NA,FALSE,j,f,NA,NA,NA,NA,6,"14,7,6,8,1,3,4,5,13,9,12,2,10,11,15"
14225,commdev-image-keyboard-response,235,937750,learnblock1,93,img/planet12_right.png,12,Community 3,NA,TRUE,j,j,NA,NA,NA,NA,6,"14,7,6,8,1,3,4,5,13,9,12,2,10,11,15"
14225,commdev-image-keyboard-response,236,939004,learnblock1,833.1000000089407,img/planet15_right.png,15,Community 3,NA,TRUE,j,j,NA,NA,NA,NA,6,"14,7,6,8,1,3,4,5,13,9,12,2,10,11,15"
14225,commdev-image-keyboard-response,237,940257,learnblock1,null,img/planet11_right.png,11,Community 3,NA,FALSE,null,j,NA,NA,NA,NA,6,"14,7,6,8,1,3,4,5,13,9,12,2,10,11,15"
14225,commdev-image-keyboard-response,238,941510,learnblock1,709.2000000029802,img/planet15_left.png,15,Community 3,NA,FALSE,j,f,NA,NA,NA,NA,6,"14,7,6,8,1,3,4,5,13,9,12,2,10,11,15"
14225,commdev-image-keyboard-response,239,942763,learnblock1,1016.5,img/planet11_left.png,11,Community 3,NA,FALSE,j,f,NA,NA,NA,NA,6,"14,7,6,8,1,3,4,5,13,9,12,2,10,11,15"
14225,commdev-image-keyboard-response,240,944017,learnblock1,596.9000000059605,img/planet15_right.png,15,Community 3,NA,TRUE,j,j,NA,NA,NA,NA,6,"14,7,6,8,1,3,4,5,13,9,12,2,10,11,15"
14225,commdev-image-keyboard-response,241,945270,learnblock1,null,img/planet10_right.png,10,Community 3,NA,FALSE,null,j,NA,NA,NA,NA,6,"14,7,6,8,1,3,4,5,13,9,12,2,10,11,15"
14225,commdev-image-keyboard-response,242,946523,learnblock1,1058.5,img/planet2_right.png,2,Community 3,NA,TRUE,j,j,NA,NA,NA,NA,6,"14,7,6,8,1,3,4,5,13,9,12,2,10,11,15"
14225,commdev-image-keyboard-response,243,947776,learnblock1,null,img/planet5_right.png,5,Community 2,NA,FALSE,null,j,NA,NA,NA,NA,6,"14,7,6,8,1,3,4,5,13,9,12,2,10,11,15"
14225,commdev-image-keyboard-response,244,949029,learnblock1,744.2999999970198,img/planet2_left.png,2,Community 3,NA,FALSE,j,f,NA,NA,NA,NA,6,"14,7,6,8,1,3,4,5,13,9,12,2,10,11,15"
14225,commdev-image-keyboard-response,245,950282,learnblock1,880.5,img/planet10_left.png,10,Community 3,NA,FALSE,j,f,NA,NA,NA,NA,6,"14,7,6,8,1,3,4,5,13,9,12,2,10,11,15"
14225,commdev-image-keyboard-response,246,951536,learnblock1,538.4000000059605,img/planet12_left.png,12,Community 3,NA,FALSE,j,f,NA,NA,NA,NA,6,"14,7,6,8,1,3,4,5,13,9,12,2,10,11,15"
14225,commdev-image-keyboard-response,247,952789,learnblock1,969.2999999970198,img/planet15_right.png,15,Community 3,NA,FALSE,f,j,NA,NA,NA,NA,6,"14,7,6,8,1,3,4,5,13,9,12,2,10,11,15"
14225,commdev-image-keyboard-response,248,954042,learnblock1,287.20000000298023,img/planet2_left.png,2,Community 3,NA,FALSE,j,f,NA,NA,NA,NA,6,"14,7,6,8,1,3,4,5,13,9,12,2,10,11,15"
14225,commdev-image-keyboard-response,249,955295,learnblock1,434,img/planet11_right.png,11,Community 3,NA,TRUE,j,j,NA,NA,NA,NA,6,"14,7,6,8,1,3,4,5,13,9,12,2,10,11,15"
14225,commdev-image-keyboard-response,250,956548,learnblock1,506.09999999403954,img/planet2_left.png,2,Community 3,NA,FALSE,j,f,NA,NA,NA,NA,6,"14,7,6,8,1,3,4,5,13,9,12,2,10,11,15"
14225,commdev-image-keyboard-response,251,957799,learnblock1,649.0999999940395,img/planet15_right.png,15,Community 3,NA,TRUE,j,j,NA,NA,NA,NA,6,"14,7,6,8,1,3,4,5,13,9,12,2,10,11,15"
14225,commdev-image-keyboard-response,252,959053,learnblock1,676.7999999970198,img/planet11_left.png,11,Community 3,NA,FALSE,j,f,NA,NA,NA,NA,6,"14,7,6,8,1,3,4,5,13,9,12,2,10,11,15"
14225,commdev-image-keyboard-response,253,960306,learnblock1,452.90000000596046,img/planet15_right.png,15,Community 3,NA,TRUE,j,j,NA,NA,NA,NA,6,"14,7,6,8,1,3,4,5,13,9,12,2,10,11,15"
14225,commdev-image-keyboard-response,254,961559,learnblock1,462,img/planet2_right.png,2,Community 3,NA,TRUE,j,j,NA,NA,NA,NA,6,"14,7,6,8,1,3,4,5,13,9,12,2,10,11,15"
14225,commdev-image-keyboard-response,255,962812,learnblock1,723.9000000059605,img/planet10_left.png,10,Community 3,NA,FALSE,j,f,NA,NA,NA,NA,6,"14,7,6,8,1,3,4,5,13,9,12,2,10,11,15"
14225,commdev-image-keyboard-response,256,964065,learnblock1,734.7000000029802,img/planet2_right.png,2,Community 3,NA,TRUE,j,j,NA,NA,NA,NA,6,"14,7,6,8,1,3,4,5,13,9,12,2,10,11,15"
14225,commdev-image-keyboard-response,257,965318,learnblock1,332,img/planet11_right.png,11,Community 3,NA,TRUE,j,j,NA,NA,NA,NA,6,"14,7,6,8,1,3,4,5,13,9,12,2,10,11,15"
14225,commdev-image-keyboard-response,258,966572,learnblock1,385.29999999701977,img/planet15_right.png,15,Community 3,NA,TRUE,j,j,NA,NA,NA,NA,6,"14,7,6,8,1,3,4,5,13,9,12,2,10,11,15"
14225,commdev-image-keyboard-response,259,967823,learnblock1,6.4000000059604645,img/planet2_right.png,2,Community 3,NA,TRUE,j,j,NA,NA,NA,NA,6,"14,7,6,8,1,3,4,5,13,9,12,2,10,11,15"
14225,commdev-image-keyboard-response,260,969077,learnblock1,294.90000000596046,img/planet11_right.png,11,Community 3,NA,TRUE,j,j,NA,NA,NA,NA,6,"14,7,6,8,1,3,4,5,13,9,12,2,10,11,15"
14225,commdev-image-keyboard-response,261,970330,learnblock1,809.5,img/planet10_right.png,10,Community 3,NA,TRUE,j,j,NA,NA,NA,NA,6,"14,7,6,8,1,3,4,5,13,9,12,2,10,11,15"
14225,commdev-image-keyboard-response,262,971583,learnblock1,699.7999999970198,img/planet15_right.png,15,Community 3,NA,TRUE,j,j,NA,NA,NA,NA,6,"14,7,6,8,1,3,4,5,13,9,12,2,10,11,15"
14225,commdev-image-keyboard-response,263,972836,learnblock1,700.1000000089407,img/planet2_right.png,2,Community 3,NA,TRUE,j,j,NA,NA,NA,NA,6,"14,7,6,8,1,3,4,5,13,9,12,2,10,11,15"
14225,commdev-image-keyboard-response,264,974088,learnblock1,1166.9000000059605,img/planet11_right.png,11,Community 3,NA,TRUE,j,j,NA,NA,NA,NA,6,"14,7,6,8,1,3,4,5,13,9,12,2,10,11,15"
14225,commdev-image-keyboard-response,265,975342,learnblock1,777.2000000029802,img/planet15_left.png,15,Community 3,NA,FALSE,j,f,NA,NA,NA,NA,6,"14,7,6,8,1,3,4,5,13,9,12,2,10,11,15"
14225,commdev-image-keyboard-response,266,976595,learnblock1,524,img/planet2_left.png,2,Community 3,NA,FALSE,j,f,NA,NA,NA,NA,6,"14,7,6,8,1,3,4,5,13,9,12,2,10,11,15"
14225,commdev-image-keyboard-response,267,977847,learnblock1,275.69999998807907,img/planet11_right.png,11,Community 3,NA,TRUE,j,j,NA,NA,NA,NA,6,"14,7,6,8,1,3,4,5,13,9,12,2,10,11,15"
14225,commdev-image-keyboard-response,268,979100,learnblock1,761.5999999940395,img/planet10_right.png,10,Community 3,NA,TRUE,j,j,NA,NA,NA,NA,6,"14,7,6,8,1,3,4,5,13,9,12,2,10,11,15"
14225,commdev-image-keyboard-response,269,980353,learnblock1,513.3999999910593,img/planet12_left.png,12,Community 3,NA,FALSE,j,f,NA,NA,NA,NA,6,"14,7,6,8,1,3,4,5,13,9,12,2,10,11,15"
14225,commdev-image-keyboard-response,270,981606,learnblock1,250.59999999403954,img/planet15_right.png,15,Community 3,NA,TRUE,j,j,NA,NA,NA,NA,6,"14,7,6,8,1,3,4,5,13,9,12,2,10,11,15"
14225,commdev-image-keyboard-response,271,982859,learnblock1,59.6000000089407,img/planet12_left.png,12,Community 3,NA,FALSE,j,f,NA,NA,NA,NA,6,"14,7,6,8,1,3,4,5,13,9,12,2,10,11,15"
14225,commdev-image-keyboard-response,272,984112,learnblock1,10.599999994039536,img/planet10_right.png,10,Community 3,NA,TRUE,j,j,NA,NA,NA,NA,6,"14,7,6,8,1,3,4,5,13,9,12,2,10,11,15"
14225,commdev-image-keyboard-response,273,985365,learnblock1,776.5,img/planet11_left.png,11,Community 3,NA,FALSE,j,f,NA,NA,NA,NA,6,"14,7,6,8,1,3,4,5,13,9,12,2,10,11,15"
14225,commdev-image-keyboard-response,274,986618,learnblock1,718.2999999970198,img/planet12_right.png,12,Community 3,NA,TRUE,j,j,NA,NA,NA,NA,6,"14,7,6,8,1,3,4,5,13,9,12,2,10,11,15"
14225,commdev-image-keyboard-response,275,987871,learnblock1,579.2999999970198,img/planet11_left.png,11,Community 3,NA,FALSE,j,f,NA,NA,NA,NA,6,"14,7,6,8,1,3,4,5,13,9,12,2,10,11,15"
14225,commdev-image-keyboard-response,276,989124,learnblock1,383.5,img/planet10_left.png,10,Community 3,NA,FALSE,j,f,NA,NA,NA,NA,6,"14,7,6,8,1,3,4,5,13,9,12,2,10,11,15"
14225,commdev-image-keyboard-response,277,990377,learnblock1,82.8999999910593,img/planet11_left.png,11,Community 3,NA,FALSE,j,f,NA,NA,NA,NA,6,"14,7,6,8,1,3,4,5,13,9,12,2,10,11,15"
14225,commdev-image-keyboard-response,278,991631,learnblock1,772.2999999970198,img/planet15_right.png,15,Community 3,NA,TRUE,j,j,NA,NA,NA,NA,6,"14,7,6,8,1,3,4,5,13,9,12,2,10,11,15"
14225,commdev-image-keyboard-response,279,992884,learnblock1,328.70000000298023,img/planet10_right.png,10,Community 3,NA,TRUE,j,j,NA,NA,NA,NA,6,"14,7,6,8,1,3,4,5,13,9,12,2,10,11,15"
14225,commdev-image-keyboard-response,280,994136,learnblock1,560.7999999970198,img/planet2_right.png,2,Community 3,NA,TRUE,j,j,NA,NA,NA,NA,6,"14,7,6,8,1,3,4,5,13,9,12,2,10,11,15"
14225,commdev-image-keyboard-response,281,995390,learnblock1,null,img/planet11_left.png,11,Community 3,NA,FALSE,null,f,NA,NA,NA,NA,6,"14,7,6,8,1,3,4,5,13,9,12,2,10,11,15"
14225,commdev-image-keyboard-response,282,996643,learnblock1,390.5,img/planet10_right.png,10,Community 3,NA,TRUE,j,j,NA,NA,NA,NA,6,"14,7,6,8,1,3,4,5,13,9,12,2,10,11,15"
14225,commdev-image-keyboard-response,283,997895,learnblock1,null,img/planet2_right.png,2,Community 3,NA,FALSE,null,j,NA,NA,NA,NA,6,"14,7,6,8,1,3,4,5,13,9,12,2,10,11,15"
14225,commdev-image-keyboard-response,284,999148,learnblock1,null,img/planet10_right.png,10,Community 3,NA,FALSE,null,j,NA,NA,NA,NA,6,"14,7,6,8,1,3,4,5,13,9,12,2,10,11,15"
14225,commdev-image-keyboard-response,285,1000401,learnblock1,1038,img/planet12_right.png,12,Community 3,NA,TRUE,j,j,NA,NA,NA,NA,6,"14,7,6,8,1,3,4,5,13,9,12,2,10,11,15"
14225,commdev-image-keyboard-response,286,1001654,learnblock1,null,img/planet1_right.png,1,Community 1,NA,FALSE,null,j,NA,NA,NA,NA,6,"14,7,6,8,1,3,4,5,13,9,12,2,10,11,15"
14225,commdev-image-keyboard-response,287,1002906,learnblock1,null,img/planet7_right.png,7,Community 1,NA,FALSE,null,j,NA,NA,NA,NA,6,"14,7,6,8,1,3,4,5,13,9,12,2,10,11,15"
14225,commdev-image-keyboard-response,288,1004160,learnblock1,959.8000000119209,img/planet6_left.png,6,Community 1,NA,FALSE,j,f,NA,NA,NA,NA,6,"14,7,6,8,1,3,4,5,13,9,12,2,10,11,15"
14225,commdev-image-keyboard-response,289,1005413,learnblock1,null,img/planet1_right.png,1,Community 1,NA,FALSE,null,j,NA,NA,NA,NA,6,"14,7,6,8,1,3,4,5,13,9,12,2,10,11,15"
14225,commdev-image-keyboard-response,290,1006666,learnblock1,632.8999999910593,img/planet6_right.png,6,Community 1,NA,TRUE,j,j,NA,NA,NA,NA,6,"14,7,6,8,1,3,4,5,13,9,12,2,10,11,15"
14225,commdev-image-keyboard-response,291,1007918,learnblock1,null,img/planet1_left.png,1,Community 1,NA,FALSE,null,f,NA,NA,NA,NA,6,"14,7,6,8,1,3,4,5,13,9,12,2,10,11,15"
14225,commdev-image-keyboard-response,292,1009171,learnblock1,676.0999999940395,img/planet6_left.png,6,Community 1,NA,FALSE,j,f,NA,NA,NA,NA,6,"14,7,6,8,1,3,4,5,13,9,12,2,10,11,15"
14225,commdev-image-keyboard-response,293,1010424,learnblock1,null,img/planet14_left.png,14,Community 1,NA,FALSE,null,f,NA,NA,NA,NA,6,"14,7,6,8,1,3,4,5,13,9,12,2,10,11,15"
14225,commdev-image-keyboard-response,294,1011677,learnblock1,637.2999999970198,img/planet1_right.png,1,Community 1,NA,TRUE,j,j,NA,NA,NA,NA,6,"14,7,6,8,1,3,4,5,13,9,12,2,10,11,15"
14225,commdev-image-keyboard-response,295,1012929,learnblock1,null,img/planet12_left.png,12,Community 3,NA,FALSE,null,f,NA,NA,NA,NA,6,"14,7,6,8,1,3,4,5,13,9,12,2,10,11,15"
14225,commdev-image-keyboard-response,296,1014183,learnblock1,117.5,img/planet1_right.png,1,Community 1,NA,TRUE,j,j,NA,NA,NA,NA,6,"14,7,6,8,1,3,4,5,13,9,12,2,10,11,15"
14225,commdev-image-keyboard-response,297,1015436,learnblock1,967.7000000029802,img/planet6_right.png,6,Community 1,NA,TRUE,j,j,NA,NA,NA,NA,6,"14,7,6,8,1,3,4,5,13,9,12,2,10,11,15"
14225,commdev-image-keyboard-response,298,1016689,learnblock1,null,img/planet7_right.png,7,Community 1,NA,FALSE,null,j,NA,NA,NA,NA,6,"14,7,6,8,1,3,4,5,13,9,12,2,10,11,15"
14225,commdev-image-keyboard-response,299,1017942,learnblock1,884.2999999970198,img/planet8_left.png,8,Community 1,NA,FALSE,j,f,NA,NA,NA,NA,6,"14,7,6,8,1,3,4,5,13,9,12,2,10,11,15"
14225,commdev-image-keyboard-response,300,1019195,learnblock1,null,img/planet14_right.png,14,Community 1,NA,FALSE,null,j,NA,NA,NA,NA,6,"14,7,6,8,1,3,4,5,13,9,12,2,10,11,15"
14225,commdev-image-keyboard-response,301,1020448,learnblock1,null,img/planet7_right.png,7,Community 1,NA,FALSE,null,j,NA,NA,NA,NA,6,"14,7,6,8,1,3,4,5,13,9,12,2,10,11,15"
14225,commdev-image-keyboard-response,302,1021700,learnblock1,null,img/planet8_left.png,8,Community 1,NA,FALSE,null,f,NA,NA,NA,NA,6,"14,7,6,8,1,3,4,5,13,9,12,2,10,11,15"
14225,commdev-image-keyboard-response,303,1022952,learnblock1,null,img/planet7_left.png,7,Community 1,NA,FALSE,null,f,NA,NA,NA,NA,6,"14,7,6,8,1,3,4,5,13,9,12,2,10,11,15"
14225,commdev-image-keyboard-response,304,1024205,learnblock1,null,img/planet8_left.png,8,Community 1,NA,FALSE,null,f,NA,NA,NA,NA,6,"14,7,6,8,1,3,4,5,13,9,12,2,10,11,15"
14225,commdev-image-keyboard-response,305,1025458,learnblock1,null,img/planet7_right.png,7,Community 1,NA,FALSE,null,j,NA,NA,NA,NA,6,"14,7,6,8,1,3,4,5,13,9,12,2,10,11,15"
14225,commdev-image-keyboard-response,306,1026711,learnblock1,null,img/planet8_right.png,8,Community 1,NA,FALSE,null,j,NA,NA,NA,NA,6,"14,7,6,8,1,3,4,5,13,9,12,2,10,11,15"
14225,commdev-image-keyboard-response,307,1027964,learnblock1,518.8000000119209,img/planet14_left.png,14,Community 1,NA,FALSE,j,f,NA,NA,NA,NA,6,"14,7,6,8,1,3,4,5,13,9,12,2,10,11,15"
14225,commdev-image-keyboard-response,308,1029216,learnblock1,957.3999999910593,img/planet1_left.png,1,Community 1,NA,FALSE,j,f,NA,NA,NA,NA,6,"14,7,6,8,1,3,4,5,13,9,12,2,10,11,15"
14225,commdev-image-keyboard-response,309,1030469,learnblock1,null,img/planet6_right.png,6,Community 1,NA,FALSE,null,j,NA,NA,NA,NA,6,"14,7,6,8,1,3,4,5,13,9,12,2,10,11,15"
14225,commdev-image-keyboard-response,310,1031722,learnblock1,388.29999999701977,img/planet14_right.png,14,Community 1,NA,TRUE,j,j,NA,NA,NA,NA,6,"14,7,6,8,1,3,4,5,13,9,12,2,10,11,15"
14225,commdev-image-keyboard-response,311,1032975,learnblock1,null,img/planet7_right.png,7,Community 1,NA,FALSE,null,j,NA,NA,NA,NA,6,"14,7,6,8,1,3,4,5,13,9,12,2,10,11,15"
14225,commdev-image-keyboard-response,312,1034227,learnblock1,1127.7999999970198,img/planet8_left.png,8,Community 1,NA,FALSE,j,f,NA,NA,NA,NA,6,"14,7,6,8,1,3,4,5,13,9,12,2,10,11,15"
14225,commdev-image-keyboard-response,313,1035480,learnblock1,null,img/planet7_left.png,7,Community 1,NA,FALSE,null,f,NA,NA,NA,NA,6,"14,7,6,8,1,3,4,5,13,9,12,2,10,11,15"
14225,commdev-image-keyboard-response,314,1036733,learnblock1,null,img/planet6_left.png,6,Community 1,NA,FALSE,null,f,NA,NA,NA,NA,6,"14,7,6,8,1,3,4,5,13,9,12,2,10,11,15"
14225,commdev-image-keyboard-response,315,1037986,learnblock1,null,img/planet14_left.png,14,Community 1,NA,FALSE,null,f,NA,NA,NA,NA,6,"14,7,6,8,1,3,4,5,13,9,12,2,10,11,15"
14225,commdev-image-keyboard-response,316,1039238,learnblock1,null,img/planet8_left.png,8,Community 1,NA,FALSE,null,f,NA,NA,NA,NA,6,"14,7,6,8,1,3,4,5,13,9,12,2,10,11,15"
14225,commdev-image-keyboard-response,317,1040490,learnblock1,796,img/planet7_left.png,7,Community 1,NA,FALSE,j,f,NA,NA,NA,NA,6,"14,7,6,8,1,3,4,5,13,9,12,2,10,11,15"
14225,commdev-image-keyboard-response,318,1041744,learnblock1,null,img/planet14_left.png,14,Community 1,NA,FALSE,null,f,NA,NA,NA,NA,6,"14,7,6,8,1,3,4,5,13,9,12,2,10,11,15"
14225,commdev-image-keyboard-response,319,1042996,learnblock1,null,img/planet7_left.png,7,Community 1,NA,FALSE,null,f,NA,NA,NA,NA,6,"14,7,6,8,1,3,4,5,13,9,12,2,10,11,15"
14225,commdev-image-keyboard-response,320,1044248,learnblock1,null,img/planet14_right.png,14,Community 1,NA,FALSE,null,j,NA,NA,NA,NA,6,"14,7,6,8,1,3,4,5,13,9,12,2,10,11,15"
14225,commdev-image-keyboard-response,321,1045500,learnblock1,961.7000000029802,img/planet8_left.png,8,Community 1,NA,FALSE,j,f,NA,NA,NA,NA,6,"14,7,6,8,1,3,4,5,13,9,12,2,10,11,15"
14225,commdev-image-keyboard-response,322,1046754,learnblock1,null,img/planet14_right.png,14,Community 1,NA,FALSE,null,j,NA,NA,NA,NA,6,"14,7,6,8,1,3,4,5,13,9,12,2,10,11,15"
14225,commdev-image-keyboard-response,323,1048007,learnblock1,1209.0999999940395,img/planet6_right.png,6,Community 1,NA,TRUE,j,j,NA,NA,NA,NA,6,"14,7,6,8,1,3,4,5,13,9,12,2,10,11,15"
14225,commdev-image-keyboard-response,324,1049259,learnblock1,null,img/planet8_left.png,8,Community 1,NA,FALSE,null,f,NA,NA,NA,NA,6,"14,7,6,8,1,3,4,5,13,9,12,2,10,11,15"
14225,commdev-image-keyboard-response,325,1050512,learnblock1,6,img/planet7_left.png,7,Community 1,NA,TRUE,f,f,NA,NA,NA,NA,6,"14,7,6,8,1,3,4,5,13,9,12,2,10,11,15"
14225,commdev-image-keyboard-response,326,1051765,learnblock1,null,img/planet14_left.png,14,Community 1,NA,FALSE,null,f,NA,NA,NA,NA,6,"14,7,6,8,1,3,4,5,13,9,12,2,10,11,15"
14225,commdev-image-keyboard-response,327,1053018,learnblock1,1099.5999999940395,img/planet6_left.png,6,Community 1,NA,FALSE,j,f,NA,NA,NA,NA,6,"14,7,6,8,1,3,4,5,13,9,12,2,10,11,15"
14225,commdev-image-keyboard-response,328,1054270,learnblock1,null,img/planet7_left.png,7,Community 1,NA,FALSE,null,f,NA,NA,NA,NA,6,"14,7,6,8,1,3,4,5,13,9,12,2,10,11,15"
14225,commdev-image-keyboard-response,329,1055523,learnblock1,1109.5,img/planet8_left.png,8,Community 1,NA,FALSE,j,f,NA,NA,NA,NA,6,"14,7,6,8,1,3,4,5,13,9,12,2,10,11,15"
14225,commdev-image-keyboard-response,330,1056777,learnblock1,null,img/planet14_left.png,14,Community 1,NA,FALSE,null,f,NA,NA,NA,NA,6,"14,7,6,8,1,3,4,5,13,9,12,2,10,11,15"
14225,commdev-image-keyboard-response,331,1058029,learnblock1,null,img/planet1_right.png,1,Community 1,NA,FALSE,null,j,NA,NA,NA,NA,6,"14,7,6,8,1,3,4,5,13,9,12,2,10,11,15"
14225,commdev-image-keyboard-response,332,1059281,learnblock1,null,img/planet12_right.png,12,Community 3,NA,FALSE,null,j,NA,NA,NA,NA,6,"14,7,6,8,1,3,4,5,13,9,12,2,10,11,15"
14225,commdev-image-keyboard-response,333,1060534,learnblock1,244.40000000596046,img/planet1_left.png,1,Community 1,NA,FALSE,j,f,NA,NA,NA,NA,6,"14,7,6,8,1,3,4,5,13,9,12,2,10,11,15"
14225,commdev-image-keyboard-response,334,1061787,learnblock1,null,img/planet14_left.png,14,Community 1,NA,FALSE,null,f,NA,NA,NA,NA,6,"14,7,6,8,1,3,4,5,13,9,12,2,10,11,15"
14225,commdev-image-keyboard-response,335,1063040,learnblock1,1100.5,img/planet6_right.png,6,Community 1,NA,TRUE,j,j,NA,NA,NA,NA,6,"14,7,6,8,1,3,4,5,13,9,12,2,10,11,15"
14225,commdev-image-keyboard-response,336,1064293,learnblock1,null,img/planet8_right.png,8,Community 1,NA,FALSE,null,j,NA,NA,NA,NA,6,"14,7,6,8,1,3,4,5,13,9,12,2,10,11,15"
14225,commdev-image-keyboard-response,337,1065545,learnblock1,487.90000000596046,img/planet14_right.png,14,Community 1,NA,TRUE,j,j,NA,NA,NA,NA,6,"14,7,6,8,1,3,4,5,13,9,12,2,10,11,15"
14225,commdev-image-keyboard-response,338,1066798,learnblock1,148.79999999701977,img/planet8_right.png,8,Community 1,NA,FALSE,f,j,NA,NA,NA,NA,6,"14,7,6,8,1,3,4,5,13,9,12,2,10,11,15"
14225,commdev-image-keyboard-response,339,1068051,learnblock1,260,img/planet6_right.png,6,Community 1,NA,TRUE,j,j,NA,NA,NA,NA,6,"14,7,6,8,1,3,4,5,13,9,12,2,10,11,15"
14225,commdev-image-keyboard-response,340,1069304,learnblock1,1144.1000000089407,img/planet8_left.png,8,Community 1,NA,FALSE,j,f,NA,NA,NA,NA,6,"14,7,6,8,1,3,4,5,13,9,12,2,10,11,15"
14225,commdev-image-keyboard-response,341,1070557,learnblock1,null,img/planet14_right.png,14,Community 1,NA,FALSE,null,j,NA,NA,NA,NA,6,"14,7,6,8,1,3,4,5,13,9,12,2,10,11,15"
14225,commdev-image-keyboard-response,342,1071810,learnblock1,1159.5999999940395,img/planet8_left.png,8,Community 1,NA,TRUE,f,f,NA,NA,NA,NA,6,"14,7,6,8,1,3,4,5,13,9,12,2,10,11,15"
14225,commdev-image-keyboard-response,343,1073063,learnblock1,1091.5999999940395,img/planet7_left.png,7,Community 1,NA,FALSE,j,f,NA,NA,NA,NA,6,"14,7,6,8,1,3,4,5,13,9,12,2,10,11,15"
14225,commdev-image-keyboard-response,344,1074316,learnblock1,775.5,img/planet8_left.png,8,Community 1,NA,TRUE,f,f,NA,NA,NA,NA,6,"14,7,6,8,1,3,4,5,13,9,12,2,10,11,15"
14225,commdev-image-keyboard-response,345,1075569,learnblock1,478.20000000298023,img/planet6_left.png,6,Community 1,NA,FALSE,j,f,NA,NA,NA,NA,6,"14,7,6,8,1,3,4,5,13,9,12,2,10,11,15"
14225,commdev-image-keyboard-response,346,1076822,learnblock1,417.5,img/planet8_right.png,8,Community 1,NA,FALSE,f,j,NA,NA,NA,NA,6,"14,7,6,8,1,3,4,5,13,9,12,2,10,11,15"
14225,commdev-image-keyboard-response,347,1078075,learnblock1,100.29999999701977,img/planet6_left.png,6,Community 1,NA,FALSE,j,f,NA,NA,NA,NA,6,"14,7,6,8,1,3,4,5,13,9,12,2,10,11,15"
14225,commdev-image-keyboard-response,348,1079327,learnblock1,195,img/planet1_right.png,1,Community 1,NA,TRUE,j,j,NA,NA,NA,NA,6,"14,7,6,8,1,3,4,5,13,9,12,2,10,11,15"
14225,commdev-image-keyboard-response,349,1080580,learnblock1,124.20000000298023,img/planet12_left.png,12,Community 3,NA,TRUE,f,f,NA,NA,NA,NA,6,"14,7,6,8,1,3,4,5,13,9,12,2,10,11,15"
14225,commdev-image-keyboard-response,350,1081833,learnblock1,27.200000002980232,img/planet10_right.png,10,Community 3,NA,FALSE,f,j,NA,NA,NA,NA,6,"14,7,6,8,1,3,4,5,13,9,12,2,10,11,15"
14225,commdev-image-keyboard-response,351,1083087,learnblock1,277.19999998807907,img/planet2_left.png,2,Community 3,NA,TRUE,f,f,NA,NA,NA,NA,6,"14,7,6,8,1,3,4,5,13,9,12,2,10,11,15"
14225,commdev-image-keyboard-response,352,1084339,learnblock1,339.40000000596046,img/planet11_right.png,11,Community 3,NA,FALSE,f,j,NA,NA,NA,NA,6,"14,7,6,8,1,3,4,5,13,9,12,2,10,11,15"
14225,commdev-image-keyboard-response,353,1085593,learnblock1,395.20000000298023,img/planet12_right.png,12,Community 3,NA,FALSE,f,j,NA,NA,NA,NA,6,"14,7,6,8,1,3,4,5,13,9,12,2,10,11,15"
14225,commdev-image-keyboard-response,354,1086846,learnblock1,313.40000000596046,img/planet11_left.png,11,Community 3,NA,TRUE,f,f,NA,NA,NA,NA,6,"14,7,6,8,1,3,4,5,13,9,12,2,10,11,15"
14225,commdev-image-keyboard-response,355,1088099,learnblock1,140.59999999403954,img/planet2_left.png,2,Community 3,NA,TRUE,f,f,NA,NA,NA,NA,6,"14,7,6,8,1,3,4,5,13,9,12,2,10,11,15"
14225,commdev-image-keyboard-response,356,1089352,learnblock1,751.7999999970198,img/planet5_left.png,5,Community 2,NA,FALSE,j,f,NA,NA,NA,NA,6,"14,7,6,8,1,3,4,5,13,9,12,2,10,11,15"
14225,commdev-image-keyboard-response,357,1090604,learnblock1,672.5,img/planet4_right.png,4,Community 2,NA,TRUE,j,j,NA,NA,NA,NA,6,"14,7,6,8,1,3,4,5,13,9,12,2,10,11,15"
14225,commdev-image-keyboard-response,358,1091856,learnblock1,541.7999999970198,img/planet5_right.png,5,Community 2,NA,TRUE,j,j,NA,NA,NA,NA,6,"14,7,6,8,1,3,4,5,13,9,12,2,10,11,15"
14225,commdev-image-keyboard-response,359,1093109,learnblock1,47.3999999910593,img/planet9_right.png,9,Community 2,NA,TRUE,j,j,NA,NA,NA,NA,6,"14,7,6,8,1,3,4,5,13,9,12,2,10,11,15"
14225,commdev-image-keyboard-response,360,1094362,learnblock1,309.3999999910593,img/planet5_left.png,5,Community 2,NA,FALSE,j,f,NA,NA,NA,NA,6,"14,7,6,8,1,3,4,5,13,9,12,2,10,11,15"
14225,commdev-image-keyboard-response,361,1095614,learnblock1,940.8999999910593,img/planet13_right.png,13,Community 2,NA,TRUE,j,j,NA,NA,NA,NA,6,"14,7,6,8,1,3,4,5,13,9,12,2,10,11,15"
14225,commdev-image-keyboard-response,362,1096867,learnblock1,576.0999999940395,img/planet3_right.png,3,Community 2,NA,FALSE,f,j,NA,NA,NA,NA,6,"14,7,6,8,1,3,4,5,13,9,12,2,10,11,15"
14225,commdev-image-keyboard-response,363,1098120,learnblock1,93.3999999910593,img/planet13_right.png,13,Community 2,NA,FALSE,f,j,NA,NA,NA,NA,6,"14,7,6,8,1,3,4,5,13,9,12,2,10,11,15"
14225,commdev-image-keyboard-response,364,1099373,learnblock1,728,img/planet5_left.png,5,Community 2,NA,TRUE,f,f,NA,NA,NA,NA,6,"14,7,6,8,1,3,4,5,13,9,12,2,10,11,15"
14225,commdev-image-keyboard-response,365,1100626,learnblock1,null,img/planet4_right.png,4,Community 2,NA,FALSE,null,j,NA,NA,NA,NA,6,"14,7,6,8,1,3,4,5,13,9,12,2,10,11,15"
14225,commdev-image-keyboard-response,366,1101879,learnblock1,635.2000000029802,img/planet9_right.png,9,Community 2,NA,FALSE,f,j,NA,NA,NA,NA,6,"14,7,6,8,1,3,4,5,13,9,12,2,10,11,15"
14225,commdev-image-keyboard-response,367,1103132,learnblock1,250.5,img/planet3_left.png,3,Community 2,NA,TRUE,f,f,NA,NA,NA,NA,6,"14,7,6,8,1,3,4,5,13,9,12,2,10,11,15"
14225,commdev-image-keyboard-response,368,1104385,learnblock1,59.20000000298023,img/planet9_right.png,9,Community 2,NA,FALSE,f,j,NA,NA,NA,NA,6,"14,7,6,8,1,3,4,5,13,9,12,2,10,11,15"
14225,commdev-image-keyboard-response,369,1105638,learnblock1,null,img/planet13_left.png,13,Community 2,NA,FALSE,null,f,NA,NA,NA,NA,6,"14,7,6,8,1,3,4,5,13,9,12,2,10,11,15"
14225,commdev-image-keyboard-response,370,1106890,learnblock1,264.70000000298023,img/planet4_left.png,4,Community 2,NA,FALSE,j,f,NA,NA,NA,NA,6,"14,7,6,8,1,3,4,5,13,9,12,2,10,11,15"
14225,commdev-image-keyboard-response,371,1108144,learnblock1,null,img/planet5_left.png,5,Community 2,NA,FALSE,null,f,NA,NA,NA,NA,6,"14,7,6,8,1,3,4,5,13,9,12,2,10,11,15"
14225,commdev-image-keyboard-response,372,1109396,learnblock1,null,img/planet4_right.png,4,Community 2,NA,FALSE,null,j,NA,NA,NA,NA,6,"14,7,6,8,1,3,4,5,13,9,12,2,10,11,15"
14225,commdev-image-keyboard-response,373,1110650,learnblock1,null,img/planet13_left.png,13,Community 2,NA,FALSE,null,f,NA,NA,NA,NA,6,"14,7,6,8,1,3,4,5,13,9,12,2,10,11,15"
14225,commdev-image-keyboard-response,374,1111902,learnblock1,879.9000000059605,img/planet5_right.png,5,Community 2,NA,FALSE,f,j,NA,NA,NA,NA,6,"14,7,6,8,1,3,4,5,13,9,12,2,10,11,15"
14225,commdev-image-keyboard-response,375,1113155,learnblock1,754.3000000119209,img/planet13_right.png,13,Community 2,NA,TRUE,j,j,NA,NA,NA,NA,6,"14,7,6,8,1,3,4,5,13,9,12,2,10,11,15"
14225,commdev-image-keyboard-response,376,1114408,learnblock1,726.1000000089407,img/planet5_left.png,5,Community 2,NA,TRUE,f,f,NA,NA,NA,NA,6,"14,7,6,8,1,3,4,5,13,9,12,2,10,11,15"
14225,commdev-image-keyboard-response,377,1115661,learnblock1,620.5999999940395,img/planet9_left.png,9,Community 2,NA,FALSE,j,f,NA,NA,NA,NA,6,"14,7,6,8,1,3,4,5,13,9,12,2,10,11,15"
14225,commdev-image-keyboard-response,378,1116914,learnblock1,933.2999999970198,img/planet3_left.png,3,Community 2,NA,TRUE,f,f,NA,NA,NA,NA,6,"14,7,6,8,1,3,4,5,13,9,12,2,10,11,15"
14225,commdev-image-keyboard-response,379,1118166,learnblock1,855.4000000059605,img/planet4_left.png,4,Community 2,NA,TRUE,f,f,NA,NA,NA,NA,6,"14,7,6,8,1,3,4,5,13,9,12,2,10,11,15"
14225,commdev-image-keyboard-response,380,1119419,learnblock1,851.5999999940395,img/planet3_right.png,3,Community 2,NA,TRUE,j,j,NA,NA,NA,NA,6,"14,7,6,8,1,3,4,5,13,9,12,2,10,11,15"
14225,commdev-image-keyboard-response,381,1120672,learnblock1,null,img/planet8_left.png,8,Community 1,NA,FALSE,null,f,NA,NA,NA,NA,6,"14,7,6,8,1,3,4,5,13,9,12,2,10,11,15"
14225,commdev-image-keyboard-response,382,1121924,learnblock1,747.3999999910593,img/planet3_right.png,3,Community 2,NA,FALSE,f,j,NA,NA,NA,NA,6,"14,7,6,8,1,3,4,5,13,9,12,2,10,11,15"
14225,commdev-image-keyboard-response,383,1123177,learnblock1,849.9000000059605,img/planet9_left.png,9,Community 2,NA,FALSE,j,f,NA,NA,NA,NA,6,"14,7,6,8,1,3,4,5,13,9,12,2,10,11,15"
14225,commdev-image-keyboard-response,384,1124429,learnblock1,1200.1000000089407,img/planet4_left.png,4,Community 2,NA,TRUE,f,f,NA,NA,NA,NA,6,"14,7,6,8,1,3,4,5,13,9,12,2,10,11,15"
14225,commdev-image-keyboard-response,385,1125682,learnblock1,933.3999999910593,img/planet9_right.png,9,Community 2,NA,TRUE,j,j,NA,NA,NA,NA,6,"14,7,6,8,1,3,4,5,13,9,12,2,10,11,15"
14225,commdev-image-keyboard-response,386,1126935,learnblock1,1042.5999999940395,img/planet13_left.png,13,Community 2,NA,TRUE,f,f,NA,NA,NA,NA,6,"14,7,6,8,1,3,4,5,13,9,12,2,10,11,15"
14225,commdev-image-keyboard-response,387,1128188,learnblock1,930.5999999940395,img/planet9_left.png,9,Community 2,NA,FALSE,j,f,NA,NA,NA,NA,6,"14,7,6,8,1,3,4,5,13,9,12,2,10,11,15"
14225,commdev-image-keyboard-response,388,1129441,learnblock1,null,img/planet13_right.png,13,Community 2,NA,FALSE,null,j,NA,NA,NA,NA,6,"14,7,6,8,1,3,4,5,13,9,12,2,10,11,15"
14225,commdev-image-keyboard-response,389,1130694,learnblock1,709.6000000089407,img/planet9_left.png,9,Community 2,NA,TRUE,f,f,NA,NA,NA,NA,6,"14,7,6,8,1,3,4,5,13,9,12,2,10,11,15"
14225,commdev-image-keyboard-response,390,1131947,learnblock1,969.7999999970198,img/planet4_left.png,4,Community 2,NA,TRUE,f,f,NA,NA,NA,NA,6,"14,7,6,8,1,3,4,5,13,9,12,2,10,11,15"
14225,commdev-image-keyboard-response,391,1133199,learnblock1,1071.7999999970198,img/planet3_right.png,3,Community 2,NA,TRUE,j,j,NA,NA,NA,NA,6,"14,7,6,8,1,3,4,5,13,9,12,2,10,11,15"
14225,commdev-image-keyboard-response,392,1134452,learnblock1,null,img/planet8_right.png,8,Community 1,NA,FALSE,null,j,NA,NA,NA,NA,6,"14,7,6,8,1,3,4,5,13,9,12,2,10,11,15"
14225,commdev-image-keyboard-response,393,1135705,learnblock1,null,img/planet6_right.png,6,Community 1,NA,FALSE,null,j,NA,NA,NA,NA,6,"14,7,6,8,1,3,4,5,13,9,12,2,10,11,15"
14225,commdev-image-keyboard-response,394,1136959,learnblock1,101.29999999701977,img/planet14_left.png,14,Community 1,NA,FALSE,j,f,NA,NA,NA,NA,6,"14,7,6,8,1,3,4,5,13,9,12,2,10,11,15"
14225,commdev-image-keyboard-response,395,1138212,learnblock1,1189.300000011921,img/planet8_left.png,8,Community 1,NA,TRUE,f,f,NA,NA,NA,NA,6,"14,7,6,8,1,3,4,5,13,9,12,2,10,11,15"
14225,commdev-image-keyboard-response,396,1139465,learnblock1,1073.8999999910593,img/planet7_left.png,7,Community 1,NA,TRUE,f,f,NA,NA,NA,NA,6,"14,7,6,8,1,3,4,5,13,9,12,2,10,11,15"
14225,commdev-image-keyboard-response,397,1140718,learnblock1,null,img/planet8_left.png,8,Community 1,NA,FALSE,null,f,NA,NA,NA,NA,6,"14,7,6,8,1,3,4,5,13,9,12,2,10,11,15"
14225,commdev-image-keyboard-response,398,1141971,learnblock1,461.90000000596046,img/planet6_left.png,6,Community 1,NA,FALSE,j,f,NA,NA,NA,NA,6,"14,7,6,8,1,3,4,5,13,9,12,2,10,11,15"
14225,commdev-image-keyboard-response,399,1143224,learnblock1,859.3000000119209,img/planet14_left.png,14,Community 1,NA,TRUE,f,f,NA,NA,NA,NA,6,"14,7,6,8,1,3,4,5,13,9,12,2,10,11,15"
14225,commdev-image-keyboard-response,400,1144477,learnblock1,1087.4000000059605,img/planet1_left.png,1,Community 1,NA,TRUE,f,f,NA,NA,NA,NA,6,"14,7,6,8,1,3,4,5,13,9,12,2,10,11,15"
14225,commdev-image-keyboard-response,401,1145729,learnblock1,1064.7000000029802,img/planet6_left.png,6,Community 1,NA,TRUE,f,f,NA,NA,NA,NA,6,"14,7,6,8,1,3,4,5,13,9,12,2,10,11,15"
14225,commdev-image-keyboard-response,402,1146982,learnblock1,1061.9000000059605,img/planet14_left.png,14,Community 1,NA,TRUE,f,f,NA,NA,NA,NA,6,"14,7,6,8,1,3,4,5,13,9,12,2,10,11,15"
14225,commdev-image-keyboard-response,403,1148235,learnblock1,1127.0999999940395,img/planet8_right.png,8,Community 1,NA,TRUE,j,j,NA,NA,NA,NA,6,"14,7,6,8,1,3,4,5,13,9,12,2,10,11,15"
14225,commdev-image-keyboard-response,404,1149488,learnblock1,1197.7000000029802,img/planet6_right.png,6,Community 1,NA,TRUE,j,j,NA,NA,NA,NA,6,"14,7,6,8,1,3,4,5,13,9,12,2,10,11,15"
14225,commdev-image-keyboard-response,405,1150742,learnblock1,null,img/planet8_right.png,8,Community 1,NA,FALSE,null,j,NA,NA,NA,NA,6,"14,7,6,8,1,3,4,5,13,9,12,2,10,11,15"
14225,commdev-image-keyboard-response,406,1151995,learnblock1,102.40000000596046,img/planet14_right.png,14,Community 1,NA,FALSE,f,j,NA,NA,NA,NA,6,"14,7,6,8,1,3,4,5,13,9,12,2,10,11,15"
14225,commdev-image-keyboard-response,407,1153249,learnblock1,6,img/planet7_left.png,7,Community 1,NA,FALSE,j,f,NA,NA,NA,NA,6,"14,7,6,8,1,3,4,5,13,9,12,2,10,11,15"
14225,commdev-image-keyboard-response,408,1154502,learnblock1,null,img/planet6_left.png,6,Community 1,NA,FALSE,null,f,NA,NA,NA,NA,6,"14,7,6,8,1,3,4,5,13,9,12,2,10,11,15"
14225,commdev-image-keyboard-response,409,1155755,learnblock1,982.1000000089407,img/planet14_right.png,14,Community 1,NA,TRUE,j,j,NA,NA,NA,NA,6,"14,7,6,8,1,3,4,5,13,9,12,2,10,11,15"
14225,commdev-image-keyboard-response,410,1157008,learnblock1,965.5,img/planet8_left.png,8,Community 1,NA,TRUE,f,f,NA,NA,NA,NA,6,"14,7,6,8,1,3,4,5,13,9,12,2,10,11,15"
14225,commdev-image-keyboard-response,411,1158260,learnblock1,1017.7999999970198,img/planet7_left.png,7,Community 1,NA,TRUE,f,f,NA,NA,NA,NA,6,"14,7,6,8,1,3,4,5,13,9,12,2,10,11,15"
14225,commdev-image-keyboard-response,412,1159513,learnblock1,null,img/planet14_left.png,14,Community 1,NA,FALSE,null,f,NA,NA,NA,NA,6,"14,7,6,8,1,3,4,5,13,9,12,2,10,11,15"
14225,commdev-image-keyboard-response,413,1160766,learnblock1,83.79999999701977,img/planet7_left.png,7,Community 1,NA,TRUE,f,f,NA,NA,NA,NA,6,"14,7,6,8,1,3,4,5,13,9,12,2,10,11,15"
14225,commdev-image-keyboard-response,414,1162018,learnblock1,723.4000000059605,img/planet6_right.png,6,Community 1,NA,TRUE,j,j,NA,NA,NA,NA,6,"14,7,6,8,1,3,4,5,13,9,12,2,10,11,15"
14225,commdev-image-keyboard-response,415,1163271,learnblock1,1223.7999999970198,img/planet14_left.png,14,Community 1,NA,TRUE,f,f,NA,NA,NA,NA,6,"14,7,6,8,1,3,4,5,13,9,12,2,10,11,15"
14225,commdev-image-keyboard-response,416,1164523,learnblock1,1019,img/planet1_right.png,1,Community 1,NA,TRUE,j,j,NA,NA,NA,NA,6,"14,7,6,8,1,3,4,5,13,9,12,2,10,11,15"
14225,commdev-image-keyboard-response,417,1165777,learnblock1,null,img/planet14_right.png,14,Community 1,NA,FALSE,null,j,NA,NA,NA,NA,6,"14,7,6,8,1,3,4,5,13,9,12,2,10,11,15"
14225,commdev-image-keyboard-response,418,1167031,learnblock1,82.3999999910593,img/planet1_right.png,1,Community 1,NA,TRUE,j,j,NA,NA,NA,NA,6,"14,7,6,8,1,3,4,5,13,9,12,2,10,11,15"
14225,commdev-image-keyboard-response,419,1168283,learnblock1,961.0999999940395,img/planet7_left.png,7,Community 1,NA,TRUE,f,f,NA,NA,NA,NA,6,"14,7,6,8,1,3,4,5,13,9,12,2,10,11,15"
14225,commdev-image-keyboard-response,420,1169536,learnblock1,766.6000000089407,img/planet8_right.png,8,Community 1,NA,TRUE,j,j,NA,NA,NA,NA,6,"14,7,6,8,1,3,4,5,13,9,12,2,10,11,15"
14225,commdev-image-keyboard-response,421,1170790,learnblock1,1182.5999999940395,img/planet14_right.png,14,Community 1,NA,TRUE,j,j,NA,NA,NA,NA,6,"14,7,6,8,1,3,4,5,13,9,12,2,10,11,15"
14225,commdev-image-keyboard-response,422,1172043,learnblock1,1135.800000011921,img/planet8_right.png,8,Community 1,NA,TRUE,j,j,NA,NA,NA,NA,6,"14,7,6,8,1,3,4,5,13,9,12,2,10,11,15"
14225,commdev-image-keyboard-response,423,1173295,learnblock1,null,img/planet7_right.png,7,Community 1,NA,FALSE,null,j,NA,NA,NA,NA,6,"14,7,6,8,1,3,4,5,13,9,12,2,10,11,15"
14225,commdev-image-keyboard-response,424,1174549,learnblock1,127.8999999910593,img/planet14_right.png,14,Community 1,NA,TRUE,j,j,NA,NA,NA,NA,6,"14,7,6,8,1,3,4,5,13,9,12,2,10,11,15"
14225,commdev-image-keyboard-response,425,1175801,learnblock1,27.799999997019768,img/planet7_right.png,7,Community 1,NA,TRUE,j,j,NA,NA,NA,NA,6,"14,7,6,8,1,3,4,5,13,9,12,2,10,11,15"
14225,commdev-image-keyboard-response,426,1177055,learnblock1,941.2000000029802,img/planet1_left.png,1,Community 1,NA,FALSE,j,f,NA,NA,NA,NA,6,"14,7,6,8,1,3,4,5,13,9,12,2,10,11,15"
14225,commdev-image-keyboard-response,427,1178307,learnblock1,368.79999999701977,img/planet12_left.png,12,Community 3,NA,FALSE,j,f,NA,NA,NA,NA,6,"14,7,6,8,1,3,4,5,13,9,12,2,10,11,15"
14225,commdev-image-keyboard-response,428,1179560,learnblock1,1157.9000000059605,img/planet1_right.png,1,Community 1,NA,TRUE,j,j,NA,NA,NA,NA,6,"14,7,6,8,1,3,4,5,13,9,12,2,10,11,15"
14225,commdev-image-keyboard-response,429,1180813,learnblock1,588.5999999940395,img/planet12_right.png,12,Community 3,NA,FALSE,f,j,NA,NA,NA,NA,6,"14,7,6,8,1,3,4,5,13,9,12,2,10,11,15"
14225,commdev-image-keyboard-response,430,1182066,learnblock1,399.09999999403954,img/planet15_right.png,15,Community 3,NA,TRUE,j,j,NA,NA,NA,NA,6,"14,7,6,8,1,3,4,5,13,9,12,2,10,11,15"
14225,commdev-image-keyboard-response,431,1183319,learnblock1,165.70000000298023,img/planet12_left.png,12,Community 3,NA,TRUE,f,f,NA,NA,NA,NA,6,"14,7,6,8,1,3,4,5,13,9,12,2,10,11,15"
14225,commdev-image-keyboard-response,432,1184573,learnblock1,329.79999999701977,img/planet15_left.png,15,Community 3,NA,FALSE,j,f,NA,NA,NA,NA,6,"14,7,6,8,1,3,4,5,13,9,12,2,10,11,15"
14225,commdev-image-keyboard-response,433,1185826,learnblock1,533.0999999940395,img/planet10_left.png,10,Community 3,NA,TRUE,f,f,NA,NA,NA,NA,6,"14,7,6,8,1,3,4,5,13,9,12,2,10,11,15"
14225,commdev-image-keyboard-response,434,1187079,learnblock1,927.8999999910593,img/planet2_left.png,2,Community 3,NA,TRUE,f,f,NA,NA,NA,NA,6,"14,7,6,8,1,3,4,5,13,9,12,2,10,11,15"
14225,commdev-image-keyboard-response,435,1188332,learnblock1,971.0999999940395,img/planet5_right.png,5,Community 2,NA,TRUE,j,j,NA,NA,NA,NA,6,"14,7,6,8,1,3,4,5,13,9,12,2,10,11,15"
14225,commdev-image-keyboard-response,436,1189585,learnblock1,null,img/planet9_right.png,9,Community 2,NA,FALSE,null,j,NA,NA,NA,NA,6,"14,7,6,8,1,3,4,5,13,9,12,2,10,11,15"
14225,commdev-image-keyboard-response,437,1190839,learnblock1,134.8999999910593,img/planet13_left.png,13,Community 2,NA,FALSE,j,f,NA,NA,NA,NA,6,"14,7,6,8,1,3,4,5,13,9,12,2,10,11,15"
14225,commdev-image-keyboard-response,438,1192091,learnblock1,null,img/planet3_left.png,3,Community 2,NA,FALSE,null,f,NA,NA,NA,NA,6,"14,7,6,8,1,3,4,5,13,9,12,2,10,11,15"
14225,commdev-image-keyboard-response,439,1193345,learnblock1,208.3999999910593,img/planet4_right.png,4,Community 2,NA,FALSE,f,j,NA,NA,NA,NA,6,"14,7,6,8,1,3,4,5,13,9,12,2,10,11,15"
14225,commdev-image-keyboard-response,440,1194598,learnblock1,984.5,img/planet5_left.png,5,Community 2,NA,TRUE,f,f,NA,NA,NA,NA,6,"14,7,6,8,1,3,4,5,13,9,12,2,10,11,15"
14225,commdev-image-keyboard-response,441,1195851,learnblock1,1014.4000000059605,img/planet4_left.png,4,Community 2,NA,FALSE,j,f,NA,NA,NA,NA,6,"14,7,6,8,1,3,4,5,13,9,12,2,10,11,15"
14225,commdev-image-keyboard-response,442,1197104,learnblock1,930.5,img/planet3_left.png,3,Community 2,NA,TRUE,f,f,NA,NA,NA,NA,6,"14,7,6,8,1,3,4,5,13,9,12,2,10,11,15"
14225,commdev-image-keyboard-response,443,1198356,learnblock1,null,img/planet13_left.png,13,Community 2,NA,FALSE,null,f,NA,NA,NA,NA,6,"14,7,6,8,1,3,4,5,13,9,12,2,10,11,15"
14225,commdev-image-keyboard-response,444,1199610,learnblock1,133,img/planet4_left.png,4,Community 2,NA,TRUE,f,f,NA,NA,NA,NA,6,"14,7,6,8,1,3,4,5,13,9,12,2,10,11,15"
14225,commdev-image-keyboard-response,445,1200863,learnblock1,924,img/planet13_right.png,13,Community 2,NA,TRUE,j,j,NA,NA,NA,NA,6,"14,7,6,8,1,3,4,5,13,9,12,2,10,11,15"
14225,commdev-image-keyboard-response,446,1202116,learnblock1,731,img/planet5_left.png,5,Community 2,NA,TRUE,f,f,NA,NA,NA,NA,6,"14,7,6,8,1,3,4,5,13,9,12,2,10,11,15"
14225,commdev-image-keyboard-response,447,1203369,learnblock1,988.4000000059605,img/planet4_left.png,4,Community 2,NA,TRUE,f,f,NA,NA,NA,NA,6,"14,7,6,8,1,3,4,5,13,9,12,2,10,11,15"
14225,commdev-image-keyboard-response,448,1204622,learnblock1,850.7000000029802,img/planet5_right.png,5,Community 2,NA,TRUE,j,j,NA,NA,NA,NA,6,"14,7,6,8,1,3,4,5,13,9,12,2,10,11,15"
14225,commdev-image-keyboard-response,449,1205875,learnblock1,818.2000000029802,img/planet2_right.png,2,Community 3,NA,FALSE,f,j,NA,NA,NA,NA,6,"14,7,6,8,1,3,4,5,13,9,12,2,10,11,15"
14225,commdev-image-keyboard-response,450,1207128,learnblock1,978,img/planet10_right.png,10,Community 3,NA,FALSE,f,j,NA,NA,NA,NA,6,"14,7,6,8,1,3,4,5,13,9,12,2,10,11,15"
14225,commdev-image-keyboard-response,451,1208380,learnblock1,853.2000000029802,img/planet15_right.png,15,Community 3,NA,TRUE,j,j,NA,NA,NA,NA,6,"14,7,6,8,1,3,4,5,13,9,12,2,10,11,15"
14225,commdev-image-keyboard-response,452,1209633,learnblock1,1081.199999988079,img/planet12_right.png,12,Community 3,NA,TRUE,j,j,NA,NA,NA,NA,6,"14,7,6,8,1,3,4,5,13,9,12,2,10,11,15"
14225,commdev-image-keyboard-response,453,1210887,learnblock1,925.8999999910593,img/planet11_left.png,11,Community 3,NA,TRUE,f,f,NA,NA,NA,NA,6,"14,7,6,8,1,3,4,5,13,9,12,2,10,11,15"
14225,commdev-image-keyboard-response,454,1212140,learnblock1,674.2000000029802,img/planet10_right.png,10,Community 3,NA,TRUE,j,j,NA,NA,NA,NA,6,"14,7,6,8,1,3,4,5,13,9,12,2,10,11,15"
14225,commdev-image-keyboard-response,455,1213392,learnblock1,243.79999999701977,img/planet11_right.png,11,Community 3,NA,TRUE,j,j,NA,NA,NA,NA,6,"14,7,6,8,1,3,4,5,13,9,12,2,10,11,15"
14225,commdev-image-keyboard-response,456,1214645,learnblock1,1080.2000000029802,img/planet2_left.png,2,Community 3,NA,TRUE,f,f,NA,NA,NA,NA,6,"14,7,6,8,1,3,4,5,13,9,12,2,10,11,15"
14225,commdev-image-keyboard-response,457,1215898,learnblock1,null,img/planet11_left.png,11,Community 3,NA,FALSE,null,f,NA,NA,NA,NA,6,"14,7,6,8,1,3,4,5,13,9,12,2,10,11,15"
14225,commdev-image-keyboard-response,458,1217151,learnblock1,168.8999999910593,img/planet12_right.png,12,Community 3,NA,FALSE,f,j,NA,NA,NA,NA,6,"14,7,6,8,1,3,4,5,13,9,12,2,10,11,15"
14225,commdev-image-keyboard-response,459,1218403,learnblock1,922.5,img/planet1_right.png,1,Community 1,NA,TRUE,j,j,NA,NA,NA,NA,6,"14,7,6,8,1,3,4,5,13,9,12,2,10,11,15"
14225,commdev-image-keyboard-response,460,1219657,learnblock1,1235.699999988079,img/planet7_right.png,7,Community 1,NA,TRUE,j,j,NA,NA,NA,NA,6,"14,7,6,8,1,3,4,5,13,9,12,2,10,11,15"
14225,commdev-image-keyboard-response,461,1220910,learnblock1,null,img/planet1_right.png,1,Community 1,NA,FALSE,null,j,NA,NA,NA,NA,6,"14,7,6,8,1,3,4,5,13,9,12,2,10,11,15"
14225,commdev-image-keyboard-response,462,1222163,learnblock1,798.6999999880791,img/planet6_left.png,6,Community 1,NA,TRUE,f,f,NA,NA,NA,NA,6,"14,7,6,8,1,3,4,5,13,9,12,2,10,11,15"
14225,commdev-image-keyboard-response,463,1223416,learnblock1,865.2999999970198,img/planet7_right.png,7,Community 1,NA,TRUE,j,j,NA,NA,NA,NA,6,"14,7,6,8,1,3,4,5,13,9,12,2,10,11,15"
14225,commdev-image-keyboard-response,464,1224669,learnblock1,null,img/planet6_right.png,6,Community 1,NA,FALSE,null,j,NA,NA,NA,NA,6,"14,7,6,8,1,3,4,5,13,9,12,2,10,11,15"
14225,commdev-image-keyboard-response,465,1225922,learnblock1,12.199999988079071,img/planet8_left.png,8,Community 1,NA,FALSE,j,f,NA,NA,NA,NA,6,"14,7,6,8,1,3,4,5,13,9,12,2,10,11,15"
14225,commdev-image-keyboard-response,466,1227175,learnblock1,870.9000000059605,img/planet7_left.png,7,Community 1,NA,FALSE,j,f,NA,NA,NA,NA,6,"14,7,6,8,1,3,4,5,13,9,12,2,10,11,15"
14225,commdev-image-keyboard-response,467,1228429,learnblock1,137.80000001192093,img/planet6_left.png,6,Community 1,NA,TRUE,f,f,NA,NA,NA,NA,6,"14,7,6,8,1,3,4,5,13,9,12,2,10,11,15"
14225,commdev-image-keyboard-response,471,1264724,learnblock2,998.0999999940395,img/planet5_right.png,5,Community 2,NA,TRUE,j,j,NA,NA,NA,NA,6,"14,7,6,8,1,3,4,5,13,9,12,2,10,11,15"
14225,commdev-image-keyboard-response,472,1265976,learnblock2,798.5,img/planet4_left.png,4,Community 2,NA,TRUE,f,f,NA,NA,NA,NA,6,"14,7,6,8,1,3,4,5,13,9,12,2,10,11,15"
14225,commdev-image-keyboard-response,473,1267229,learnblock2,554.4000000059605,img/planet5_left.png,5,Community 2,NA,FALSE,j,f,NA,NA,NA,NA,6,"14,7,6,8,1,3,4,5,13,9,12,2,10,11,15"
14225,commdev-image-keyboard-response,474,1268482,learnblock2,961.0999999940395,img/planet13_left.png,13,Community 2,NA,TRUE,f,f,NA,NA,NA,NA,6,"14,7,6,8,1,3,4,5,13,9,12,2,10,11,15"
14225,commdev-image-keyboard-response,475,1269735,learnblock2,826.9000000059605,img/planet9_left.png,9,Community 2,NA,TRUE,f,f,NA,NA,NA,NA,6,"14,7,6,8,1,3,4,5,13,9,12,2,10,11,15"
14225,commdev-image-keyboard-response,476,1270988,learnblock2,716.3000000119209,img/planet5_right.png,5,Community 2,NA,TRUE,j,j,NA,NA,NA,NA,6,"14,7,6,8,1,3,4,5,13,9,12,2,10,11,15"
14225,commdev-image-keyboard-response,477,1272240,learnblock2,542,img/planet9_left.png,9,Community 2,NA,TRUE,f,f,NA,NA,NA,NA,6,"14,7,6,8,1,3,4,5,13,9,12,2,10,11,15"
14225,commdev-image-keyboard-response,478,1273494,learnblock2,790.9000000059605,img/planet5_left.png,5,Community 2,NA,TRUE,f,f,NA,NA,NA,NA,6,"14,7,6,8,1,3,4,5,13,9,12,2,10,11,15"
14225,commdev-image-keyboard-response,479,1274747,learnblock2,null,img/planet4_left.png,4,Community 2,NA,FALSE,null,f,NA,NA,NA,NA,6,"14,7,6,8,1,3,4,5,13,9,12,2,10,11,15"
14225,commdev-image-keyboard-response,480,1276000,learnblock2,322.09999999403954,img/planet3_right.png,3,Community 2,NA,FALSE,f,j,NA,NA,NA,NA,6,"14,7,6,8,1,3,4,5,13,9,12,2,10,11,15"
14225,commdev-image-keyboard-response,481,1277253,learnblock2,117,img/planet13_left.png,13,Community 2,NA,FALSE,j,f,NA,NA,NA,NA,6,"14,7,6,8,1,3,4,5,13,9,12,2,10,11,15"
14225,commdev-image-keyboard-response,482,1278506,learnblock2,1007.5999999940395,img/planet3_left.png,3,Community 2,NA,TRUE,f,f,NA,NA,NA,NA,6,"14,7,6,8,1,3,4,5,13,9,12,2,10,11,15"
14225,commdev-image-keyboard-response,483,1279757,learnblock2,1118.5999999940395,img/planet8_right.png,8,Community 1,NA,TRUE,j,j,NA,NA,NA,NA,6,"14,7,6,8,1,3,4,5,13,9,12,2,10,11,15"
14225,commdev-image-keyboard-response,484,1281010,learnblock2,1107,img/planet7_left.png,7,Community 1,NA,TRUE,f,f,NA,NA,NA,NA,6,"14,7,6,8,1,3,4,5,13,9,12,2,10,11,15"
14225,commdev-image-keyboard-response,485,1282263,learnblock2,1182.2000000029802,img/planet1_left.png,1,Community 1,NA,FALSE,j,f,NA,NA,NA,NA,6,"14,7,6,8,1,3,4,5,13,9,12,2,10,11,15"
14225,commdev-image-keyboard-response,486,1283516,learnblock2,null,img/planet14_left.png,14,Community 1,NA,FALSE,null,f,NA,NA,NA,NA,6,"14,7,6,8,1,3,4,5,13,9,12,2,10,11,15"
14225,commdev-image-keyboard-response,487,1284769,learnblock2,1018.9000000059605,img/planet8_right.png,8,Community 1,NA,TRUE,j,j,NA,NA,NA,NA,6,"14,7,6,8,1,3,4,5,13,9,12,2,10,11,15"
14225,commdev-image-keyboard-response,488,1286022,learnblock2,null,img/planet7_left.png,7,Community 1,NA,FALSE,null,f,NA,NA,NA,NA,6,"14,7,6,8,1,3,4,5,13,9,12,2,10,11,15"
14225,commdev-image-keyboard-response,489,1287275,learnblock2,null,img/planet6_left.png,6,Community 1,NA,FALSE,null,f,NA,NA,NA,NA,6,"14,7,6,8,1,3,4,5,13,9,12,2,10,11,15"
14225,commdev-image-keyboard-response,490,1288528,learnblock2,null,img/planet8_left.png,8,Community 1,NA,FALSE,null,f,NA,NA,NA,NA,6,"14,7,6,8,1,3,4,5,13,9,12,2,10,11,15"
14225,commdev-image-keyboard-response,491,1289781,learnblock2,933.2000000029802,img/planet7_right.png,7,Community 1,NA,TRUE,j,j,NA,NA,NA,NA,6,"14,7,6,8,1,3,4,5,13,9,12,2,10,11,15"
14225,commdev-image-keyboard-response,492,1291034,learnblock2,946.0999999940395,img/planet14_right.png,14,Community 1,NA,TRUE,j,j,NA,NA,NA,NA,6,"14,7,6,8,1,3,4,5,13,9,12,2,10,11,15"
14225,commdev-image-keyboard-response,493,1292287,learnblock2,null,img/planet7_left.png,7,Community 1,NA,FALSE,null,f,NA,NA,NA,NA,6,"14,7,6,8,1,3,4,5,13,9,12,2,10,11,15"
14225,commdev-image-keyboard-response,494,1293540,learnblock2,131,img/planet14_right.png,14,Community 1,NA,TRUE,j,j,NA,NA,NA,NA,6,"14,7,6,8,1,3,4,5,13,9,12,2,10,11,15"
14225,commdev-image-keyboard-response,495,1294793,learnblock2,799.5,img/planet7_left.png,7,Community 1,NA,TRUE,f,f,NA,NA,NA,NA,6,"14,7,6,8,1,3,4,5,13,9,12,2,10,11,15"
14225,commdev-image-keyboard-response,496,1296045,learnblock2,null,img/planet1_left.png,1,Community 1,NA,FALSE,null,f,NA,NA,NA,NA,6,"14,7,6,8,1,3,4,5,13,9,12,2,10,11,15"
14225,commdev-image-keyboard-response,497,1297297,learnblock2,30.900000005960464,img/planet6_right.png,6,Community 1,NA,FALSE,f,j,NA,NA,NA,NA,6,"14,7,6,8,1,3,4,5,13,9,12,2,10,11,15"
14225,commdev-image-keyboard-response,498,1298550,learnblock2,null,img/planet14_right.png,14,Community 1,NA,FALSE,null,j,NA,NA,NA,NA,6,"14,7,6,8,1,3,4,5,13,9,12,2,10,11,15"
14225,commdev-image-keyboard-response,499,1299803,learnblock2,225.20000000298023,img/planet6_left.png,6,Community 1,NA,FALSE,j,f,NA,NA,NA,NA,6,"14,7,6,8,1,3,4,5,13,9,12,2,10,11,15"
14225,commdev-image-keyboard-response,500,1301056,learnblock2,240.5,img/planet14_right.png,14,Community 1,NA,FALSE,f,j,NA,NA,NA,NA,6,"14,7,6,8,1,3,4,5,13,9,12,2,10,11,15"
14225,commdev-image-keyboard-response,501,1302310,learnblock2,738.2000000029802,img/planet7_right.png,7,Community 1,NA,TRUE,j,j,NA,NA,NA,NA,6,"14,7,6,8,1,3,4,5,13,9,12,2,10,11,15"
14225,commdev-image-keyboard-response,502,1303563,learnblock2,null,img/planet1_left.png,1,Community 1,NA,FALSE,null,f,NA,NA,NA,NA,6,"14,7,6,8,1,3,4,5,13,9,12,2,10,11,15"
14225,commdev-image-keyboard-response,503,1304816,learnblock2,1221.300000011921,img/planet7_left.png,7,Community 1,NA,FALSE,j,f,NA,NA,NA,NA,6,"14,7,6,8,1,3,4,5,13,9,12,2,10,11,15"
14225,commdev-image-keyboard-response,504,1306068,learnblock2,null,img/planet14_right.png,14,Community 1,NA,FALSE,null,j,NA,NA,NA,NA,6,"14,7,6,8,1,3,4,5,13,9,12,2,10,11,15"
14225,commdev-image-keyboard-response,505,1307320,learnblock2,null,img/planet1_right.png,1,Community 1,NA,FALSE,null,j,NA,NA,NA,NA,6,"14,7,6,8,1,3,4,5,13,9,12,2,10,11,15"
14225,commdev-image-keyboard-response,506,1308574,learnblock2,237.59999999403954,img/planet12_left.png,12,Community 3,NA,FALSE,j,f,NA,NA,NA,NA,6,"14,7,6,8,1,3,4,5,13,9,12,2,10,11,15"
14225,commdev-image-keyboard-response,507,1309827,learnblock2,null,img/planet11_right.png,11,Community 3,NA,FALSE,null,j,NA,NA,NA,NA,6,"14,7,6,8,1,3,4,5,13,9,12,2,10,11,15"
14225,commdev-image-keyboard-response,508,1311079,learnblock2,492.5,img/planet12_right.png,12,Community 3,NA,TRUE,j,j,NA,NA,NA,NA,6,"14,7,6,8,1,3,4,5,13,9,12,2,10,11,15"
14225,commdev-image-keyboard-response,509,1312332,learnblock2,null,img/planet11_right.png,11,Community 3,NA,FALSE,null,j,NA,NA,NA,NA,6,"14,7,6,8,1,3,4,5,13,9,12,2,10,11,15"
14225,commdev-image-keyboard-response,510,1313584,learnblock2,178.90000000596046,img/planet10_left.png,10,Community 3,NA,TRUE,f,f,NA,NA,NA,NA,6,"14,7,6,8,1,3,4,5,13,9,12,2,10,11,15"
14225,commdev-image-keyboard-response,511,1314838,learnblock2,1006.2999999970198,img/planet12_left.png,12,Community 3,NA,TRUE,f,f,NA,NA,NA,NA,6,"14,7,6,8,1,3,4,5,13,9,12,2,10,11,15"
14225,commdev-image-keyboard-response,512,1316091,learnblock2,1078.7000000029802,img/planet15_left.png,15,Community 3,NA,FALSE,j,f,NA,NA,NA,NA,6,"14,7,6,8,1,3,4,5,13,9,12,2,10,11,15"
14225,commdev-image-keyboard-response,513,1317344,learnblock2,null,img/planet11_right.png,11,Community 3,NA,FALSE,null,j,NA,NA,NA,NA,6,"14,7,6,8,1,3,4,5,13,9,12,2,10,11,15"
14225,commdev-image-keyboard-response,514,1318597,learnblock2,971.9000000059605,img/planet15_right.png,15,Community 3,NA,TRUE,j,j,NA,NA,NA,NA,6,"14,7,6,8,1,3,4,5,13,9,12,2,10,11,15"
14225,commdev-image-keyboard-response,515,1319850,learnblock2,737.2999999970198,img/planet11_left.png,11,Community 3,NA,TRUE,f,f,NA,NA,NA,NA,6,"14,7,6,8,1,3,4,5,13,9,12,2,10,11,15"
14225,commdev-image-keyboard-response,516,1321104,learnblock2,611.7000000029802,img/planet15_left.png,15,Community 3,NA,FALSE,j,f,NA,NA,NA,NA,6,"14,7,6,8,1,3,4,5,13,9,12,2,10,11,15"
14225,commdev-image-keyboard-response,517,1322356,learnblock2,null,img/planet12_right.png,12,Community 3,NA,FALSE,null,j,NA,NA,NA,NA,6,"14,7,6,8,1,3,4,5,13,9,12,2,10,11,15"
14225,commdev-image-keyboard-response,518,1323609,learnblock2,165.1000000089407,img/planet10_left.png,10,Community 3,NA,FALSE,j,f,NA,NA,NA,NA,6,"14,7,6,8,1,3,4,5,13,9,12,2,10,11,15"
14225,commdev-image-keyboard-response,519,1324862,learnblock2,1055.300000011921,img/planet2_left.png,2,Community 3,NA,TRUE,f,f,NA,NA,NA,NA,6,"14,7,6,8,1,3,4,5,13,9,12,2,10,11,15"
14225,commdev-image-keyboard-response,520,1326115,learnblock2,1235.3999999910593,img/planet11_left.png,11,Community 3,NA,TRUE,f,f,NA,NA,NA,NA,6,"14,7,6,8,1,3,4,5,13,9,12,2,10,11,15"
14225,commdev-image-keyboard-response,521,1327368,learnblock2,788.5,img/planet15_right.png,15,Community 3,NA,FALSE,f,j,NA,NA,NA,NA,6,"14,7,6,8,1,3,4,5,13,9,12,2,10,11,15"
14225,commdev-image-keyboard-response,522,1328621,learnblock2,291.79999999701977,img/planet10_right.png,10,Community 3,NA,TRUE,j,j,NA,NA,NA,NA,6,"14,7,6,8,1,3,4,5,13,9,12,2,10,11,15"
14225,commdev-image-keyboard-response,523,1329874,learnblock2,606.5,img/planet12_right.png,12,Community 3,NA,TRUE,j,j,NA,NA,NA,NA,6,"14,7,6,8,1,3,4,5,13,9,12,2,10,11,15"
14225,commdev-image-keyboard-response,524,1331126,learnblock2,null,img/planet11_right.png,11,Community 3,NA,FALSE,null,j,NA,NA,NA,NA,6,"14,7,6,8,1,3,4,5,13,9,12,2,10,11,15"
14225,commdev-image-keyboard-response,525,1332379,learnblock2,2,img/planet15_right.png,15,Community 3,NA,TRUE,j,j,NA,NA,NA,NA,6,"14,7,6,8,1,3,4,5,13,9,12,2,10,11,15"
14225,commdev-image-keyboard-response,526,1333632,learnblock2,1044.9000000059605,img/planet2_left.png,2,Community 3,NA,TRUE,f,f,NA,NA,NA,NA,6,"14,7,6,8,1,3,4,5,13,9,12,2,10,11,15"
14225,commdev-image-keyboard-response,527,1334885,learnblock2,null,img/planet5_right.png,5,Community 2,NA,FALSE,null,j,NA,NA,NA,NA,6,"14,7,6,8,1,3,4,5,13,9,12,2,10,11,15"
14225,commdev-image-keyboard-response,528,1336138,learnblock2,270,img/planet2_left.png,2,Community 3,NA,FALSE,j,f,NA,NA,NA,NA,6,"14,7,6,8,1,3,4,5,13,9,12,2,10,11,15"
14225,commdev-image-keyboard-response,529,1337392,learnblock2,1185.7000000029802,img/planet5_left.png,5,Community 2,NA,TRUE,f,f,NA,NA,NA,NA,6,"14,7,6,8,1,3,4,5,13,9,12,2,10,11,15"
14225,commdev-image-keyboard-response,530,1338644,learnblock2,1118.2000000029802,img/planet13_left.png,13,Community 2,NA,TRUE,f,f,NA,NA,NA,NA,6,"14,7,6,8,1,3,4,5,13,9,12,2,10,11,15"
14225,commdev-image-keyboard-response,531,1339898,learnblock2,977.7999999970198,img/planet9_right.png,9,Community 2,NA,TRUE,j,j,NA,NA,NA,NA,6,"14,7,6,8,1,3,4,5,13,9,12,2,10,11,15"
14225,commdev-image-keyboard-response,532,1341151,learnblock2,1217.3999999910593,img/planet3_left.png,3,Community 2,NA,TRUE,f,f,NA,NA,NA,NA,6,"14,7,6,8,1,3,4,5,13,9,12,2,10,11,15"
14225,commdev-image-keyboard-response,533,1342404,learnblock2,921.7999999970198,img/planet9_right.png,9,Community 2,NA,FALSE,f,j,NA,NA,NA,NA,6,"14,7,6,8,1,3,4,5,13,9,12,2,10,11,15"
14225,commdev-image-keyboard-response,534,1343657,learnblock2,953.2000000029802,img/planet5_left.png,5,Community 2,NA,FALSE,j,f,NA,NA,NA,NA,6,"14,7,6,8,1,3,4,5,13,9,12,2,10,11,15"
14225,commdev-image-keyboard-response,535,1344910,learnblock2,1085.5999999940395,img/planet4_left.png,4,Community 2,NA,TRUE,f,f,NA,NA,NA,NA,6,"14,7,6,8,1,3,4,5,13,9,12,2,10,11,15"
14225,commdev-image-keyboard-response,536,1346165,learnblock2,1165.7999999970198,img/planet3_right.png,3,Community 2,NA,TRUE,j,j,NA,NA,NA,NA,6,"14,7,6,8,1,3,4,5,13,9,12,2,10,11,15"
14225,commdev-image-keyboard-response,537,1347418,learnblock2,null,img/planet9_right.png,9,Community 2,NA,FALSE,null,j,NA,NA,NA,NA,6,"14,7,6,8,1,3,4,5,13,9,12,2,10,11,15"
14225,commdev-image-keyboard-response,538,1348670,learnblock2,866,img/planet4_right.png,4,Community 2,NA,TRUE,j,j,NA,NA,NA,NA,6,"14,7,6,8,1,3,4,5,13,9,12,2,10,11,15"
14225,commdev-image-keyboard-response,539,1349924,learnblock2,801.9000000059605,img/planet9_left.png,9,Community 2,NA,TRUE,f,f,NA,NA,NA,NA,6,"14,7,6,8,1,3,4,5,13,9,12,2,10,11,15"
14225,commdev-image-keyboard-response,540,1351177,learnblock2,803.3000000119209,img/planet13_right.png,13,Community 2,NA,TRUE,j,j,NA,NA,NA,NA,6,"14,7,6,8,1,3,4,5,13,9,12,2,10,11,15"
14225,commdev-image-keyboard-response,541,1352430,learnblock2,619.4000000059605,img/planet3_left.png,3,Community 2,NA,TRUE,f,f,NA,NA,NA,NA,6,"14,7,6,8,1,3,4,5,13,9,12,2,10,11,15"
14225,commdev-image-keyboard-response,542,1353683,learnblock2,956.7000000029802,img/planet13_right.png,13,Community 2,NA,TRUE,j,j,NA,NA,NA,NA,6,"14,7,6,8,1,3,4,5,13,9,12,2,10,11,15"
14225,commdev-image-keyboard-response,543,1354936,learnblock2,1088.2999999970198,img/planet4_right.png,4,Community 2,NA,TRUE,j,j,NA,NA,NA,NA,6,"14,7,6,8,1,3,4,5,13,9,12,2,10,11,15"
14225,commdev-image-keyboard-response,544,1356189,learnblock2,1050.2000000029802,img/planet9_right.png,9,Community 2,NA,TRUE,j,j,NA,NA,NA,NA,6,"14,7,6,8,1,3,4,5,13,9,12,2,10,11,15"
14225,commdev-image-keyboard-response,545,1357442,learnblock2,null,img/planet3_right.png,3,Community 2,NA,FALSE,null,j,NA,NA,NA,NA,6,"14,7,6,8,1,3,4,5,13,9,12,2,10,11,15"
14225,commdev-image-keyboard-response,546,1358695,learnblock2,54.099999994039536,img/planet4_right.png,4,Community 2,NA,TRUE,j,j,NA,NA,NA,NA,6,"14,7,6,8,1,3,4,5,13,9,12,2,10,11,15"
14225,commdev-image-keyboard-response,547,1359948,learnblock2,869.5,img/planet13_right.png,13,Community 2,NA,TRUE,j,j,NA,NA,NA,NA,6,"14,7,6,8,1,3,4,5,13,9,12,2,10,11,15"
14225,commdev-image-keyboard-response,548,1361202,learnblock2,828.5,img/planet4_left.png,4,Community 2,NA,TRUE,f,f,NA,NA,NA,NA,6,"14,7,6,8,1,3,4,5,13,9,12,2,10,11,15"
14225,commdev-image-keyboard-response,549,1362455,learnblock2,863.6999999880791,img/planet5_right.png,5,Community 2,NA,TRUE,j,j,NA,NA,NA,NA,6,"14,7,6,8,1,3,4,5,13,9,12,2,10,11,15"
14225,commdev-image-keyboard-response,550,1363708,learnblock2,857.7999999970198,img/planet2_left.png,2,Community 3,NA,TRUE,f,f,NA,NA,NA,NA,6,"14,7,6,8,1,3,4,5,13,9,12,2,10,11,15"
14225,commdev-image-keyboard-response,551,1364961,learnblock2,null,img/planet10_right.png,10,Community 3,NA,FALSE,null,j,NA,NA,NA,NA,6,"14,7,6,8,1,3,4,5,13,9,12,2,10,11,15"
14225,commdev-image-keyboard-response,552,1366214,learnblock2,null,img/planet15_right.png,15,Community 3,NA,FALSE,null,j,NA,NA,NA,NA,6,"14,7,6,8,1,3,4,5,13,9,12,2,10,11,15"
14225,commdev-image-keyboard-response,553,1367467,learnblock2,605.7999999970198,img/planet12_right.png,12,Community 3,NA,TRUE,j,j,NA,NA,NA,NA,6,"14,7,6,8,1,3,4,5,13,9,12,2,10,11,15"
14225,commdev-image-keyboard-response,554,1368719,learnblock2,493.40000000596046,img/planet11_right.png,11,Community 3,NA,TRUE,j,j,NA,NA,NA,NA,6,"14,7,6,8,1,3,4,5,13,9,12,2,10,11,15"
14225,commdev-image-keyboard-response,555,1369972,learnblock2,680.1000000089407,img/planet15_left.png,15,Community 3,NA,TRUE,f,f,NA,NA,NA,NA,6,"14,7,6,8,1,3,4,5,13,9,12,2,10,11,15"
14225,commdev-image-keyboard-response,556,1371226,learnblock2,null,img/planet12_left.png,12,Community 3,NA,FALSE,null,f,NA,NA,NA,NA,6,"14,7,6,8,1,3,4,5,13,9,12,2,10,11,15"
14225,commdev-image-keyboard-response,557,1372480,learnblock2,44,img/planet11_left.png,11,Community 3,NA,TRUE,f,f,NA,NA,NA,NA,6,"14,7,6,8,1,3,4,5,13,9,12,2,10,11,15"
14225,commdev-image-keyboard-response,558,1373733,learnblock2,63.900000005960464,img/planet15_left.png,15,Community 3,NA,TRUE,f,f,NA,NA,NA,NA,6,"14,7,6,8,1,3,4,5,13,9,12,2,10,11,15"
14225,commdev-image-keyboard-response,559,1374986,learnblock2,994.4000000059605,img/planet2_right.png,2,Community 3,NA,TRUE,j,j,NA,NA,NA,NA,6,"14,7,6,8,1,3,4,5,13,9,12,2,10,11,15"
14225,commdev-image-keyboard-response,560,1376239,learnblock2,762.1999999880791,img/planet10_right.png,10,Community 3,NA,TRUE,j,j,NA,NA,NA,NA,6,"14,7,6,8,1,3,4,5,13,9,12,2,10,11,15"
14225,commdev-image-keyboard-response,561,1377492,learnblock2,994.8000000119209,img/planet2_left.png,2,Community 3,NA,TRUE,f,f,NA,NA,NA,NA,6,"14,7,6,8,1,3,4,5,13,9,12,2,10,11,15"
14225,commdev-image-keyboard-response,562,1378745,learnblock2,998.5999999940395,img/planet5_left.png,5,Community 2,NA,TRUE,f,f,NA,NA,NA,NA,6,"14,7,6,8,1,3,4,5,13,9,12,2,10,11,15"
14225,commdev-image-keyboard-response,563,1379998,learnblock2,745.7999999970198,img/planet2_left.png,2,Community 3,NA,TRUE,f,f,NA,NA,NA,NA,6,"14,7,6,8,1,3,4,5,13,9,12,2,10,11,15"
14225,commdev-image-keyboard-response,564,1381251,learnblock2,218.20000000298023,img/planet5_left.png,5,Community 2,NA,TRUE,f,f,NA,NA,NA,NA,6,"14,7,6,8,1,3,4,5,13,9,12,2,10,11,15"
14225,commdev-image-keyboard-response,565,1382505,learnblock2,1194.5,img/planet9_right.png,9,Community 2,NA,TRUE,j,j,NA,NA,NA,NA,6,"14,7,6,8,1,3,4,5,13,9,12,2,10,11,15"
14225,commdev-image-keyboard-response,566,1383758,learnblock2,819.5999999940395,img/planet5_left.png,5,Community 2,NA,TRUE,f,f,NA,NA,NA,NA,6,"14,7,6,8,1,3,4,5,13,9,12,2,10,11,15"
14225,commdev-image-keyboard-response,567,1385011,learnblock2,1011.2000000029802,img/planet2_left.png,2,Community 3,NA,TRUE,f,f,NA,NA,NA,NA,6,"14,7,6,8,1,3,4,5,13,9,12,2,10,11,15"
14225,commdev-image-keyboard-response,568,1386264,learnblock2,null,img/planet5_left.png,5,Community 2,NA,FALSE,null,f,NA,NA,NA,NA,6,"14,7,6,8,1,3,4,5,13,9,12,2,10,11,15"
14225,commdev-image-keyboard-response,569,1387516,learnblock2,186.69999998807907,img/planet4_left.png,4,Community 2,NA,TRUE,f,f,NA,NA,NA,NA,6,"14,7,6,8,1,3,4,5,13,9,12,2,10,11,15"
14225,commdev-image-keyboard-response,570,1388769,learnblock2,652.6000000089407,img/planet3_right.png,3,Community 2,NA,TRUE,j,j,NA,NA,NA,NA,6,"14,7,6,8,1,3,4,5,13,9,12,2,10,11,15"
14225,commdev-image-keyboard-response,571,1390021,learnblock2,988,img/planet8_left.png,8,Community 1,NA,TRUE,f,f,NA,NA,NA,NA,6,"14,7,6,8,1,3,4,5,13,9,12,2,10,11,15"
14225,commdev-image-keyboard-response,572,1391275,learnblock2,1176.4000000059605,img/planet7_right.png,7,Community 1,NA,TRUE,j,j,NA,NA,NA,NA,6,"14,7,6,8,1,3,4,5,13,9,12,2,10,11,15"
14225,commdev-image-keyboard-response,573,1392528,learnblock2,1045.2999999970198,img/planet14_left.png,14,Community 1,NA,TRUE,f,f,NA,NA,NA,NA,6,"14,7,6,8,1,3,4,5,13,9,12,2,10,11,15"
14225,commdev-image-keyboard-response,574,1393782,learnblock2,null,img/planet7_right.png,7,Community 1,NA,FALSE,null,j,NA,NA,NA,NA,6,"14,7,6,8,1,3,4,5,13,9,12,2,10,11,15"
14225,commdev-image-keyboard-response,575,1395034,learnblock2,1208.2000000029802,img/planet6_right.png,6,Community 1,NA,TRUE,j,j,NA,NA,NA,NA,6,"14,7,6,8,1,3,4,5,13,9,12,2,10,11,15"
14225,commdev-image-keyboard-response,576,1396287,learnblock2,null,img/planet14_left.png,14,Community 1,NA,FALSE,null,f,NA,NA,NA,NA,6,"14,7,6,8,1,3,4,5,13,9,12,2,10,11,15"
14225,commdev-image-keyboard-response,577,1397540,learnblock2,17.200000002980232,img/planet1_right.png,1,Community 1,NA,FALSE,f,j,NA,NA,NA,NA,6,"14,7,6,8,1,3,4,5,13,9,12,2,10,11,15"
14225,commdev-image-keyboard-response,578,1398794,learnblock2,1234.4000000059605,img/planet14_left.png,14,Community 1,NA,TRUE,f,f,NA,NA,NA,NA,6,"14,7,6,8,1,3,4,5,13,9,12,2,10,11,15"
14225,commdev-image-keyboard-response,579,1400045,learnblock2,1040.5999999940395,img/planet8_left.png,8,Community 1,NA,FALSE,j,f,NA,NA,NA,NA,6,"14,7,6,8,1,3,4,5,13,9,12,2,10,11,15"
14225,commdev-image-keyboard-response,580,1401299,learnblock2,1125.6000000089407,img/planet14_right.png,14,Community 1,NA,FALSE,f,j,NA,NA,NA,NA,6,"14,7,6,8,1,3,4,5,13,9,12,2,10,11,15"
14225,commdev-image-keyboard-response,581,1402552,learnblock2,null,img/planet1_right.png,1,Community 1,NA,FALSE,null,j,NA,NA,NA,NA,6,"14,7,6,8,1,3,4,5,13,9,12,2,10,11,15"
14225,commdev-image-keyboard-response,582,1403806,learnblock2,null,img/planet6_right.png,6,Community 1,NA,FALSE,null,j,NA,NA,NA,NA,6,"14,7,6,8,1,3,4,5,13,9,12,2,10,11,15"
14225,commdev-image-keyboard-response,583,1405058,learnblock2,null,img/planet8_right.png,8,Community 1,NA,FALSE,null,j,NA,NA,NA,NA,6,"14,7,6,8,1,3,4,5,13,9,12,2,10,11,15"
14225,commdev-image-keyboard-response,584,1406311,learnblock2,null,img/planet3_right.png,3,Community 2,NA,FALSE,null,j,NA,NA,NA,NA,6,"14,7,6,8,1,3,4,5,13,9,12,2,10,11,15"
14225,commdev-image-keyboard-response,585,1407565,learnblock2,854.2000000029802,img/planet13_left.png,13,Community 2,NA,FALSE,j,f,NA,NA,NA,NA,6,"14,7,6,8,1,3,4,5,13,9,12,2,10,11,15"
14225,commdev-image-keyboard-response,586,1408819,learnblock2,null,img/planet9_right.png,9,Community 2,NA,FALSE,null,j,NA,NA,NA,NA,6,"14,7,6,8,1,3,4,5,13,9,12,2,10,11,15"
14225,commdev-image-keyboard-response,587,1410071,learnblock2,644.7000000029802,img/planet4_left.png,4,Community 2,NA,TRUE,f,f,NA,NA,NA,NA,6,"14,7,6,8,1,3,4,5,13,9,12,2,10,11,15"
14225,commdev-image-keyboard-response,588,1411324,learnblock2,1002.2999999970198,img/planet3_left.png,3,Community 2,NA,FALSE,j,f,NA,NA,NA,NA,6,"14,7,6,8,1,3,4,5,13,9,12,2,10,11,15"
14225,commdev-image-keyboard-response,589,1412577,learnblock2,823.5999999940395,img/planet4_right.png,4,Community 2,NA,FALSE,f,j,NA,NA,NA,NA,6,"14,7,6,8,1,3,4,5,13,9,12,2,10,11,15"
14225,commdev-image-keyboard-response,590,1413829,learnblock2,61,img/planet5_left.png,5,Community 2,NA,FALSE,j,f,NA,NA,NA,NA,6,"14,7,6,8,1,3,4,5,13,9,12,2,10,11,15"
14225,commdev-image-keyboard-response,591,1415082,learnblock2,18.200000002980232,img/planet13_left.png,13,Community 2,NA,TRUE,f,f,NA,NA,NA,NA,6,"14,7,6,8,1,3,4,5,13,9,12,2,10,11,15"
14225,commdev-image-keyboard-response,592,1416334,learnblock2,948.2000000029802,img/planet9_left.png,9,Community 2,NA,TRUE,f,f,NA,NA,NA,NA,6,"14,7,6,8,1,3,4,5,13,9,12,2,10,11,15"
14225,commdev-image-keyboard-response,593,1417587,learnblock2,927.2000000029802,img/planet4_right.png,4,Community 2,NA,TRUE,j,j,NA,NA,NA,NA,6,"14,7,6,8,1,3,4,5,13,9,12,2,10,11,15"
14225,commdev-image-keyboard-response,594,1418840,learnblock2,1069.0999999940395,img/planet13_left.png,13,Community 2,NA,TRUE,f,f,NA,NA,NA,NA,6,"14,7,6,8,1,3,4,5,13,9,12,2,10,11,15"
14225,commdev-image-keyboard-response,595,1420093,learnblock2,null,img/planet9_right.png,9,Community 2,NA,FALSE,null,j,NA,NA,NA,NA,6,"14,7,6,8,1,3,4,5,13,9,12,2,10,11,15"
14225,commdev-image-keyboard-response,596,1421345,learnblock2,null,img/planet13_left.png,13,Community 2,NA,FALSE,null,f,NA,NA,NA,NA,6,"14,7,6,8,1,3,4,5,13,9,12,2,10,11,15"
14225,commdev-image-keyboard-response,597,1422598,learnblock2,98.59999999403954,img/planet3_right.png,3,Community 2,NA,FALSE,f,j,NA,NA,NA,NA,6,"14,7,6,8,1,3,4,5,13,9,12,2,10,11,15"
14225,commdev-image-keyboard-response,598,1423851,learnblock2,46.20000000298023,img/planet13_right.png,13,Community 2,NA,TRUE,j,j,NA,NA,NA,NA,6,"14,7,6,8,1,3,4,5,13,9,12,2,10,11,15"
14225,commdev-image-keyboard-response,599,1425103,learnblock2,593.5999999940395,img/planet5_right.png,5,Community 2,NA,TRUE,j,j,NA,NA,NA,NA,6,"14,7,6,8,1,3,4,5,13,9,12,2,10,11,15"
14225,commdev-image-keyboard-response,600,1426355,learnblock2,963.5,img/planet9_right.png,9,Community 2,NA,TRUE,j,j,NA,NA,NA,NA,6,"14,7,6,8,1,3,4,5,13,9,12,2,10,11,15"
14225,commdev-image-keyboard-response,601,1427607,learnblock2,583.2999999970198,img/planet4_right.png,4,Community 2,NA,TRUE,j,j,NA,NA,NA,NA,6,"14,7,6,8,1,3,4,5,13,9,12,2,10,11,15"
14225,commdev-image-keyboard-response,602,1428859,learnblock2,null,img/planet9_right.png,9,Community 2,NA,FALSE,null,j,NA,NA,NA,NA,6,"14,7,6,8,1,3,4,5,13,9,12,2,10,11,15"
14225,commdev-image-keyboard-response,603,1430113,learnblock2,26.600000008940697,img/planet4_right.png,4,Community 2,NA,TRUE,j,j,NA,NA,NA,NA,6,"14,7,6,8,1,3,4,5,13,9,12,2,10,11,15"
14225,commdev-image-keyboard-response,604,1431366,learnblock2,463.29999999701977,img/planet9_right.png,9,Community 2,NA,TRUE,j,j,NA,NA,NA,NA,6,"14,7,6,8,1,3,4,5,13,9,12,2,10,11,15"
14225,commdev-image-keyboard-response,605,1432619,learnblock2,null,img/planet5_left.png,5,Community 2,NA,FALSE,null,f,NA,NA,NA,NA,6,"14,7,6,8,1,3,4,5,13,9,12,2,10,11,15"
14225,commdev-image-keyboard-response,606,1433871,learnblock2,60.20000000298023,img/planet2_left.png,2,Community 3,NA,TRUE,f,f,NA,NA,NA,NA,6,"14,7,6,8,1,3,4,5,13,9,12,2,10,11,15"
14225,commdev-image-keyboard-response,607,1435125,learnblock2,null,img/planet15_right.png,15,Community 3,NA,FALSE,null,j,NA,NA,NA,NA,6,"14,7,6,8,1,3,4,5,13,9,12,2,10,11,15"
14225,commdev-image-keyboard-response,608,1436377,learnblock2,31.700000002980232,img/planet11_right.png,11,Community 3,NA,TRUE,j,j,NA,NA,NA,NA,6,"14,7,6,8,1,3,4,5,13,9,12,2,10,11,15"
14225,commdev-image-keyboard-response,609,1437630,learnblock2,null,img/planet12_right.png,12,Community 3,NA,FALSE,null,j,NA,NA,NA,NA,6,"14,7,6,8,1,3,4,5,13,9,12,2,10,11,15"
14225,commdev-image-keyboard-response,610,1438883,learnblock2,886.0999999940395,img/planet10_right.png,10,Community 3,NA,FALSE,f,j,NA,NA,NA,NA,6,"14,7,6,8,1,3,4,5,13,9,12,2,10,11,15"
14225,commdev-image-keyboard-response,611,1440136,learnblock2,null,img/planet15_left.png,15,Community 3,NA,FALSE,null,f,NA,NA,NA,NA,6,"14,7,6,8,1,3,4,5,13,9,12,2,10,11,15"
14225,commdev-image-keyboard-response,612,1441388,learnblock2,null,img/planet2_right.png,2,Community 3,NA,FALSE,null,j,NA,NA,NA,NA,6,"14,7,6,8,1,3,4,5,13,9,12,2,10,11,15"
14225,commdev-image-keyboard-response,613,1442642,learnblock2,86.90000000596046,img/planet15_left.png,15,Community 3,NA,FALSE,j,f,NA,NA,NA,NA,6,"14,7,6,8,1,3,4,5,13,9,12,2,10,11,15"
14225,commdev-image-keyboard-response,614,1443895,learnblock2,714.2999999970198,img/planet2_right.png,2,Community 3,NA,TRUE,j,j,NA,NA,NA,NA,6,"14,7,6,8,1,3,4,5,13,9,12,2,10,11,15"
14225,commdev-image-keyboard-response,615,1445149,learnblock2,225.09999999403954,img/planet5_left.png,5,Community 2,NA,FALSE,j,f,NA,NA,NA,NA,6,"14,7,6,8,1,3,4,5,13,9,12,2,10,11,15"
14225,commdev-image-keyboard-response,616,1446401,learnblock2,177.70000000298023,img/planet4_left.png,4,Community 2,NA,TRUE,f,f,NA,NA,NA,NA,6,"14,7,6,8,1,3,4,5,13,9,12,2,10,11,15"
14225,commdev-image-keyboard-response,617,1447655,learnblock2,1018.2999999970198,img/planet9_right.png,9,Community 2,NA,TRUE,j,j,NA,NA,NA,NA,6,"14,7,6,8,1,3,4,5,13,9,12,2,10,11,15"
14225,commdev-image-keyboard-response,618,1448908,learnblock2,1010.5,img/planet13_right.png,13,Community 2,NA,TRUE,j,j,NA,NA,NA,NA,6,"14,7,6,8,1,3,4,5,13,9,12,2,10,11,15"
14225,commdev-image-keyboard-response,619,1450161,learnblock2,null,img/planet5_left.png,5,Community 2,NA,FALSE,null,f,NA,NA,NA,NA,6,"14,7,6,8,1,3,4,5,13,9,12,2,10,11,15"
14225,commdev-image-keyboard-response,620,1451414,learnblock2,239.90000000596046,img/planet13_right.png,13,Community 2,NA,FALSE,f,j,NA,NA,NA,NA,6,"14,7,6,8,1,3,4,5,13,9,12,2,10,11,15"
14225,commdev-image-keyboard-response,621,1452667,learnblock2,752.2000000029802,img/planet9_left.png,9,Community 2,NA,TRUE,f,f,NA,NA,NA,NA,6,"14,7,6,8,1,3,4,5,13,9,12,2,10,11,15"
14225,commdev-image-keyboard-response,622,1453920,learnblock2,684.1000000089407,img/planet13_left.png,13,Community 2,NA,FALSE,j,f,NA,NA,NA,NA,6,"14,7,6,8,1,3,4,5,13,9,12,2,10,11,15"
14225,commdev-image-keyboard-response,623,1455172,learnblock2,null,img/planet3_right.png,3,Community 2,NA,FALSE,null,j,NA,NA,NA,NA,6,"14,7,6,8,1,3,4,5,13,9,12,2,10,11,15"
14225,commdev-image-keyboard-response,624,1456426,learnblock2,333.6000000089407,img/planet4_left.png,4,Community 2,NA,FALSE,j,f,NA,NA,NA,NA,6,"14,7,6,8,1,3,4,5,13,9,12,2,10,11,15"
14225,commdev-image-keyboard-response,625,1457679,learnblock2,867.2999999970198,img/planet3_right.png,3,Community 2,NA,TRUE,j,j,NA,NA,NA,NA,6,"14,7,6,8,1,3,4,5,13,9,12,2,10,11,15"
14225,commdev-image-keyboard-response,626,1458931,learnblock2,780.2999999970198,img/planet4_left.png,4,Community 2,NA,TRUE,f,f,NA,NA,NA,NA,6,"14,7,6,8,1,3,4,5,13,9,12,2,10,11,15"
14225,commdev-image-keyboard-response,627,1460184,learnblock2,null,img/planet9_left.png,9,Community 2,NA,FALSE,null,f,NA,NA,NA,NA,6,"14,7,6,8,1,3,4,5,13,9,12,2,10,11,15"
14225,commdev-image-keyboard-response,628,1461438,learnblock2,389.29999999701977,img/planet3_left.png,3,Community 2,NA,FALSE,j,f,NA,NA,NA,NA,6,"14,7,6,8,1,3,4,5,13,9,12,2,10,11,15"
14225,commdev-image-keyboard-response,629,1462690,learnblock2,null,img/planet8_left.png,8,Community 1,NA,FALSE,null,f,NA,NA,NA,NA,6,"14,7,6,8,1,3,4,5,13,9,12,2,10,11,15"
14225,commdev-image-keyboard-response,630,1463942,learnblock2,63.70000000298023,img/planet7_left.png,7,Community 1,NA,TRUE,f,f,NA,NA,NA,NA,6,"14,7,6,8,1,3,4,5,13,9,12,2,10,11,15"
14225,commdev-image-keyboard-response,631,1465195,learnblock2,null,img/planet14_right.png,14,Community 1,NA,FALSE,null,j,NA,NA,NA,NA,6,"14,7,6,8,1,3,4,5,13,9,12,2,10,11,15"
14225,commdev-image-keyboard-response,632,1466448,learnblock2,32.79999999701977,img/planet8_left.png,8,Community 1,NA,FALSE,j,f,NA,NA,NA,NA,6,"14,7,6,8,1,3,4,5,13,9,12,2,10,11,15"
14225,commdev-image-keyboard-response,633,1467702,learnblock2,null,img/planet6_left.png,6,Community 1,NA,FALSE,null,f,NA,NA,NA,NA,6,"14,7,6,8,1,3,4,5,13,9,12,2,10,11,15"
14225,commdev-image-keyboard-response,634,1468954,learnblock2,null,img/planet8_left.png,8,Community 1,NA,FALSE,null,f,NA,NA,NA,NA,6,"14,7,6,8,1,3,4,5,13,9,12,2,10,11,15"
14225,commdev-image-keyboard-response,635,1470207,learnblock2,null,img/planet14_right.png,14,Community 1,NA,FALSE,null,j,NA,NA,NA,NA,6,"14,7,6,8,1,3,4,5,13,9,12,2,10,11,15"
14225,commdev-image-keyboard-response,636,1471461,learnblock2,787.7999999970198,img/planet7_right.png,7,Community 1,NA,FALSE,f,j,NA,NA,NA,NA,6,"14,7,6,8,1,3,4,5,13,9,12,2,10,11,15"
14225,commdev-image-keyboard-response,637,1472714,learnblock2,null,img/planet6_left.png,6,Community 1,NA,FALSE,null,f,NA,NA,NA,NA,6,"14,7,6,8,1,3,4,5,13,9,12,2,10,11,15"
14225,commdev-image-keyboard-response,638,1473967,learnblock2,201.1000000089407,img/planet1_left.png,1,Community 1,NA,FALSE,j,f,NA,NA,NA,NA,6,"14,7,6,8,1,3,4,5,13,9,12,2,10,11,15"
14225,commdev-image-keyboard-response,639,1475221,learnblock2,93.40000000596046,img/planet7_left.png,7,Community 1,NA,TRUE,f,f,NA,NA,NA,NA,6,"14,7,6,8,1,3,4,5,13,9,12,2,10,11,15"
14225,commdev-image-keyboard-response,640,1476474,learnblock2,126.19999998807907,img/planet14_right.png,14,Community 1,NA,FALSE,f,j,NA,NA,NA,NA,6,"14,7,6,8,1,3,4,5,13,9,12,2,10,11,15"
14225,commdev-image-keyboard-response,641,1477727,learnblock2,1221.1000000089407,img/planet6_right.png,6,Community 1,NA,TRUE,j,j,NA,NA,NA,NA,6,"14,7,6,8,1,3,4,5,13,9,12,2,10,11,15"
14225,commdev-image-keyboard-response,642,1478978,learnblock2,1102.7000000029802,img/planet7_right.png,7,Community 1,NA,TRUE,j,j,NA,NA,NA,NA,6,"14,7,6,8,1,3,4,5,13,9,12,2,10,11,15"
14225,commdev-image-keyboard-response,643,1480232,learnblock2,null,img/planet6_right.png,6,Community 1,NA,FALSE,null,j,NA,NA,NA,NA,6,"14,7,6,8,1,3,4,5,13,9,12,2,10,11,15"
14225,commdev-image-keyboard-response,644,1481486,learnblock2,null,img/planet7_right.png,7,Community 1,NA,FALSE,null,j,NA,NA,NA,NA,6,"14,7,6,8,1,3,4,5,13,9,12,2,10,11,15"
14225,commdev-image-keyboard-response,645,1482739,learnblock2,1059.5,img/planet1_right.png,1,Community 1,NA,TRUE,j,j,NA,NA,NA,NA,6,"14,7,6,8,1,3,4,5,13,9,12,2,10,11,15"
14225,commdev-image-keyboard-response,646,1483991,learnblock2,null,img/planet14_right.png,14,Community 1,NA,FALSE,null,j,NA,NA,NA,NA,6,"14,7,6,8,1,3,4,5,13,9,12,2,10,11,15"
14225,commdev-image-keyboard-response,647,1485244,learnblock2,736.8999999910593,img/planet8_right.png,8,Community 1,NA,TRUE,j,j,NA,NA,NA,NA,6,"14,7,6,8,1,3,4,5,13,9,12,2,10,11,15"
14225,commdev-image-keyboard-response,648,1486498,learnblock2,null,img/planet6_left.png,6,Community 1,NA,FALSE,null,f,NA,NA,NA,NA,6,"14,7,6,8,1,3,4,5,13,9,12,2,10,11,15"
14225,commdev-image-keyboard-response,649,1487751,learnblock2,109.79999999701977,img/planet8_right.png,8,Community 1,NA,TRUE,j,j,NA,NA,NA,NA,6,"14,7,6,8,1,3,4,5,13,9,12,2,10,11,15"
14225,commdev-image-keyboard-response,650,1489003,learnblock2,302.40000000596046,img/planet14_right.png,14,Community 1,NA,TRUE,j,j,NA,NA,NA,NA,6,"14,7,6,8,1,3,4,5,13,9,12,2,10,11,15"
14225,commdev-image-keyboard-response,651,1490255,learnblock2,715.3000000119209,img/planet1_left.png,1,Community 1,NA,FALSE,j,f,NA,NA,NA,NA,6,"14,7,6,8,1,3,4,5,13,9,12,2,10,11,15"
14225,commdev-image-keyboard-response,652,1491509,learnblock2,null,img/planet7_left.png,7,Community 1,NA,FALSE,null,f,NA,NA,NA,NA,6,"14,7,6,8,1,3,4,5,13,9,12,2,10,11,15"
14225,commdev-image-keyboard-response,653,1492762,learnblock2,752,img/planet8_right.png,8,Community 1,NA,TRUE,j,j,NA,NA,NA,NA,6,"14,7,6,8,1,3,4,5,13,9,12,2,10,11,15"
14225,commdev-image-keyboard-response,654,1494015,learnblock2,null,img/planet6_left.png,6,Community 1,NA,FALSE,null,f,NA,NA,NA,NA,6,"14,7,6,8,1,3,4,5,13,9,12,2,10,11,15"
14225,commdev-image-keyboard-response,655,1495268,learnblock2,null,img/planet7_right.png,7,Community 1,NA,FALSE,null,j,NA,NA,NA,NA,6,"14,7,6,8,1,3,4,5,13,9,12,2,10,11,15"
14225,commdev-image-keyboard-response,656,1496522,learnblock2,168.09999999403954,img/planet6_right.png,6,Community 1,NA,TRUE,j,j,NA,NA,NA,NA,6,"14,7,6,8,1,3,4,5,13,9,12,2,10,11,15"
14225,commdev-image-keyboard-response,657,1497774,learnblock2,1249.1000000089407,img/planet14_left.png,14,Community 1,NA,TRUE,f,f,NA,NA,NA,NA,6,"14,7,6,8,1,3,4,5,13,9,12,2,10,11,15"
14225,commdev-image-keyboard-response,658,1499026,learnblock2,null,img/planet6_left.png,6,Community 1,NA,FALSE,null,f,NA,NA,NA,NA,6,"14,7,6,8,1,3,4,5,13,9,12,2,10,11,15"
14225,commdev-image-keyboard-response,659,1500279,learnblock2,906.1000000089407,img/planet14_right.png,14,Community 1,NA,TRUE,j,j,NA,NA,NA,NA,6,"14,7,6,8,1,3,4,5,13,9,12,2,10,11,15"
14225,commdev-image-keyboard-response,660,1501532,learnblock2,null,img/planet6_right.png,6,Community 1,NA,FALSE,null,j,NA,NA,NA,NA,6,"14,7,6,8,1,3,4,5,13,9,12,2,10,11,15"
14225,commdev-image-keyboard-response,661,1502785,learnblock2,null,img/planet7_right.png,7,Community 1,NA,FALSE,null,j,NA,NA,NA,NA,6,"14,7,6,8,1,3,4,5,13,9,12,2,10,11,15"
14225,commdev-image-keyboard-response,662,1504038,learnblock2,null,img/planet6_right.png,6,Community 1,NA,FALSE,null,j,NA,NA,NA,NA,6,"14,7,6,8,1,3,4,5,13,9,12,2,10,11,15"
14225,commdev-image-keyboard-response,663,1505292,learnblock2,null,img/planet7_right.png,7,Community 1,NA,FALSE,null,j,NA,NA,NA,NA,6,"14,7,6,8,1,3,4,5,13,9,12,2,10,11,15"
14225,commdev-image-keyboard-response,664,1506545,learnblock2,1170.4000000059605,img/planet14_right.png,14,Community 1,NA,FALSE,f,j,NA,NA,NA,NA,6,"14,7,6,8,1,3,4,5,13,9,12,2,10,11,15"
14225,commdev-image-keyboard-response,665,1507797,learnblock2,null,img/planet7_left.png,7,Community 1,NA,FALSE,null,f,NA,NA,NA,NA,6,"14,7,6,8,1,3,4,5,13,9,12,2,10,11,15"
14225,commdev-image-keyboard-response,666,1509050,learnblock2,136.20000000298023,img/planet8_right.png,8,Community 1,NA,TRUE,j,j,NA,NA,NA,NA,6,"14,7,6,8,1,3,4,5,13,9,12,2,10,11,15"
14225,commdev-image-keyboard-response,667,1510304,learnblock2,null,img/planet3_right.png,3,Community 2,NA,FALSE,null,j,NA,NA,NA,NA,6,"14,7,6,8,1,3,4,5,13,9,12,2,10,11,15"
14225,commdev-image-keyboard-response,668,1511557,learnblock2,849.5999999940395,img/planet4_left.png,4,Community 2,NA,FALSE,j,f,NA,NA,NA,NA,6,"14,7,6,8,1,3,4,5,13,9,12,2,10,11,15"
14225,commdev-image-keyboard-response,669,1512810,learnblock2,null,img/planet13_left.png,13,Community 2,NA,FALSE,null,f,NA,NA,NA,NA,6,"14,7,6,8,1,3,4,5,13,9,12,2,10,11,15"
14225,commdev-image-keyboard-response,670,1514063,learnblock2,913.7000000029802,img/planet5_left.png,5,Community 2,NA,FALSE,j,f,NA,NA,NA,NA,6,"14,7,6,8,1,3,4,5,13,9,12,2,10,11,15"
14225,commdev-image-keyboard-response,671,1515317,learnblock2,692.1000000089407,img/planet9_left.png,9,Community 2,NA,TRUE,f,f,NA,NA,NA,NA,6,"14,7,6,8,1,3,4,5,13,9,12,2,10,11,15"
14225,commdev-image-keyboard-response,672,1516570,learnblock2,677.6000000089407,img/planet5_left.png,5,Community 2,NA,TRUE,f,f,NA,NA,NA,NA,6,"14,7,6,8,1,3,4,5,13,9,12,2,10,11,15"
14225,commdev-image-keyboard-response,673,1517823,learnblock2,1072.9000000059605,img/planet9_right.png,9,Community 2,NA,TRUE,j,j,NA,NA,NA,NA,6,"14,7,6,8,1,3,4,5,13,9,12,2,10,11,15"
14225,commdev-image-keyboard-response,674,1519074,learnblock2,null,img/planet4_right.png,4,Community 2,NA,FALSE,null,j,NA,NA,NA,NA,6,"14,7,6,8,1,3,4,5,13,9,12,2,10,11,15"
14225,commdev-image-keyboard-response,675,1520328,learnblock2,null,img/planet3_left.png,3,Community 2,NA,FALSE,null,f,NA,NA,NA,NA,6,"14,7,6,8,1,3,4,5,13,9,12,2,10,11,15"
14225,commdev-image-keyboard-response,676,1521581,learnblock2,null,img/planet4_right.png,4,Community 2,NA,FALSE,null,j,NA,NA,NA,NA,6,"14,7,6,8,1,3,4,5,13,9,12,2,10,11,15"
14225,commdev-image-keyboard-response,677,1522834,learnblock2,169.79999999701977,img/planet3_right.png,3,Community 2,NA,TRUE,j,j,NA,NA,NA,NA,6,"14,7,6,8,1,3,4,5,13,9,12,2,10,11,15"
14225,commdev-image-keyboard-response,678,1524086,learnblock2,null,img/planet4_left.png,4,Community 2,NA,FALSE,null,f,NA,NA,NA,NA,6,"14,7,6,8,1,3,4,5,13,9,12,2,10,11,15"
14225,commdev-image-keyboard-response,679,1525340,learnblock2,null,img/planet5_right.png,5,Community 2,NA,FALSE,null,j,NA,NA,NA,NA,6,"14,7,6,8,1,3,4,5,13,9,12,2,10,11,15"
14225,commdev-image-keyboard-response,680,1526592,learnblock2,null,img/planet13_left.png,13,Community 2,NA,FALSE,null,f,NA,NA,NA,NA,6,"14,7,6,8,1,3,4,5,13,9,12,2,10,11,15"
14225,commdev-image-keyboard-response,681,1527845,learnblock2,194.70000000298023,img/planet5_left.png,5,Community 2,NA,FALSE,j,f,NA,NA,NA,NA,6,"14,7,6,8,1,3,4,5,13,9,12,2,10,11,15"
14225,commdev-image-keyboard-response,682,1529098,learnblock2,927.2000000029802,img/planet2_left.png,2,Community 3,NA,FALSE,j,f,NA,NA,NA,NA,6,"14,7,6,8,1,3,4,5,13,9,12,2,10,11,15"
14225,commdev-image-keyboard-response,683,1530351,learnblock2,990,img/planet15_left.png,15,Community 3,NA,FALSE,j,f,NA,NA,NA,NA,6,"14,7,6,8,1,3,4,5,13,9,12,2,10,11,15"
14225,commdev-image-keyboard-response,684,1531605,learnblock2,988.7000000029802,img/planet12_right.png,12,Community 3,NA,TRUE,j,j,NA,NA,NA,NA,6,"14,7,6,8,1,3,4,5,13,9,12,2,10,11,15"
14225,commdev-image-keyboard-response,685,1532858,learnblock2,905.6000000089407,img/planet1_left.png,1,Community 1,NA,TRUE,f,f,NA,NA,NA,NA,6,"14,7,6,8,1,3,4,5,13,9,12,2,10,11,15"
14225,commdev-image-keyboard-response,686,1534111,learnblock2,null,img/planet14_left.png,14,Community 1,NA,FALSE,null,f,NA,NA,NA,NA,6,"14,7,6,8,1,3,4,5,13,9,12,2,10,11,15"
14225,commdev-image-keyboard-response,687,1535364,learnblock2,178.6000000089407,img/planet7_left.png,7,Community 1,NA,TRUE,f,f,NA,NA,NA,NA,6,"14,7,6,8,1,3,4,5,13,9,12,2,10,11,15"
14225,commdev-image-keyboard-response,688,1536618,learnblock2,null,img/planet1_left.png,1,Community 1,NA,FALSE,null,f,NA,NA,NA,NA,6,"14,7,6,8,1,3,4,5,13,9,12,2,10,11,15"
14225,commdev-image-keyboard-response,689,1537871,learnblock2,261.20000000298023,img/planet6_left.png,6,Community 1,NA,TRUE,f,f,NA,NA,NA,NA,6,"14,7,6,8,1,3,4,5,13,9,12,2,10,11,15"
14225,commdev-image-keyboard-response,690,1539123,learnblock2,1076.9000000059605,img/planet7_left.png,7,Community 1,NA,TRUE,f,f,NA,NA,NA,NA,6,"14,7,6,8,1,3,4,5,13,9,12,2,10,11,15"
14225,commdev-image-keyboard-response,691,1540377,learnblock2,null,img/planet8_right.png,8,Community 1,NA,FALSE,null,j,NA,NA,NA,NA,6,"14,7,6,8,1,3,4,5,13,9,12,2,10,11,15"
14225,commdev-image-keyboard-response,692,1541630,learnblock2,189.8999999910593,img/planet14_right.png,14,Community 1,NA,TRUE,j,j,NA,NA,NA,NA,6,"14,7,6,8,1,3,4,5,13,9,12,2,10,11,15"
14225,commdev-image-keyboard-response,693,1542882,learnblock2,227.5,img/planet8_left.png,8,Community 1,NA,TRUE,f,f,NA,NA,NA,NA,6,"14,7,6,8,1,3,4,5,13,9,12,2,10,11,15"
14225,commdev-image-keyboard-response,694,1544135,learnblock2,919,img/planet14_left.png,14,Community 1,NA,FALSE,j,f,NA,NA,NA,NA,6,"14,7,6,8,1,3,4,5,13,9,12,2,10,11,15"
14225,commdev-image-keyboard-response,695,1545388,learnblock2,1211.3999999910593,img/planet1_left.png,1,Community 1,NA,TRUE,f,f,NA,NA,NA,NA,6,"14,7,6,8,1,3,4,5,13,9,12,2,10,11,15"
14225,commdev-image-keyboard-response,696,1546641,learnblock2,null,img/planet12_left.png,12,Community 3,NA,FALSE,null,f,NA,NA,NA,NA,6,"14,7,6,8,1,3,4,5,13,9,12,2,10,11,15"
