subject_id,trial_type,trial_index,time_elapsed,block,rt,stimulus,planet,community,response,correct,key_press,learning_correct_response,parse,init_locations,final_locations,browser_interactions,num_comp,planet_map
14700,commdev-instructions,7,101584,NA,7475.100000000035,"<p>In this game, you will be shown a 3x3 grid of patterns.</p> <p>The last one in the bottom right-hand corner, <strong>will be missing:</strong></p> <div style='width: 700px;'><div style='float: top;'><img style='width: 200px;' src='practice/p1_M1.png'></img><p class='small'>You need to select<strong> which of the four possible patterns </strong>along the bottom<strong> fits into the gap:</strong></p></div><div style='float: top;'><img style='width: 300px;' src='practice/p1_T1.png'></img></div><br>",NA,NA,NA,NA,NA,NA,NA,NA,NA,6,7,"3,1,2,10,5,13,9,6,14,12,11,8,15,7,4"
14700,commdev-instructions,8,126429,NA,1547.899999999965,"<p>Try to be as fast and as accurate as you can be.</p> <p>If you cannot solve the puzzle then you should guess - you will not be penalised for an incorrect answer.</p> <p>The task contains a shuffled mix of easy, medium and hard puzzles.</p> <p>You will have <strong>30 seconds</strong> to complete each puzzle.</p><br>",NA,NA,NA,NA,NA,NA,NA,NA,NA,6,7,"3,1,2,10,5,13,9,6,14,12,11,8,15,7,4"
14700,commdev-instructions,21,192467,NA,878.1999999999534,<p><strong>Success!</strong></p> <p>You seem to be getting the hang of this...</p> <p>Let's move on to the real trials.</p><br>,NA,NA,NA,NA,NA,NA,NA,NA,NA,6,7,"3,1,2,10,5,13,9,6,14,12,11,8,15,7,4"
14700,commdev-instructions,95,685158,NA,2332.6999999999534,"<p>In this game, you are a scientist on board a space shuttle. </p><p> On each mission, you will visit planets all across the universe.</p><img src=""img/controlroom.jpg"" width=300vw>",NA,NA,NA,NA,NA,NA,NA,NA,NA,6,7,"3,1,2,10,5,13,9,6,14,12,11,8,15,7,4"
14700,commdev-instructions,96,688960,NA,1719.5,"<p>Here are a few planets you might see:</p><img src=""img/practice1.png"" width=200vw><img src=""img/practice2.png"" width=200vw><img src=""img/practice3.png"" width=200vw>",NA,NA,NA,NA,NA,NA,NA,NA,NA,6,7,"3,1,2,10,5,13,9,6,14,12,11,8,15,7,4"
14700,commdev-instructions,97,697616,NA,1253.8000000000466,"<p>Your job as a scientist is to record which direction the winds are moving on each planet.</p><p>There are two types of wind directions:</p><img src=""img/practice1_left.png"" width=200vw><img src=""img/practice1_right.png"" width=200vw>",NA,NA,NA,NA,NA,NA,NA,NA,NA,6,7,"3,1,2,10,5,13,9,6,14,12,11,8,15,7,4"
14700,commdev-instructions,98,704989,NA,2496.1999999999534,"<p>If the winds are moving this way, press the letter <strong>F</strong> on the keyboard as fast as you can.</p><img src=""img/leftwind.png"" width=250vw>",NA,NA,NA,NA,NA,NA,NA,NA,NA,6,7,"3,1,2,10,5,13,9,6,14,12,11,8,15,7,4"
14700,commdev-instructions,99,711219,NA,1728.3999999999069,"<p>If the winds are moving this way, press the letter <strong>J</strong> on the keyboard as fast as you can.</p><img src=""img/rightwind.png"" width=350vw>",NA,NA,NA,NA,NA,NA,NA,NA,NA,6,7,"3,1,2,10,5,13,9,6,14,12,11,8,15,7,4"
14700,commdev-instructions,100,717710,NA,2076,<p>You will have 1 second to respond. Try to respond before the time runs out!,NA,NA,NA,NA,NA,NA,NA,NA,NA,6,7,"3,1,2,10,5,13,9,6,14,12,11,8,15,7,4"
14700,commdev-instructions,101,723845,NA,701.8000000000466,<p>The planets you will visit will look different from each other.</p><p>You should respond <strong>only</strong> based on wind direction.,NA,NA,NA,NA,NA,NA,NA,NA,NA,6,7,"3,1,2,10,5,13,9,6,14,12,11,8,15,7,4"
14700,commdev-instructions,102,732932,NA,3921.6999999999534,"<p> Ready to start the practice round? </p><p> Remember, press <strong>F</strong> or <strong>J</strong> depending on the wind direction.<br><img src=""img/categorize_planet_example.png""",NA,NA,NA,NA,NA,NA,NA,NA,NA,6,7,"3,1,2,10,5,13,9,6,14,12,11,8,15,7,4"
14700,commdev-instructions,114,785435,NA,1065.3000000000466,"<p>Great, now try a short practice mission. </p><p> This time, you will have 1 second to respond and you won't know whether you pressed the right or wrong key for each planet.</p>",NA,NA,NA,NA,NA,NA,NA,NA,NA,6,7,"3,1,2,10,5,13,9,6,14,12,11,8,15,7,4"
14700,commdev-image-keyboard-response,115,786793,practice,680.3999999999069,img/practice3_left.png,NA,Number not found in mappings,NA,TRUE,f,f,NA,NA,NA,6,7,"3,1,2,10,5,13,9,6,14,12,11,8,15,7,4"
14700,commdev-image-keyboard-response,116,788048,practice,1119.6000000000931,img/practice1_left.png,NA,Number not found in mappings,NA,TRUE,f,f,NA,NA,NA,6,7,"3,1,2,10,5,13,9,6,14,12,11,8,15,7,4"
14700,commdev-image-keyboard-response,117,789302,practice,866.8000000000466,img/practice3_left.png,NA,Number not found in mappings,NA,TRUE,f,f,NA,NA,NA,6,7,"3,1,2,10,5,13,9,6,14,12,11,8,15,7,4"
14700,commdev-image-keyboard-response,118,790555,practice,835.3999999999069,img/practice4_left.png,NA,Number not found in mappings,NA,TRUE,f,f,NA,NA,NA,6,7,"3,1,2,10,5,13,9,6,14,12,11,8,15,7,4"
14700,commdev-image-keyboard-response,119,791808,practice,746.2000000001863,img/practice1_left.png,NA,Number not found in mappings,NA,TRUE,f,f,NA,NA,NA,6,7,"3,1,2,10,5,13,9,6,14,12,11,8,15,7,4"
14700,commdev-image-keyboard-response,120,793061,practice,845.4000000001397,img/practice4_right.png,NA,Number not found in mappings,NA,TRUE,j,j,NA,NA,NA,6,7,"3,1,2,10,5,13,9,6,14,12,11,8,15,7,4"
14700,commdev-image-keyboard-response,121,794313,practice,734.9000000001397,img/practice2_right.png,NA,Number not found in mappings,NA,FALSE,f,j,NA,NA,NA,6,7,"3,1,2,10,5,13,9,6,14,12,11,8,15,7,4"
14700,commdev-image-keyboard-response,122,795566,practice,1243.8999999999069,img/practice4_right.png,NA,Number not found in mappings,NA,FALSE,f,j,NA,NA,NA,6,7,"3,1,2,10,5,13,9,6,14,12,11,8,15,7,4"
14700,commdev-instructions,123,806317,NA,1189.0999999998603,"<p>Great job with the practice round.</p><p>During real missions, you won't know whether you pressed the right or wrong key for each planet.</p><p>But between missions, we will tell you how you did overall.</p>",NA,NA,NA,NA,NA,NA,NA,NA,NA,6,7,"3,1,2,10,5,13,9,6,14,12,11,8,15,7,4"
14700,commdev-instructions,124,816013,NA,1457.2000000001863,<p>Try your best! You will be paid a bonus based on how many correct responses you make!</p><p>Responses that are too slow will not count toward your bonus.</p>,NA,NA,NA,NA,NA,NA,NA,NA,NA,6,7,"3,1,2,10,5,13,9,6,14,12,11,8,15,7,4"
14700,commdev-instructions,125,823483,NA,1268.7000000001863,"<p>You are almost ready to start the real game.</p><p> First, we are going to ask you some questions about how the game works.</p>",NA,NA,NA,NA,NA,NA,NA,NA,NA,6,7,"3,1,2,10,5,13,9,6,14,12,11,8,15,7,4"
14700,commdev-instructions,134,908679,NA,3135.7000000001863,"<p> Nice work! It is now time to start the real game.<p></p>You will go on two missions to record wind directions of different planets.<p></p>Each one will take about 5 minutes. You will get to take a break between missions.<p><p> Remember, press <strong>F</strong> or <strong>J</strong> depending on the wind direction. Good luck!<br><img src=""img/categorize_planet_example.png""",NA,NA,NA,NA,NA,NA,NA,NA,NA,6,7,"3,1,2,10,5,13,9,6,14,12,11,8,15,7,4"
14700,commdev-image-keyboard-response,136,938423,learnblock1,null,img/planet6_right.png,6,Community 2,NA,FALSE,null,j,NA,NA,NA,6,7,"3,1,2,10,5,13,9,6,14,12,11,8,15,7,4"
14700,commdev-image-keyboard-response,137,939676,learnblock1,null,img/planet9_left.png,9,Community 2,NA,FALSE,null,f,NA,NA,NA,6,7,"3,1,2,10,5,13,9,6,14,12,11,8,15,7,4"
14700,commdev-image-keyboard-response,138,940930,learnblock1,830.8000000000466,img/planet6_left.png,6,Community 2,NA,TRUE,f,f,NA,NA,NA,6,7,"3,1,2,10,5,13,9,6,14,12,11,8,15,7,4"
14700,commdev-image-keyboard-response,139,942184,learnblock1,199.10000000009313,img/planet12_left.png,12,Community 2,NA,TRUE,f,f,NA,NA,NA,6,7,"3,1,2,10,5,13,9,6,14,12,11,8,15,7,4"
14700,commdev-image-keyboard-response,140,943437,learnblock1,null,img/planet9_right.png,9,Community 2,NA,FALSE,null,j,NA,NA,NA,6,7,"3,1,2,10,5,13,9,6,14,12,11,8,15,7,4"
14700,commdev-image-keyboard-response,141,944691,learnblock1,888.8999999999069,img/planet12_left.png,12,Community 2,NA,TRUE,f,f,NA,NA,NA,6,7,"3,1,2,10,5,13,9,6,14,12,11,8,15,7,4"
14700,commdev-image-keyboard-response,142,945944,learnblock1,672.5999999998603,img/planet9_left.png,9,Community 2,NA,FALSE,j,f,NA,NA,NA,6,7,"3,1,2,10,5,13,9,6,14,12,11,8,15,7,4"
14700,commdev-image-keyboard-response,143,947197,learnblock1,855.1999999999534,img/planet14_right.png,14,Community 2,NA,TRUE,j,j,NA,NA,NA,6,7,"3,1,2,10,5,13,9,6,14,12,11,8,15,7,4"
14700,commdev-image-keyboard-response,144,948450,learnblock1,882,img/planet13_left.png,13,Community 2,NA,TRUE,f,f,NA,NA,NA,6,7,"3,1,2,10,5,13,9,6,14,12,11,8,15,7,4"
14700,commdev-image-keyboard-response,145,949704,learnblock1,965.4000000001397,img/planet10_right.png,10,Community 1,NA,TRUE,j,j,NA,NA,NA,6,7,"3,1,2,10,5,13,9,6,14,12,11,8,15,7,4"
14700,commdev-image-keyboard-response,146,950958,learnblock1,859.8000000000466,img/planet13_left.png,13,Community 2,NA,TRUE,f,f,NA,NA,NA,6,7,"3,1,2,10,5,13,9,6,14,12,11,8,15,7,4"
14700,commdev-image-keyboard-response,147,952212,learnblock1,790.6000000000931,img/planet9_left.png,9,Community 2,NA,FALSE,j,f,NA,NA,NA,6,7,"3,1,2,10,5,13,9,6,14,12,11,8,15,7,4"
14700,commdev-image-keyboard-response,148,953466,learnblock1,1084.7999999998137,img/planet6_right.png,6,Community 2,NA,TRUE,j,j,NA,NA,NA,6,7,"3,1,2,10,5,13,9,6,14,12,11,8,15,7,4"
14700,commdev-image-keyboard-response,149,954719,learnblock1,819.0999999998603,img/planet12_right.png,12,Community 2,NA,FALSE,f,j,NA,NA,NA,6,7,"3,1,2,10,5,13,9,6,14,12,11,8,15,7,4"
14700,commdev-image-keyboard-response,150,955971,learnblock1,992.8000000000466,img/planet9_right.png,9,Community 2,NA,TRUE,j,j,NA,NA,NA,6,7,"3,1,2,10,5,13,9,6,14,12,11,8,15,7,4"
14700,commdev-image-keyboard-response,151,957224,learnblock1,1111.3999999999069,img/planet12_left.png,12,Community 2,NA,FALSE,j,f,NA,NA,NA,6,7,"3,1,2,10,5,13,9,6,14,12,11,8,15,7,4"
14700,commdev-image-keyboard-response,152,958478,learnblock1,104.19999999995343,img/planet14_right.png,14,Community 2,NA,FALSE,f,j,NA,NA,NA,6,7,"3,1,2,10,5,13,9,6,14,12,11,8,15,7,4"
14700,commdev-image-keyboard-response,153,959730,learnblock1,null,img/planet6_right.png,6,Community 2,NA,FALSE,null,j,NA,NA,NA,6,7,"3,1,2,10,5,13,9,6,14,12,11,8,15,7,4"
14700,commdev-image-keyboard-response,154,960983,learnblock1,810,img/planet14_left.png,14,Community 2,NA,TRUE,f,f,NA,NA,NA,6,7,"3,1,2,10,5,13,9,6,14,12,11,8,15,7,4"
14700,commdev-image-keyboard-response,155,962236,learnblock1,1006.1000000000931,img/planet12_left.png,12,Community 2,NA,FALSE,j,f,NA,NA,NA,6,7,"3,1,2,10,5,13,9,6,14,12,11,8,15,7,4"
14700,commdev-image-keyboard-response,156,963489,learnblock1,889.7999999998137,img/planet9_left.png,9,Community 2,NA,TRUE,f,f,NA,NA,NA,6,7,"3,1,2,10,5,13,9,6,14,12,11,8,15,7,4"
14700,commdev-image-keyboard-response,157,964743,learnblock1,1206,img/planet14_right.png,14,Community 2,NA,TRUE,j,j,NA,NA,NA,6,7,"3,1,2,10,5,13,9,6,14,12,11,8,15,7,4"
14700,commdev-image-keyboard-response,158,965996,learnblock1,1153.1000000000931,img/planet13_left.png,13,Community 2,NA,TRUE,f,f,NA,NA,NA,6,7,"3,1,2,10,5,13,9,6,14,12,11,8,15,7,4"
14700,commdev-image-keyboard-response,159,967250,learnblock1,1092.7999999998137,img/planet12_left.png,12,Community 2,NA,FALSE,j,f,NA,NA,NA,6,7,"3,1,2,10,5,13,9,6,14,12,11,8,15,7,4"
14700,commdev-image-keyboard-response,160,968502,learnblock1,1029.1999999999534,img/planet14_left.png,14,Community 2,NA,TRUE,f,f,NA,NA,NA,6,7,"3,1,2,10,5,13,9,6,14,12,11,8,15,7,4"
14700,commdev-image-keyboard-response,161,969755,learnblock1,1009.1999999999534,img/planet13_right.png,13,Community 2,NA,TRUE,j,j,NA,NA,NA,6,7,"3,1,2,10,5,13,9,6,14,12,11,8,15,7,4"
14700,commdev-image-keyboard-response,162,971008,learnblock1,1008.8000000000466,img/planet14_right.png,14,Community 2,NA,FALSE,f,j,NA,NA,NA,6,7,"3,1,2,10,5,13,9,6,14,12,11,8,15,7,4"
14700,commdev-image-keyboard-response,163,972262,learnblock1,1078.3000000000466,img/planet13_right.png,13,Community 2,NA,TRUE,j,j,NA,NA,NA,6,7,"3,1,2,10,5,13,9,6,14,12,11,8,15,7,4"
14700,commdev-image-keyboard-response,164,973515,learnblock1,914.6999999999534,img/planet9_right.png,9,Community 2,NA,TRUE,j,j,NA,NA,NA,6,7,"3,1,2,10,5,13,9,6,14,12,11,8,15,7,4"
14700,commdev-image-keyboard-response,165,974769,learnblock1,904.8000000000466,img/planet13_left.png,13,Community 2,NA,TRUE,f,f,NA,NA,NA,6,7,"3,1,2,10,5,13,9,6,14,12,11,8,15,7,4"
14700,commdev-image-keyboard-response,166,976023,learnblock1,953.3999999999069,img/planet10_right.png,10,Community 1,NA,TRUE,j,j,NA,NA,NA,6,7,"3,1,2,10,5,13,9,6,14,12,11,8,15,7,4"
14700,commdev-image-keyboard-response,167,977276,learnblock1,1022.6000000000931,img/planet2_right.png,2,Community 1,NA,FALSE,f,j,NA,NA,NA,6,7,"3,1,2,10,5,13,9,6,14,12,11,8,15,7,4"
14700,commdev-image-keyboard-response,168,978533,learnblock1,1223,img/planet10_left.png,10,Community 1,NA,FALSE,j,f,NA,NA,NA,6,7,"3,1,2,10,5,13,9,6,14,12,11,8,15,7,4"
14700,commdev-image-keyboard-response,169,979787,learnblock1,null,img/planet1_right.png,1,Community 1,NA,FALSE,null,j,NA,NA,NA,6,7,"3,1,2,10,5,13,9,6,14,12,11,8,15,7,4"
14700,commdev-image-keyboard-response,170,981040,learnblock1,232.19999999995343,img/planet10_right.png,10,Community 1,NA,FALSE,f,j,NA,NA,NA,6,7,"3,1,2,10,5,13,9,6,14,12,11,8,15,7,4"
14700,commdev-image-keyboard-response,171,982294,learnblock1,788.4000000001397,img/planet2_right.png,2,Community 1,NA,TRUE,j,j,NA,NA,NA,6,7,"3,1,2,10,5,13,9,6,14,12,11,8,15,7,4"
14700,commdev-image-keyboard-response,172,983547,learnblock1,1231.8000000000466,img/planet1_right.png,1,Community 1,NA,FALSE,f,j,NA,NA,NA,6,7,"3,1,2,10,5,13,9,6,14,12,11,8,15,7,4"
14700,commdev-image-keyboard-response,173,984801,learnblock1,921.2000000001863,img/planet2_left.png,2,Community 1,NA,FALSE,j,f,NA,NA,NA,6,7,"3,1,2,10,5,13,9,6,14,12,11,8,15,7,4"
14700,commdev-image-keyboard-response,174,986054,learnblock1,null,img/planet3_right.png,3,Community 1,NA,FALSE,null,j,NA,NA,NA,6,7,"3,1,2,10,5,13,9,6,14,12,11,8,15,7,4"
14700,commdev-image-keyboard-response,175,987310,learnblock1,65.5999999998603,img/planet5_left.png,5,Community 1,NA,FALSE,j,f,NA,NA,NA,6,7,"3,1,2,10,5,13,9,6,14,12,11,8,15,7,4"
14700,commdev-image-keyboard-response,176,988563,learnblock1,1225.6999999999534,img/planet2_left.png,2,Community 1,NA,TRUE,f,f,NA,NA,NA,6,7,"3,1,2,10,5,13,9,6,14,12,11,8,15,7,4"
14700,commdev-image-keyboard-response,177,989817,learnblock1,null,img/planet1_right.png,1,Community 1,NA,FALSE,null,j,NA,NA,NA,6,7,"3,1,2,10,5,13,9,6,14,12,11,8,15,7,4"
14700,commdev-image-keyboard-response,178,991072,learnblock1,3.4000000001396984,img/planet10_right.png,10,Community 1,NA,TRUE,j,j,NA,NA,NA,6,7,"3,1,2,10,5,13,9,6,14,12,11,8,15,7,4"
14700,commdev-image-keyboard-response,179,992325,learnblock1,null,img/planet1_right.png,1,Community 1,NA,FALSE,null,j,NA,NA,NA,6,7,"3,1,2,10,5,13,9,6,14,12,11,8,15,7,4"
14700,commdev-image-keyboard-response,180,993578,learnblock1,59.299999999813735,img/planet10_right.png,10,Community 1,NA,TRUE,j,j,NA,NA,NA,6,7,"3,1,2,10,5,13,9,6,14,12,11,8,15,7,4"
14700,commdev-image-keyboard-response,181,994833,learnblock1,797.3000000000466,img/planet1_left.png,1,Community 1,NA,FALSE,j,f,NA,NA,NA,6,7,"3,1,2,10,5,13,9,6,14,12,11,8,15,7,4"
14700,commdev-image-keyboard-response,182,996086,learnblock1,969.5999999998603,img/planet3_left.png,3,Community 1,NA,FALSE,j,f,NA,NA,NA,6,7,"3,1,2,10,5,13,9,6,14,12,11,8,15,7,4"
14700,commdev-image-keyboard-response,183,997339,learnblock1,1084.7999999998137,img/planet2_left.png,2,Community 1,NA,FALSE,j,f,NA,NA,NA,6,7,"3,1,2,10,5,13,9,6,14,12,11,8,15,7,4"
14700,commdev-image-keyboard-response,184,998593,learnblock1,null,img/planet3_left.png,3,Community 1,NA,FALSE,null,f,NA,NA,NA,6,7,"3,1,2,10,5,13,9,6,14,12,11,8,15,7,4"
14700,commdev-image-keyboard-response,185,999846,learnblock1,192.5999999998603,img/planet5_right.png,5,Community 1,NA,FALSE,f,j,NA,NA,NA,6,7,"3,1,2,10,5,13,9,6,14,12,11,8,15,7,4"
14700,commdev-image-keyboard-response,186,1001099,learnblock1,33.199999999953434,img/planet11_right.png,11,Community 3,NA,TRUE,j,j,NA,NA,NA,6,7,"3,1,2,10,5,13,9,6,14,12,11,8,15,7,4"
14700,commdev-image-keyboard-response,187,1002353,learnblock1,750,img/planet7_left.png,7,Community 3,NA,FALSE,j,f,NA,NA,NA,6,7,"3,1,2,10,5,13,9,6,14,12,11,8,15,7,4"
14700,commdev-image-keyboard-response,188,1003607,learnblock1,755.5,img/planet11_right.png,11,Community 3,NA,FALSE,f,j,NA,NA,NA,6,7,"3,1,2,10,5,13,9,6,14,12,11,8,15,7,4"
14700,commdev-image-keyboard-response,189,1004860,learnblock1,850.4000000001397,img/planet7_right.png,7,Community 3,NA,TRUE,j,j,NA,NA,NA,6,7,"3,1,2,10,5,13,9,6,14,12,11,8,15,7,4"
14700,commdev-image-keyboard-response,190,1006113,learnblock1,920.3000000000466,img/planet15_right.png,15,Community 3,NA,TRUE,j,j,NA,NA,NA,6,7,"3,1,2,10,5,13,9,6,14,12,11,8,15,7,4"
14700,commdev-image-keyboard-response,191,1007367,learnblock1,827,img/planet8_left.png,8,Community 3,NA,TRUE,f,f,NA,NA,NA,6,7,"3,1,2,10,5,13,9,6,14,12,11,8,15,7,4"
14700,commdev-image-keyboard-response,192,1008621,learnblock1,970.8999999999069,img/planet6_right.png,6,Community 2,NA,TRUE,j,j,NA,NA,NA,6,7,"3,1,2,10,5,13,9,6,14,12,11,8,15,7,4"
14700,commdev-image-keyboard-response,193,1009874,learnblock1,761.3999999999069,img/planet12_left.png,12,Community 2,NA,TRUE,f,f,NA,NA,NA,6,7,"3,1,2,10,5,13,9,6,14,12,11,8,15,7,4"
14700,commdev-image-keyboard-response,194,1011127,learnblock1,1097.6999999999534,img/planet13_left.png,13,Community 2,NA,FALSE,j,f,NA,NA,NA,6,7,"3,1,2,10,5,13,9,6,14,12,11,8,15,7,4"
14700,commdev-image-keyboard-response,195,1012380,learnblock1,1071.1999999999534,img/planet10_right.png,10,Community 1,NA,TRUE,j,j,NA,NA,NA,6,7,"3,1,2,10,5,13,9,6,14,12,11,8,15,7,4"
14700,commdev-image-keyboard-response,196,1013633,learnblock1,1095.3999999999069,img/planet3_right.png,3,Community 1,NA,FALSE,f,j,NA,NA,NA,6,7,"3,1,2,10,5,13,9,6,14,12,11,8,15,7,4"
14700,commdev-image-keyboard-response,197,1014887,learnblock1,1155.6999999999534,img/planet1_left.png,1,Community 1,NA,FALSE,j,f,NA,NA,NA,6,7,"3,1,2,10,5,13,9,6,14,12,11,8,15,7,4"
14700,commdev-image-keyboard-response,198,1016140,learnblock1,null,img/planet5_left.png,5,Community 1,NA,FALSE,null,f,NA,NA,NA,6,7,"3,1,2,10,5,13,9,6,14,12,11,8,15,7,4"
14700,commdev-image-keyboard-response,199,1017393,learnblock1,703.8999999999069,img/planet11_right.png,11,Community 3,NA,FALSE,f,j,NA,NA,NA,6,7,"3,1,2,10,5,13,9,6,14,12,11,8,15,7,4"
14700,commdev-image-keyboard-response,200,1018646,learnblock1,701.6999999999534,img/planet15_right.png,15,Community 3,NA,TRUE,j,j,NA,NA,NA,6,7,"3,1,2,10,5,13,9,6,14,12,11,8,15,7,4"
14700,commdev-image-keyboard-response,201,1019900,learnblock1,1164.8999999999069,img/planet4_left.png,4,Community 3,NA,TRUE,f,f,NA,NA,NA,6,7,"3,1,2,10,5,13,9,6,14,12,11,8,15,7,4"
14700,commdev-image-keyboard-response,202,1021154,learnblock1,1168.4000000001397,img/planet7_right.png,7,Community 3,NA,TRUE,j,j,NA,NA,NA,6,7,"3,1,2,10,5,13,9,6,14,12,11,8,15,7,4"
14700,commdev-image-keyboard-response,203,1022409,learnblock1,1206.6999999999534,img/planet15_left.png,15,Community 3,NA,TRUE,f,f,NA,NA,NA,6,7,"3,1,2,10,5,13,9,6,14,12,11,8,15,7,4"
14700,commdev-image-keyboard-response,204,1023665,learnblock1,1068.0999999998603,img/planet4_right.png,4,Community 3,NA,TRUE,j,j,NA,NA,NA,6,7,"3,1,2,10,5,13,9,6,14,12,11,8,15,7,4"
14700,commdev-image-keyboard-response,205,1024918,learnblock1,970.7999999998137,img/planet8_left.png,8,Community 3,NA,TRUE,f,f,NA,NA,NA,6,7,"3,1,2,10,5,13,9,6,14,12,11,8,15,7,4"
14700,commdev-image-keyboard-response,206,1026172,learnblock1,758.1999999999534,img/planet6_right.png,6,Community 2,NA,TRUE,j,j,NA,NA,NA,6,7,"3,1,2,10,5,13,9,6,14,12,11,8,15,7,4"
14700,commdev-image-keyboard-response,207,1027425,learnblock1,622,img/planet9_left.png,9,Community 2,NA,TRUE,f,f,NA,NA,NA,6,7,"3,1,2,10,5,13,9,6,14,12,11,8,15,7,4"
14700,commdev-image-keyboard-response,208,1028678,learnblock1,777.3000000000466,img/planet14_right.png,14,Community 2,NA,TRUE,j,j,NA,NA,NA,6,7,"3,1,2,10,5,13,9,6,14,12,11,8,15,7,4"
14700,commdev-image-keyboard-response,209,1029932,learnblock1,654.6000000000931,img/planet9_right.png,9,Community 2,NA,FALSE,f,j,NA,NA,NA,6,7,"3,1,2,10,5,13,9,6,14,12,11,8,15,7,4"
14700,commdev-image-keyboard-response,210,1031185,learnblock1,731.3999999999069,img/planet14_right.png,14,Community 2,NA,TRUE,j,j,NA,NA,NA,6,7,"3,1,2,10,5,13,9,6,14,12,11,8,15,7,4"
14700,commdev-image-keyboard-response,211,1032439,learnblock1,883.9000000001397,img/planet12_right.png,12,Community 2,NA,TRUE,j,j,NA,NA,NA,6,7,"3,1,2,10,5,13,9,6,14,12,11,8,15,7,4"
14700,commdev-image-keyboard-response,212,1033694,learnblock1,655.8000000000466,img/planet14_left.png,14,Community 2,NA,TRUE,f,f,NA,NA,NA,6,7,"3,1,2,10,5,13,9,6,14,12,11,8,15,7,4"
14700,commdev-image-keyboard-response,213,1034947,learnblock1,1007.2999999998137,img/planet13_left.png,13,Community 2,NA,FALSE,j,f,NA,NA,NA,6,7,"3,1,2,10,5,13,9,6,14,12,11,8,15,7,4"
14700,commdev-image-keyboard-response,214,1036200,learnblock1,1218,img/planet12_right.png,12,Community 2,NA,FALSE,f,j,NA,NA,NA,6,7,"3,1,2,10,5,13,9,6,14,12,11,8,15,7,4"
14700,commdev-image-keyboard-response,215,1037454,learnblock1,1127.1000000000931,img/planet13_left.png,13,Community 2,NA,TRUE,f,f,NA,NA,NA,6,7,"3,1,2,10,5,13,9,6,14,12,11,8,15,7,4"
14700,commdev-image-keyboard-response,216,1038707,learnblock1,778.3000000000466,img/planet12_left.png,12,Community 2,NA,TRUE,f,f,NA,NA,NA,6,7,"3,1,2,10,5,13,9,6,14,12,11,8,15,7,4"
14700,commdev-image-keyboard-response,217,1039960,learnblock1,647.6000000000931,img/planet6_right.png,6,Community 2,NA,TRUE,j,j,NA,NA,NA,6,7,"3,1,2,10,5,13,9,6,14,12,11,8,15,7,4"
14700,commdev-image-keyboard-response,218,1041213,learnblock1,731,img/planet12_right.png,12,Community 2,NA,TRUE,j,j,NA,NA,NA,6,7,"3,1,2,10,5,13,9,6,14,12,11,8,15,7,4"
14700,commdev-image-keyboard-response,219,1042468,learnblock1,816.0999999998603,img/planet13_left.png,13,Community 2,NA,TRUE,f,f,NA,NA,NA,6,7,"3,1,2,10,5,13,9,6,14,12,11,8,15,7,4"
14700,commdev-image-keyboard-response,220,1043721,learnblock1,835.8000000000466,img/planet9_left.png,9,Community 2,NA,TRUE,f,f,NA,NA,NA,6,7,"3,1,2,10,5,13,9,6,14,12,11,8,15,7,4"
14700,commdev-image-keyboard-response,221,1044974,learnblock1,653.1999999999534,img/planet13_left.png,13,Community 2,NA,FALSE,j,f,NA,NA,NA,6,7,"3,1,2,10,5,13,9,6,14,12,11,8,15,7,4"
14700,commdev-image-keyboard-response,222,1046227,learnblock1,882.6000000000931,img/planet14_right.png,14,Community 2,NA,TRUE,j,j,NA,NA,NA,6,7,"3,1,2,10,5,13,9,6,14,12,11,8,15,7,4"
14700,commdev-image-keyboard-response,223,1047480,learnblock1,770.2000000001863,img/planet9_right.png,9,Community 2,NA,TRUE,j,j,NA,NA,NA,6,7,"3,1,2,10,5,13,9,6,14,12,11,8,15,7,4"
14700,commdev-image-keyboard-response,224,1048733,learnblock1,982.5999999998603,img/planet6_right.png,6,Community 2,NA,FALSE,f,j,NA,NA,NA,6,7,"3,1,2,10,5,13,9,6,14,12,11,8,15,7,4"
14700,commdev-image-keyboard-response,225,1049987,learnblock1,null,img/planet8_left.png,8,Community 3,NA,FALSE,null,f,NA,NA,NA,6,7,"3,1,2,10,5,13,9,6,14,12,11,8,15,7,4"
14700,commdev-image-keyboard-response,226,1051240,learnblock1,141.70000000018626,img/planet4_left.png,4,Community 3,NA,TRUE,f,f,NA,NA,NA,6,7,"3,1,2,10,5,13,9,6,14,12,11,8,15,7,4"
14700,commdev-image-keyboard-response,227,1052493,learnblock1,766.6999999999534,img/planet15_right.png,15,Community 3,NA,TRUE,j,j,NA,NA,NA,6,7,"3,1,2,10,5,13,9,6,14,12,11,8,15,7,4"
14700,commdev-image-keyboard-response,228,1053746,learnblock1,775.5,img/planet7_right.png,7,Community 3,NA,TRUE,j,j,NA,NA,NA,6,7,"3,1,2,10,5,13,9,6,14,12,11,8,15,7,4"
14700,commdev-image-keyboard-response,229,1055000,learnblock1,null,img/planet11_right.png,11,Community 3,NA,FALSE,null,j,NA,NA,NA,6,7,"3,1,2,10,5,13,9,6,14,12,11,8,15,7,4"
14700,commdev-image-keyboard-response,230,1056252,learnblock1,11.199999999953434,img/planet7_right.png,7,Community 3,NA,FALSE,f,j,NA,NA,NA,6,7,"3,1,2,10,5,13,9,6,14,12,11,8,15,7,4"
14700,commdev-image-keyboard-response,231,1057506,learnblock1,45.699999999953434,img/planet8_left.png,8,Community 3,NA,TRUE,f,f,NA,NA,NA,6,7,"3,1,2,10,5,13,9,6,14,12,11,8,15,7,4"
14700,commdev-image-keyboard-response,232,1058760,learnblock1,595.7000000001863,img/planet4_right.png,4,Community 3,NA,TRUE,j,j,NA,NA,NA,6,7,"3,1,2,10,5,13,9,6,14,12,11,8,15,7,4"
14700,commdev-image-keyboard-response,233,1060013,learnblock1,720.8000000000466,img/planet8_right.png,8,Community 3,NA,TRUE,j,j,NA,NA,NA,6,7,"3,1,2,10,5,13,9,6,14,12,11,8,15,7,4"
14700,commdev-image-keyboard-response,234,1061266,learnblock1,670.5999999998603,img/planet4_left.png,4,Community 3,NA,TRUE,f,f,NA,NA,NA,6,7,"3,1,2,10,5,13,9,6,14,12,11,8,15,7,4"
14700,commdev-image-keyboard-response,235,1062520,learnblock1,870.1999999999534,img/planet7_left.png,7,Community 3,NA,FALSE,j,f,NA,NA,NA,6,7,"3,1,2,10,5,13,9,6,14,12,11,8,15,7,4"
14700,commdev-image-keyboard-response,236,1063773,learnblock1,908.1999999999534,img/planet8_right.png,8,Community 3,NA,TRUE,j,j,NA,NA,NA,6,7,"3,1,2,10,5,13,9,6,14,12,11,8,15,7,4"
14700,commdev-image-keyboard-response,237,1065026,learnblock1,1101,img/planet6_left.png,6,Community 2,NA,FALSE,j,f,NA,NA,NA,6,7,"3,1,2,10,5,13,9,6,14,12,11,8,15,7,4"
14700,commdev-image-keyboard-response,238,1066280,learnblock1,null,img/planet12_right.png,12,Community 2,NA,FALSE,null,j,NA,NA,NA,6,7,"3,1,2,10,5,13,9,6,14,12,11,8,15,7,4"
14700,commdev-image-keyboard-response,239,1067533,learnblock1,76.10000000009313,img/planet14_right.png,14,Community 2,NA,TRUE,j,j,NA,NA,NA,6,7,"3,1,2,10,5,13,9,6,14,12,11,8,15,7,4"
14700,commdev-image-keyboard-response,240,1068787,learnblock1,602.6999999999534,img/planet9_left.png,9,Community 2,NA,TRUE,f,f,NA,NA,NA,6,7,"3,1,2,10,5,13,9,6,14,12,11,8,15,7,4"
14700,commdev-image-keyboard-response,241,1070042,learnblock1,678.7999999998137,img/planet6_left.png,6,Community 2,NA,TRUE,f,f,NA,NA,NA,6,7,"3,1,2,10,5,13,9,6,14,12,11,8,15,7,4"
14700,commdev-image-keyboard-response,242,1071295,learnblock1,890.3000000000466,img/planet8_left.png,8,Community 3,NA,TRUE,f,f,NA,NA,NA,6,7,"3,1,2,10,5,13,9,6,14,12,11,8,15,7,4"
14700,commdev-image-keyboard-response,243,1072548,learnblock1,704.8000000000466,img/planet6_right.png,6,Community 2,NA,TRUE,j,j,NA,NA,NA,6,7,"3,1,2,10,5,13,9,6,14,12,11,8,15,7,4"
14700,commdev-image-keyboard-response,244,1073802,learnblock1,569.5,img/planet14_left.png,14,Community 2,NA,TRUE,f,f,NA,NA,NA,6,7,"3,1,2,10,5,13,9,6,14,12,11,8,15,7,4"
14700,commdev-image-keyboard-response,245,1075055,learnblock1,564.3999999999069,img/planet13_left.png,13,Community 2,NA,FALSE,j,f,NA,NA,NA,6,7,"3,1,2,10,5,13,9,6,14,12,11,8,15,7,4"
14700,commdev-image-keyboard-response,246,1076309,learnblock1,557.5,img/planet14_right.png,14,Community 2,NA,FALSE,f,j,NA,NA,NA,6,7,"3,1,2,10,5,13,9,6,14,12,11,8,15,7,4"
14700,commdev-image-keyboard-response,247,1077561,learnblock1,548.6999999999534,img/planet12_left.png,12,Community 2,NA,FALSE,j,f,NA,NA,NA,6,7,"3,1,2,10,5,13,9,6,14,12,11,8,15,7,4"
14700,commdev-image-keyboard-response,248,1078815,learnblock1,727.6000000000931,img/planet6_right.png,6,Community 2,NA,FALSE,f,j,NA,NA,NA,6,7,"3,1,2,10,5,13,9,6,14,12,11,8,15,7,4"
14700,commdev-image-keyboard-response,249,1080068,learnblock1,751.2000000001863,img/planet9_right.png,9,Community 2,NA,TRUE,j,j,NA,NA,NA,6,7,"3,1,2,10,5,13,9,6,14,12,11,8,15,7,4"
14700,commdev-image-keyboard-response,250,1081322,learnblock1,822.1000000000931,img/planet13_right.png,13,Community 2,NA,TRUE,j,j,NA,NA,NA,6,7,"3,1,2,10,5,13,9,6,14,12,11,8,15,7,4"
14700,commdev-image-keyboard-response,251,1082576,learnblock1,846.5,img/planet12_right.png,12,Community 2,NA,TRUE,j,j,NA,NA,NA,6,7,"3,1,2,10,5,13,9,6,14,12,11,8,15,7,4"
14700,commdev-image-keyboard-response,252,1083829,learnblock1,756.1999999999534,img/planet9_right.png,9,Community 2,NA,TRUE,j,j,NA,NA,NA,6,7,"3,1,2,10,5,13,9,6,14,12,11,8,15,7,4"
14700,commdev-image-keyboard-response,253,1085082,learnblock1,1000.6000000000931,img/planet12_right.png,12,Community 2,NA,TRUE,j,j,NA,NA,NA,6,7,"3,1,2,10,5,13,9,6,14,12,11,8,15,7,4"
14700,commdev-image-keyboard-response,254,1086335,learnblock1,null,img/planet14_right.png,14,Community 2,NA,FALSE,null,j,NA,NA,NA,6,7,"3,1,2,10,5,13,9,6,14,12,11,8,15,7,4"
14700,commdev-image-keyboard-response,255,1087588,learnblock1,127.39999999990687,img/planet9_right.png,9,Community 2,NA,TRUE,j,j,NA,NA,NA,6,7,"3,1,2,10,5,13,9,6,14,12,11,8,15,7,4"
14700,commdev-image-keyboard-response,256,1088841,learnblock1,96.39999999990687,img/planet6_right.png,6,Community 2,NA,FALSE,f,j,NA,NA,NA,6,7,"3,1,2,10,5,13,9,6,14,12,11,8,15,7,4"
14700,commdev-image-keyboard-response,257,1090095,learnblock1,1046.6000000000931,img/planet8_left.png,8,Community 3,NA,TRUE,f,f,NA,NA,NA,6,7,"3,1,2,10,5,13,9,6,14,12,11,8,15,7,4"
14700,commdev-image-keyboard-response,258,1091349,learnblock1,1189.1999999999534,img/planet15_right.png,15,Community 3,NA,TRUE,j,j,NA,NA,NA,6,7,"3,1,2,10,5,13,9,6,14,12,11,8,15,7,4"
14700,commdev-image-keyboard-response,259,1092603,learnblock1,1006.5,img/planet8_right.png,8,Community 3,NA,TRUE,j,j,NA,NA,NA,6,7,"3,1,2,10,5,13,9,6,14,12,11,8,15,7,4"
14700,commdev-image-keyboard-response,260,1093856,learnblock1,1001.8999999999069,img/planet4_right.png,4,Community 3,NA,TRUE,j,j,NA,NA,NA,6,7,"3,1,2,10,5,13,9,6,14,12,11,8,15,7,4"
14700,commdev-image-keyboard-response,261,1095110,learnblock1,752.6000000000931,img/planet11_left.png,11,Community 3,NA,TRUE,f,f,NA,NA,NA,6,7,"3,1,2,10,5,13,9,6,14,12,11,8,15,7,4"
14700,commdev-image-keyboard-response,262,1096365,learnblock1,742.7000000001863,img/planet5_left.png,5,Community 1,NA,TRUE,f,f,NA,NA,NA,6,7,"3,1,2,10,5,13,9,6,14,12,11,8,15,7,4"
14700,commdev-image-keyboard-response,263,1097618,learnblock1,662.3999999999069,img/planet2_left.png,2,Community 1,NA,TRUE,f,f,NA,NA,NA,6,7,"3,1,2,10,5,13,9,6,14,12,11,8,15,7,4"
14700,commdev-image-keyboard-response,264,1098871,learnblock1,703.6999999999534,img/planet5_left.png,5,Community 1,NA,TRUE,f,f,NA,NA,NA,6,7,"3,1,2,10,5,13,9,6,14,12,11,8,15,7,4"
14700,commdev-image-keyboard-response,265,1100124,learnblock1,704.6999999999534,img/planet11_right.png,11,Community 3,NA,TRUE,j,j,NA,NA,NA,6,7,"3,1,2,10,5,13,9,6,14,12,11,8,15,7,4"
14700,commdev-image-keyboard-response,266,1101378,learnblock1,567.2999999998137,img/planet7_left.png,7,Community 3,NA,FALSE,j,f,NA,NA,NA,6,7,"3,1,2,10,5,13,9,6,14,12,11,8,15,7,4"
14700,commdev-image-keyboard-response,267,1102632,learnblock1,1017,img/planet15_left.png,15,Community 3,NA,TRUE,f,f,NA,NA,NA,6,7,"3,1,2,10,5,13,9,6,14,12,11,8,15,7,4"
14700,commdev-image-keyboard-response,268,1103885,learnblock1,949.9000000001397,img/planet8_right.png,8,Community 3,NA,FALSE,f,j,NA,NA,NA,6,7,"3,1,2,10,5,13,9,6,14,12,11,8,15,7,4"
14700,commdev-image-keyboard-response,269,1105139,learnblock1,1029.8000000000466,img/planet6_right.png,6,Community 2,NA,FALSE,f,j,NA,NA,NA,6,7,"3,1,2,10,5,13,9,6,14,12,11,8,15,7,4"
14700,commdev-image-keyboard-response,270,1106393,learnblock1,1057.8000000000466,img/planet8_left.png,8,Community 3,NA,FALSE,j,f,NA,NA,NA,6,7,"3,1,2,10,5,13,9,6,14,12,11,8,15,7,4"
14700,commdev-image-keyboard-response,271,1107646,learnblock1,null,img/planet6_left.png,6,Community 2,NA,FALSE,null,f,NA,NA,NA,6,7,"3,1,2,10,5,13,9,6,14,12,11,8,15,7,4"
14700,commdev-image-keyboard-response,272,1108899,learnblock1,45.9000000001397,img/planet12_right.png,12,Community 2,NA,FALSE,f,j,NA,NA,NA,6,7,"3,1,2,10,5,13,9,6,14,12,11,8,15,7,4"
14700,commdev-image-keyboard-response,273,1110152,learnblock1,null,img/planet14_left.png,14,Community 2,NA,FALSE,null,f,NA,NA,NA,6,7,"3,1,2,10,5,13,9,6,14,12,11,8,15,7,4"
14700,commdev-image-keyboard-response,274,1111406,learnblock1,448,img/planet6_right.png,6,Community 2,NA,FALSE,f,j,NA,NA,NA,6,7,"3,1,2,10,5,13,9,6,14,12,11,8,15,7,4"
14700,commdev-image-keyboard-response,275,1112661,learnblock1,384.80000000004657,img/planet12_left.png,12,Community 2,NA,FALSE,j,f,NA,NA,NA,6,7,"3,1,2,10,5,13,9,6,14,12,11,8,15,7,4"
14700,commdev-image-keyboard-response,276,1113914,learnblock1,725.7999999998137,img/planet9_right.png,9,Community 2,NA,FALSE,f,j,NA,NA,NA,6,7,"3,1,2,10,5,13,9,6,14,12,11,8,15,7,4"
14700,commdev-image-keyboard-response,277,1115167,learnblock1,null,img/planet14_right.png,14,Community 2,NA,FALSE,null,j,NA,NA,NA,6,7,"3,1,2,10,5,13,9,6,14,12,11,8,15,7,4"
14700,commdev-image-keyboard-response,278,1116421,learnblock1,432.5,img/planet13_left.png,13,Community 2,NA,FALSE,j,f,NA,NA,NA,6,7,"3,1,2,10,5,13,9,6,14,12,11,8,15,7,4"
14700,commdev-image-keyboard-response,279,1117673,learnblock1,622.6000000000931,img/planet14_right.png,14,Community 2,NA,FALSE,f,j,NA,NA,NA,6,7,"3,1,2,10,5,13,9,6,14,12,11,8,15,7,4"
14700,commdev-image-keyboard-response,280,1118927,learnblock1,950.1000000000931,img/planet13_right.png,13,Community 2,NA,TRUE,j,j,NA,NA,NA,6,7,"3,1,2,10,5,13,9,6,14,12,11,8,15,7,4"
14700,commdev-image-keyboard-response,281,1120180,learnblock1,969.3999999999069,img/planet14_left.png,14,Community 2,NA,FALSE,j,f,NA,NA,NA,6,7,"3,1,2,10,5,13,9,6,14,12,11,8,15,7,4"
14700,commdev-image-keyboard-response,282,1121434,learnblock1,572.1000000000931,img/planet9_right.png,9,Community 2,NA,TRUE,j,j,NA,NA,NA,6,7,"3,1,2,10,5,13,9,6,14,12,11,8,15,7,4"
14700,commdev-image-keyboard-response,283,1122687,learnblock1,742.9000000001397,img/planet14_right.png,14,Community 2,NA,TRUE,j,j,NA,NA,NA,6,7,"3,1,2,10,5,13,9,6,14,12,11,8,15,7,4"
14700,commdev-image-keyboard-response,284,1123941,learnblock1,1077.2000000001863,img/planet13_right.png,13,Community 2,NA,TRUE,j,j,NA,NA,NA,6,7,"3,1,2,10,5,13,9,6,14,12,11,8,15,7,4"
14700,commdev-image-keyboard-response,285,1125194,learnblock1,978.6000000000931,img/planet10_left.png,10,Community 1,NA,TRUE,f,f,NA,NA,NA,6,7,"3,1,2,10,5,13,9,6,14,12,11,8,15,7,4"
14700,commdev-image-keyboard-response,286,1126448,learnblock1,1107.6000000000931,img/planet13_left.png,13,Community 2,NA,TRUE,f,f,NA,NA,NA,6,7,"3,1,2,10,5,13,9,6,14,12,11,8,15,7,4"
14700,commdev-image-keyboard-response,287,1127702,learnblock1,1055.1000000000931,img/planet14_left.png,14,Community 2,NA,TRUE,f,f,NA,NA,NA,6,7,"3,1,2,10,5,13,9,6,14,12,11,8,15,7,4"
14700,commdev-image-keyboard-response,288,1128955,learnblock1,996.6000000000931,img/planet6_right.png,6,Community 2,NA,TRUE,j,j,NA,NA,NA,6,7,"3,1,2,10,5,13,9,6,14,12,11,8,15,7,4"
14700,commdev-image-keyboard-response,289,1130209,learnblock1,1222.8999999999069,img/planet12_right.png,12,Community 2,NA,TRUE,j,j,NA,NA,NA,6,7,"3,1,2,10,5,13,9,6,14,12,11,8,15,7,4"
14700,commdev-image-keyboard-response,290,1131462,learnblock1,null,img/planet9_right.png,9,Community 2,NA,FALSE,null,j,NA,NA,NA,6,7,"3,1,2,10,5,13,9,6,14,12,11,8,15,7,4"
14700,commdev-image-keyboard-response,291,1132716,learnblock1,95,img/planet14_left.png,14,Community 2,NA,FALSE,j,f,NA,NA,NA,6,7,"3,1,2,10,5,13,9,6,14,12,11,8,15,7,4"
14700,commdev-image-keyboard-response,292,1133969,learnblock1,714,img/planet12_left.png,12,Community 2,NA,FALSE,j,f,NA,NA,NA,6,7,"3,1,2,10,5,13,9,6,14,12,11,8,15,7,4"
14700,commdev-image-keyboard-response,293,1135223,learnblock1,984.6000000000931,img/planet6_right.png,6,Community 2,NA,TRUE,j,j,NA,NA,NA,6,7,"3,1,2,10,5,13,9,6,14,12,11,8,15,7,4"
14700,commdev-image-keyboard-response,294,1136476,learnblock1,933.5999999998603,img/planet8_left.png,8,Community 3,NA,TRUE,f,f,NA,NA,NA,6,7,"3,1,2,10,5,13,9,6,14,12,11,8,15,7,4"
14700,commdev-image-keyboard-response,295,1137730,learnblock1,879.6000000000931,img/planet4_right.png,4,Community 3,NA,TRUE,j,j,NA,NA,NA,6,7,"3,1,2,10,5,13,9,6,14,12,11,8,15,7,4"
14700,commdev-image-keyboard-response,296,1138983,learnblock1,null,img/planet15_right.png,15,Community 3,NA,FALSE,null,j,NA,NA,NA,6,7,"3,1,2,10,5,13,9,6,14,12,11,8,15,7,4"
14700,commdev-image-keyboard-response,297,1140236,learnblock1,84.9000000001397,img/planet8_left.png,8,Community 3,NA,TRUE,f,f,NA,NA,NA,6,7,"3,1,2,10,5,13,9,6,14,12,11,8,15,7,4"
14700,commdev-image-keyboard-response,298,1141491,learnblock1,902.6999999999534,img/planet6_left.png,6,Community 2,NA,FALSE,j,f,NA,NA,NA,6,7,"3,1,2,10,5,13,9,6,14,12,11,8,15,7,4"
14700,commdev-image-keyboard-response,299,1142744,learnblock1,null,img/planet12_left.png,12,Community 2,NA,FALSE,null,f,NA,NA,NA,6,7,"3,1,2,10,5,13,9,6,14,12,11,8,15,7,4"
14700,commdev-image-keyboard-response,300,1143998,learnblock1,331.30000000004657,img/planet6_right.png,6,Community 2,NA,FALSE,f,j,NA,NA,NA,6,7,"3,1,2,10,5,13,9,6,14,12,11,8,15,7,4"
14700,commdev-image-keyboard-response,301,1145250,learnblock1,null,img/planet9_right.png,9,Community 2,NA,FALSE,null,j,NA,NA,NA,6,7,"3,1,2,10,5,13,9,6,14,12,11,8,15,7,4"
14700,commdev-image-keyboard-response,302,1146503,learnblock1,651.5,img/planet13_right.png,13,Community 2,NA,TRUE,j,j,NA,NA,NA,6,7,"3,1,2,10,5,13,9,6,14,12,11,8,15,7,4"
14700,commdev-image-keyboard-response,303,1147756,learnblock1,362.69999999995343,img/planet9_left.png,9,Community 2,NA,FALSE,j,f,NA,NA,NA,6,7,"3,1,2,10,5,13,9,6,14,12,11,8,15,7,4"
14700,commdev-image-keyboard-response,304,1149008,learnblock1,null,img/planet14_right.png,14,Community 2,NA,FALSE,null,j,NA,NA,NA,6,7,"3,1,2,10,5,13,9,6,14,12,11,8,15,7,4"
14700,commdev-image-keyboard-response,305,1150262,learnblock1,104.5,img/planet12_right.png,12,Community 2,NA,TRUE,j,j,NA,NA,NA,6,7,"3,1,2,10,5,13,9,6,14,12,11,8,15,7,4"
14700,commdev-image-keyboard-response,306,1151515,learnblock1,800.6000000000931,img/planet14_right.png,14,Community 2,NA,TRUE,j,j,NA,NA,NA,6,7,"3,1,2,10,5,13,9,6,14,12,11,8,15,7,4"
14700,commdev-image-keyboard-response,307,1152769,learnblock1,931.5,img/planet13_right.png,13,Community 2,NA,TRUE,j,j,NA,NA,NA,6,7,"3,1,2,10,5,13,9,6,14,12,11,8,15,7,4"
14700,commdev-image-keyboard-response,308,1154022,learnblock1,867.6999999999534,img/planet10_left.png,10,Community 1,NA,TRUE,f,f,NA,NA,NA,6,7,"3,1,2,10,5,13,9,6,14,12,11,8,15,7,4"
14700,commdev-image-keyboard-response,309,1155276,learnblock1,1020.5,img/planet1_left.png,1,Community 1,NA,TRUE,f,f,NA,NA,NA,6,7,"3,1,2,10,5,13,9,6,14,12,11,8,15,7,4"
14700,commdev-image-keyboard-response,310,1156530,learnblock1,1046.5,img/planet2_right.png,2,Community 1,NA,TRUE,j,j,NA,NA,NA,6,7,"3,1,2,10,5,13,9,6,14,12,11,8,15,7,4"
14700,commdev-image-keyboard-response,311,1157783,learnblock1,1222.1999999999534,img/planet3_right.png,3,Community 1,NA,TRUE,j,j,NA,NA,NA,6,7,"3,1,2,10,5,13,9,6,14,12,11,8,15,7,4"
14700,commdev-image-keyboard-response,312,1159037,learnblock1,null,img/planet10_left.png,10,Community 1,NA,FALSE,null,f,NA,NA,NA,6,7,"3,1,2,10,5,13,9,6,14,12,11,8,15,7,4"
14700,commdev-image-keyboard-response,313,1160291,learnblock1,202.4000000001397,img/planet1_left.png,1,Community 1,NA,FALSE,j,f,NA,NA,NA,6,7,"3,1,2,10,5,13,9,6,14,12,11,8,15,7,4"
14700,commdev-image-keyboard-response,314,1161544,learnblock1,101.89999999990687,img/planet3_left.png,3,Community 1,NA,FALSE,j,f,NA,NA,NA,6,7,"3,1,2,10,5,13,9,6,14,12,11,8,15,7,4"
14700,commdev-image-keyboard-response,315,1162797,learnblock1,73.60000000009313,img/planet1_left.png,1,Community 1,NA,TRUE,f,f,NA,NA,NA,6,7,"3,1,2,10,5,13,9,6,14,12,11,8,15,7,4"
14700,commdev-image-keyboard-response,316,1164051,learnblock1,649.8000000000466,img/planet2_right.png,2,Community 1,NA,FALSE,f,j,NA,NA,NA,6,7,"3,1,2,10,5,13,9,6,14,12,11,8,15,7,4"
14700,commdev-image-keyboard-response,317,1165304,learnblock1,1120.1000000000931,img/planet3_left.png,3,Community 1,NA,FALSE,j,f,NA,NA,NA,6,7,"3,1,2,10,5,13,9,6,14,12,11,8,15,7,4"
14700,commdev-image-keyboard-response,318,1166557,learnblock1,974.4000000001397,img/planet5_right.png,5,Community 1,NA,FALSE,f,j,NA,NA,NA,6,7,"3,1,2,10,5,13,9,6,14,12,11,8,15,7,4"
14700,commdev-image-keyboard-response,319,1167812,learnblock1,981.3999999999069,img/planet1_left.png,1,Community 1,NA,TRUE,f,f,NA,NA,NA,6,7,"3,1,2,10,5,13,9,6,14,12,11,8,15,7,4"
14700,commdev-image-keyboard-response,320,1169066,learnblock1,731,img/planet3_left.png,3,Community 1,NA,TRUE,f,f,NA,NA,NA,6,7,"3,1,2,10,5,13,9,6,14,12,11,8,15,7,4"
14700,commdev-image-keyboard-response,321,1170319,learnblock1,696.3999999999069,img/planet1_left.png,1,Community 1,NA,TRUE,f,f,NA,NA,NA,6,7,"3,1,2,10,5,13,9,6,14,12,11,8,15,7,4"
14700,commdev-image-keyboard-response,322,1171572,learnblock1,723.7000000001863,img/planet2_left.png,2,Community 1,NA,TRUE,f,f,NA,NA,NA,6,7,"3,1,2,10,5,13,9,6,14,12,11,8,15,7,4"
14700,commdev-image-keyboard-response,323,1172825,learnblock1,1185.1000000000931,img/planet1_left.png,1,Community 1,NA,TRUE,f,f,NA,NA,NA,6,7,"3,1,2,10,5,13,9,6,14,12,11,8,15,7,4"
14700,commdev-image-keyboard-response,324,1174079,learnblock1,163.69999999995343,img/planet3_right.png,3,Community 1,NA,FALSE,f,j,NA,NA,NA,6,7,"3,1,2,10,5,13,9,6,14,12,11,8,15,7,4"
14700,commdev-image-keyboard-response,325,1175333,learnblock1,941.4000000001397,img/planet5_right.png,5,Community 1,NA,TRUE,j,j,NA,NA,NA,6,7,"3,1,2,10,5,13,9,6,14,12,11,8,15,7,4"
14700,commdev-image-keyboard-response,326,1176586,learnblock1,1193.0999999998603,img/planet3_left.png,3,Community 1,NA,FALSE,j,f,NA,NA,NA,6,7,"3,1,2,10,5,13,9,6,14,12,11,8,15,7,4"
14700,commdev-image-keyboard-response,327,1177839,learnblock1,1237.1000000000931,img/planet2_left.png,2,Community 1,NA,FALSE,j,f,NA,NA,NA,6,7,"3,1,2,10,5,13,9,6,14,12,11,8,15,7,4"
14700,commdev-image-keyboard-response,328,1179093,learnblock1,null,img/planet1_left.png,1,Community 1,NA,FALSE,null,f,NA,NA,NA,6,7,"3,1,2,10,5,13,9,6,14,12,11,8,15,7,4"
14700,commdev-image-keyboard-response,329,1180346,learnblock1,412.9000000001397,img/planet3_left.png,3,Community 1,NA,TRUE,f,f,NA,NA,NA,6,7,"3,1,2,10,5,13,9,6,14,12,11,8,15,7,4"
14700,commdev-image-keyboard-response,330,1181599,learnblock1,394.5,img/planet1_left.png,1,Community 1,NA,TRUE,f,f,NA,NA,NA,6,7,"3,1,2,10,5,13,9,6,14,12,11,8,15,7,4"
14700,commdev-image-keyboard-response,331,1182853,learnblock1,781.7000000001863,img/planet10_left.png,10,Community 1,NA,TRUE,f,f,NA,NA,NA,6,7,"3,1,2,10,5,13,9,6,14,12,11,8,15,7,4"
14700,commdev-image-keyboard-response,332,1184106,learnblock1,null,img/planet3_right.png,3,Community 1,NA,FALSE,null,j,NA,NA,NA,6,7,"3,1,2,10,5,13,9,6,14,12,11,8,15,7,4"
14700,commdev-image-keyboard-response,333,1185360,learnblock1,849,img/planet2_left.png,2,Community 1,NA,TRUE,f,f,NA,NA,NA,6,7,"3,1,2,10,5,13,9,6,14,12,11,8,15,7,4"
14700,commdev-image-keyboard-response,334,1186613,learnblock1,931.4000000001397,img/planet3_left.png,3,Community 1,NA,TRUE,f,f,NA,NA,NA,6,7,"3,1,2,10,5,13,9,6,14,12,11,8,15,7,4"
14700,commdev-image-keyboard-response,335,1187867,learnblock1,704.1999999999534,img/planet5_right.png,5,Community 1,NA,FALSE,f,j,NA,NA,NA,6,7,"3,1,2,10,5,13,9,6,14,12,11,8,15,7,4"
14700,commdev-image-keyboard-response,336,1189119,learnblock1,null,img/planet2_right.png,2,Community 1,NA,FALSE,null,j,NA,NA,NA,6,7,"3,1,2,10,5,13,9,6,14,12,11,8,15,7,4"
14700,commdev-image-keyboard-response,337,1190374,learnblock1,968.5,img/planet10_left.png,10,Community 1,NA,TRUE,f,f,NA,NA,NA,6,7,"3,1,2,10,5,13,9,6,14,12,11,8,15,7,4"
14700,commdev-image-keyboard-response,338,1191627,learnblock1,909.8999999999069,img/planet1_left.png,1,Community 1,NA,FALSE,j,f,NA,NA,NA,6,7,"3,1,2,10,5,13,9,6,14,12,11,8,15,7,4"
14700,commdev-image-keyboard-response,339,1192881,learnblock1,781.5999999998603,img/planet5_left.png,5,Community 1,NA,TRUE,f,f,NA,NA,NA,6,7,"3,1,2,10,5,13,9,6,14,12,11,8,15,7,4"
14700,commdev-image-keyboard-response,340,1194134,learnblock1,1052.8000000000466,img/planet1_right.png,1,Community 1,NA,FALSE,f,j,NA,NA,NA,6,7,"3,1,2,10,5,13,9,6,14,12,11,8,15,7,4"
14700,commdev-image-keyboard-response,341,1195387,learnblock1,670.1999999999534,img/planet10_right.png,10,Community 1,NA,TRUE,j,j,NA,NA,NA,6,7,"3,1,2,10,5,13,9,6,14,12,11,8,15,7,4"
14700,commdev-image-keyboard-response,342,1196640,learnblock1,816.3000000000466,img/planet1_left.png,1,Community 1,NA,TRUE,f,f,NA,NA,NA,6,7,"3,1,2,10,5,13,9,6,14,12,11,8,15,7,4"
14700,commdev-image-keyboard-response,343,1197894,learnblock1,1094.5,img/planet10_left.png,10,Community 1,NA,FALSE,j,f,NA,NA,NA,6,7,"3,1,2,10,5,13,9,6,14,12,11,8,15,7,4"
14700,commdev-image-keyboard-response,344,1199147,learnblock1,null,img/planet13_right.png,13,Community 2,NA,FALSE,null,j,NA,NA,NA,6,7,"3,1,2,10,5,13,9,6,14,12,11,8,15,7,4"
14700,commdev-image-keyboard-response,345,1200400,learnblock1,8,img/planet10_right.png,10,Community 1,NA,TRUE,j,j,NA,NA,NA,6,7,"3,1,2,10,5,13,9,6,14,12,11,8,15,7,4"
14700,commdev-image-keyboard-response,346,1201654,learnblock1,1190.1000000000931,img/planet2_left.png,2,Community 1,NA,TRUE,f,f,NA,NA,NA,6,7,"3,1,2,10,5,13,9,6,14,12,11,8,15,7,4"
14700,commdev-image-keyboard-response,347,1202908,learnblock1,null,img/planet5_left.png,5,Community 1,NA,FALSE,null,f,NA,NA,NA,6,7,"3,1,2,10,5,13,9,6,14,12,11,8,15,7,4"
14700,commdev-image-keyboard-response,348,1204162,learnblock1,23.899999999906868,img/planet1_left.png,1,Community 1,NA,FALSE,j,f,NA,NA,NA,6,7,"3,1,2,10,5,13,9,6,14,12,11,8,15,7,4"
14700,commdev-image-keyboard-response,349,1205415,learnblock1,111,img/planet5_left.png,5,Community 1,NA,FALSE,j,f,NA,NA,NA,6,7,"3,1,2,10,5,13,9,6,14,12,11,8,15,7,4"
14700,commdev-image-keyboard-response,350,1206669,learnblock1,872.3000000000466,img/planet3_left.png,3,Community 1,NA,TRUE,f,f,NA,NA,NA,6,7,"3,1,2,10,5,13,9,6,14,12,11,8,15,7,4"
14700,commdev-image-keyboard-response,351,1207923,learnblock1,null,img/planet1_left.png,1,Community 1,NA,FALSE,null,f,NA,NA,NA,6,7,"3,1,2,10,5,13,9,6,14,12,11,8,15,7,4"
14700,commdev-image-keyboard-response,352,1209175,learnblock1,null,img/planet10_right.png,10,Community 1,NA,FALSE,null,j,NA,NA,NA,6,7,"3,1,2,10,5,13,9,6,14,12,11,8,15,7,4"
14700,commdev-image-keyboard-response,353,1210429,learnblock1,null,img/planet13_right.png,13,Community 2,NA,FALSE,null,j,NA,NA,NA,6,7,"3,1,2,10,5,13,9,6,14,12,11,8,15,7,4"
14700,commdev-image-keyboard-response,354,1211682,learnblock1,68.80000000004657,img/planet12_left.png,12,Community 2,NA,FALSE,j,f,NA,NA,NA,6,7,"3,1,2,10,5,13,9,6,14,12,11,8,15,7,4"
14700,commdev-image-keyboard-response,355,1212935,learnblock1,131.69999999995343,img/planet13_right.png,13,Community 2,NA,TRUE,j,j,NA,NA,NA,6,7,"3,1,2,10,5,13,9,6,14,12,11,8,15,7,4"
14700,commdev-image-keyboard-response,356,1214188,learnblock1,199.80000000004657,img/planet9_right.png,9,Community 2,NA,TRUE,j,j,NA,NA,NA,6,7,"3,1,2,10,5,13,9,6,14,12,11,8,15,7,4"
14700,commdev-image-keyboard-response,357,1215441,learnblock1,908,img/planet14_right.png,14,Community 2,NA,FALSE,f,j,NA,NA,NA,6,7,"3,1,2,10,5,13,9,6,14,12,11,8,15,7,4"
14700,commdev-image-keyboard-response,358,1216694,learnblock1,798.1999999999534,img/planet13_right.png,13,Community 2,NA,TRUE,j,j,NA,NA,NA,6,7,"3,1,2,10,5,13,9,6,14,12,11,8,15,7,4"
14700,commdev-image-keyboard-response,359,1217948,learnblock1,1144.5,img/planet14_right.png,14,Community 2,NA,FALSE,f,j,NA,NA,NA,6,7,"3,1,2,10,5,13,9,6,14,12,11,8,15,7,4"
14700,commdev-image-keyboard-response,360,1219201,learnblock1,1132.1000000000931,img/planet6_right.png,6,Community 2,NA,TRUE,j,j,NA,NA,NA,6,7,"3,1,2,10,5,13,9,6,14,12,11,8,15,7,4"
14700,commdev-image-keyboard-response,361,1220455,learnblock1,1118,img/planet14_right.png,14,Community 2,NA,TRUE,j,j,NA,NA,NA,6,7,"3,1,2,10,5,13,9,6,14,12,11,8,15,7,4"
14700,commdev-image-keyboard-response,362,1221709,learnblock1,1204.6000000000931,img/planet6_right.png,6,Community 2,NA,TRUE,j,j,NA,NA,NA,6,7,"3,1,2,10,5,13,9,6,14,12,11,8,15,7,4"
14700,commdev-image-keyboard-response,363,1222964,learnblock1,1146.0999999998603,img/planet8_left.png,8,Community 3,NA,TRUE,f,f,NA,NA,NA,6,7,"3,1,2,10,5,13,9,6,14,12,11,8,15,7,4"
14700,commdev-image-keyboard-response,364,1224217,learnblock1,null,img/planet6_left.png,6,Community 2,NA,FALSE,null,f,NA,NA,NA,6,7,"3,1,2,10,5,13,9,6,14,12,11,8,15,7,4"
14700,commdev-image-keyboard-response,365,1225470,learnblock1,12.600000000093132,img/planet12_right.png,12,Community 2,NA,TRUE,j,j,NA,NA,NA,6,7,"3,1,2,10,5,13,9,6,14,12,11,8,15,7,4"
14700,commdev-image-keyboard-response,366,1226724,learnblock1,990.3999999999069,img/planet14_right.png,14,Community 2,NA,TRUE,j,j,NA,NA,NA,6,7,"3,1,2,10,5,13,9,6,14,12,11,8,15,7,4"
14700,commdev-image-keyboard-response,367,1227977,learnblock1,1057,img/planet6_right.png,6,Community 2,NA,TRUE,j,j,NA,NA,NA,6,7,"3,1,2,10,5,13,9,6,14,12,11,8,15,7,4"
14700,commdev-image-keyboard-response,368,1229230,learnblock1,940.6000000000931,img/planet12_right.png,12,Community 2,NA,TRUE,j,j,NA,NA,NA,6,7,"3,1,2,10,5,13,9,6,14,12,11,8,15,7,4"
14700,commdev-image-keyboard-response,369,1230485,learnblock1,1049.1000000000931,img/planet9_right.png,9,Community 2,NA,TRUE,j,j,NA,NA,NA,6,7,"3,1,2,10,5,13,9,6,14,12,11,8,15,7,4"
14700,commdev-image-keyboard-response,370,1231738,learnblock1,931.0999999998603,img/planet14_right.png,14,Community 2,NA,TRUE,j,j,NA,NA,NA,6,7,"3,1,2,10,5,13,9,6,14,12,11,8,15,7,4"
14700,commdev-image-keyboard-response,371,1232991,learnblock1,875.5999999998603,img/planet6_right.png,6,Community 2,NA,TRUE,j,j,NA,NA,NA,6,7,"3,1,2,10,5,13,9,6,14,12,11,8,15,7,4"
14700,commdev-image-keyboard-response,372,1234245,learnblock1,1080.5,img/planet8_right.png,8,Community 3,NA,TRUE,j,j,NA,NA,NA,6,7,"3,1,2,10,5,13,9,6,14,12,11,8,15,7,4"
14700,commdev-image-keyboard-response,373,1235498,learnblock1,1130.8999999999069,img/planet7_right.png,7,Community 3,NA,TRUE,j,j,NA,NA,NA,6,7,"3,1,2,10,5,13,9,6,14,12,11,8,15,7,4"
14700,commdev-image-keyboard-response,374,1236750,learnblock1,null,img/planet8_right.png,8,Community 3,NA,FALSE,null,j,NA,NA,NA,6,7,"3,1,2,10,5,13,9,6,14,12,11,8,15,7,4"
14700,commdev-image-keyboard-response,375,1238004,learnblock1,376.39999999990687,img/planet7_right.png,7,Community 3,NA,TRUE,j,j,NA,NA,NA,6,7,"3,1,2,10,5,13,9,6,14,12,11,8,15,7,4"
14700,commdev-image-keyboard-response,376,1239257,learnblock1,1043.3000000000466,img/planet11_left.png,11,Community 3,NA,TRUE,f,f,NA,NA,NA,6,7,"3,1,2,10,5,13,9,6,14,12,11,8,15,7,4"
14700,commdev-image-keyboard-response,377,1240511,learnblock1,907.6000000000931,img/planet5_right.png,5,Community 1,NA,TRUE,j,j,NA,NA,NA,6,7,"3,1,2,10,5,13,9,6,14,12,11,8,15,7,4"
14700,commdev-image-keyboard-response,378,1241764,learnblock1,906,img/planet2_right.png,2,Community 1,NA,TRUE,j,j,NA,NA,NA,6,7,"3,1,2,10,5,13,9,6,14,12,11,8,15,7,4"
14700,commdev-image-keyboard-response,379,1243018,learnblock1,1010.3000000000466,img/planet1_left.png,1,Community 1,NA,FALSE,j,f,NA,NA,NA,6,7,"3,1,2,10,5,13,9,6,14,12,11,8,15,7,4"
14700,commdev-image-keyboard-response,380,1244271,learnblock1,null,img/planet3_left.png,3,Community 1,NA,FALSE,null,f,NA,NA,NA,6,7,"3,1,2,10,5,13,9,6,14,12,11,8,15,7,4"
14700,commdev-image-keyboard-response,381,1245525,learnblock1,59.60000000009313,img/planet10_right.png,10,Community 1,NA,FALSE,f,j,NA,NA,NA,6,7,"3,1,2,10,5,13,9,6,14,12,11,8,15,7,4"
14700,commdev-image-keyboard-response,382,1246778,learnblock1,93.10000000009313,img/planet2_left.png,2,Community 1,NA,TRUE,f,f,NA,NA,NA,6,7,"3,1,2,10,5,13,9,6,14,12,11,8,15,7,4"
14700,commdev-image-keyboard-response,383,1248031,learnblock1,964.0999999998603,img/planet10_right.png,10,Community 1,NA,FALSE,f,j,NA,NA,NA,6,7,"3,1,2,10,5,13,9,6,14,12,11,8,15,7,4"
14700,commdev-image-keyboard-response,384,1249284,learnblock1,118,img/planet1_right.png,1,Community 1,NA,TRUE,j,j,NA,NA,NA,6,7,"3,1,2,10,5,13,9,6,14,12,11,8,15,7,4"
14700,commdev-image-keyboard-response,385,1250537,learnblock1,761.1999999999534,img/planet2_right.png,2,Community 1,NA,FALSE,f,j,NA,NA,NA,6,7,"3,1,2,10,5,13,9,6,14,12,11,8,15,7,4"
14700,commdev-image-keyboard-response,386,1251790,learnblock1,null,img/planet3_left.png,3,Community 1,NA,FALSE,null,f,NA,NA,NA,6,7,"3,1,2,10,5,13,9,6,14,12,11,8,15,7,4"
14700,commdev-image-keyboard-response,387,1253043,learnblock1,90.30000000004657,img/planet5_left.png,5,Community 1,NA,FALSE,j,f,NA,NA,NA,6,7,"3,1,2,10,5,13,9,6,14,12,11,8,15,7,4"
14700,commdev-image-keyboard-response,388,1254297,learnblock1,366.19999999995343,img/planet2_right.png,2,Community 1,NA,FALSE,f,j,NA,NA,NA,6,7,"3,1,2,10,5,13,9,6,14,12,11,8,15,7,4"
14700,commdev-image-keyboard-response,389,1255550,learnblock1,784.8000000000466,img/planet5_right.png,5,Community 1,NA,FALSE,f,j,NA,NA,NA,6,7,"3,1,2,10,5,13,9,6,14,12,11,8,15,7,4"
14700,commdev-image-keyboard-response,390,1256803,learnblock1,1051,img/planet1_right.png,1,Community 1,NA,TRUE,j,j,NA,NA,NA,6,7,"3,1,2,10,5,13,9,6,14,12,11,8,15,7,4"
14700,commdev-image-keyboard-response,391,1258056,learnblock1,null,img/planet10_right.png,10,Community 1,NA,FALSE,null,j,NA,NA,NA,6,7,"3,1,2,10,5,13,9,6,14,12,11,8,15,7,4"
14700,commdev-image-keyboard-response,392,1259309,learnblock1,154.69999999995343,img/planet13_left.png,13,Community 2,NA,FALSE,j,f,NA,NA,NA,6,7,"3,1,2,10,5,13,9,6,14,12,11,8,15,7,4"
14700,commdev-image-keyboard-response,393,1260562,learnblock1,709.5,img/planet10_left.png,10,Community 1,NA,FALSE,j,f,NA,NA,NA,6,7,"3,1,2,10,5,13,9,6,14,12,11,8,15,7,4"
14700,commdev-image-keyboard-response,394,1261815,learnblock1,1031.5999999998603,img/planet13_right.png,13,Community 2,NA,TRUE,j,j,NA,NA,NA,6,7,"3,1,2,10,5,13,9,6,14,12,11,8,15,7,4"
14700,commdev-image-keyboard-response,395,1263070,learnblock1,null,img/planet12_right.png,12,Community 2,NA,FALSE,null,j,NA,NA,NA,6,7,"3,1,2,10,5,13,9,6,14,12,11,8,15,7,4"
14700,commdev-image-keyboard-response,396,1264323,learnblock1,16.899999999906868,img/planet13_left.png,13,Community 2,NA,FALSE,j,f,NA,NA,NA,6,7,"3,1,2,10,5,13,9,6,14,12,11,8,15,7,4"
14700,commdev-image-keyboard-response,397,1265576,learnblock1,1104.3000000000466,img/planet14_left.png,14,Community 2,NA,TRUE,f,f,NA,NA,NA,6,7,"3,1,2,10,5,13,9,6,14,12,11,8,15,7,4"
14700,commdev-image-keyboard-response,398,1266830,learnblock1,873.8000000000466,img/planet9_left.png,9,Community 2,NA,TRUE,f,f,NA,NA,NA,6,7,"3,1,2,10,5,13,9,6,14,12,11,8,15,7,4"
14700,commdev-image-keyboard-response,399,1268083,learnblock1,1110.0999999998603,img/planet13_left.png,13,Community 2,NA,TRUE,f,f,NA,NA,NA,6,7,"3,1,2,10,5,13,9,6,14,12,11,8,15,7,4"
14700,commdev-image-keyboard-response,400,1269337,learnblock1,1210.2000000001863,img/planet14_right.png,14,Community 2,NA,TRUE,j,j,NA,NA,NA,6,7,"3,1,2,10,5,13,9,6,14,12,11,8,15,7,4"
14700,commdev-image-keyboard-response,401,1270590,learnblock1,null,img/planet6_left.png,6,Community 2,NA,FALSE,null,f,NA,NA,NA,6,7,"3,1,2,10,5,13,9,6,14,12,11,8,15,7,4"
14700,commdev-image-keyboard-response,402,1271843,learnblock1,131,img/planet12_left.png,12,Community 2,NA,TRUE,f,f,NA,NA,NA,6,7,"3,1,2,10,5,13,9,6,14,12,11,8,15,7,4"
14700,commdev-image-keyboard-response,403,1273096,learnblock1,652.7999999998137,img/planet14_left.png,14,Community 2,NA,FALSE,j,f,NA,NA,NA,6,7,"3,1,2,10,5,13,9,6,14,12,11,8,15,7,4"
14700,commdev-image-keyboard-response,404,1274350,learnblock1,697.8000000000466,img/planet9_right.png,9,Community 2,NA,FALSE,f,j,NA,NA,NA,6,7,"3,1,2,10,5,13,9,6,14,12,11,8,15,7,4"
14700,commdev-image-keyboard-response,405,1275603,learnblock1,1079.8000000000466,img/planet6_left.png,6,Community 2,NA,FALSE,j,f,NA,NA,NA,6,7,"3,1,2,10,5,13,9,6,14,12,11,8,15,7,4"
14700,commdev-image-keyboard-response,406,1276856,learnblock1,null,img/planet14_left.png,14,Community 2,NA,FALSE,null,f,NA,NA,NA,6,7,"3,1,2,10,5,13,9,6,14,12,11,8,15,7,4"
14700,commdev-image-keyboard-response,407,1278109,learnblock1,52.199999999953434,img/planet9_left.png,9,Community 2,NA,TRUE,f,f,NA,NA,NA,6,7,"3,1,2,10,5,13,9,6,14,12,11,8,15,7,4"
14700,commdev-image-keyboard-response,408,1279363,learnblock1,null,img/planet6_right.png,6,Community 2,NA,FALSE,null,j,NA,NA,NA,6,7,"3,1,2,10,5,13,9,6,14,12,11,8,15,7,4"
14700,commdev-image-keyboard-response,409,1280617,learnblock1,105.5,img/planet14_right.png,14,Community 2,NA,TRUE,j,j,NA,NA,NA,6,7,"3,1,2,10,5,13,9,6,14,12,11,8,15,7,4"
14700,commdev-image-keyboard-response,410,1281871,learnblock1,966.3999999999069,img/planet6_left.png,6,Community 2,NA,FALSE,j,f,NA,NA,NA,6,7,"3,1,2,10,5,13,9,6,14,12,11,8,15,7,4"
14700,commdev-image-keyboard-response,411,1283124,learnblock1,null,img/planet9_right.png,9,Community 2,NA,FALSE,null,j,NA,NA,NA,6,7,"3,1,2,10,5,13,9,6,14,12,11,8,15,7,4"
14700,commdev-image-keyboard-response,412,1284378,learnblock1,171.39999999990687,img/planet14_right.png,14,Community 2,NA,TRUE,j,j,NA,NA,NA,6,7,"3,1,2,10,5,13,9,6,14,12,11,8,15,7,4"
14700,commdev-image-keyboard-response,413,1285631,learnblock1,847.1000000000931,img/planet13_left.png,13,Community 2,NA,TRUE,f,f,NA,NA,NA,6,7,"3,1,2,10,5,13,9,6,14,12,11,8,15,7,4"
14700,commdev-image-keyboard-response,414,1286885,learnblock1,858.8000000000466,img/planet9_right.png,9,Community 2,NA,TRUE,j,j,NA,NA,NA,6,7,"3,1,2,10,5,13,9,6,14,12,11,8,15,7,4"
14700,commdev-image-keyboard-response,415,1288138,learnblock1,982.5999999998603,img/planet14_right.png,14,Community 2,NA,TRUE,j,j,NA,NA,NA,6,7,"3,1,2,10,5,13,9,6,14,12,11,8,15,7,4"
14700,commdev-image-keyboard-response,416,1289391,learnblock1,948.3000000000466,img/planet12_left.png,12,Community 2,NA,TRUE,f,f,NA,NA,NA,6,7,"3,1,2,10,5,13,9,6,14,12,11,8,15,7,4"
14700,commdev-image-keyboard-response,417,1290645,learnblock1,1112.1999999999534,img/planet14_left.png,14,Community 2,NA,FALSE,j,f,NA,NA,NA,6,7,"3,1,2,10,5,13,9,6,14,12,11,8,15,7,4"
14700,commdev-image-keyboard-response,418,1291899,learnblock1,null,img/planet13_right.png,13,Community 2,NA,FALSE,null,j,NA,NA,NA,6,7,"3,1,2,10,5,13,9,6,14,12,11,8,15,7,4"
14700,commdev-image-keyboard-response,419,1293152,learnblock1,75.10000000009313,img/planet12_right.png,12,Community 2,NA,TRUE,j,j,NA,NA,NA,6,7,"3,1,2,10,5,13,9,6,14,12,11,8,15,7,4"
14700,commdev-image-keyboard-response,420,1294406,learnblock1,1030.3000000000466,img/planet14_left.png,14,Community 2,NA,TRUE,f,f,NA,NA,NA,6,7,"3,1,2,10,5,13,9,6,14,12,11,8,15,7,4"
14700,commdev-image-keyboard-response,421,1295659,learnblock1,null,img/planet13_right.png,13,Community 2,NA,FALSE,null,j,NA,NA,NA,6,7,"3,1,2,10,5,13,9,6,14,12,11,8,15,7,4"
14700,commdev-image-keyboard-response,422,1296913,learnblock1,22.399999999906868,img/planet10_right.png,10,Community 1,NA,TRUE,j,j,NA,NA,NA,6,7,"3,1,2,10,5,13,9,6,14,12,11,8,15,7,4"
14700,commdev-image-keyboard-response,423,1298166,learnblock1,1133.3000000000466,img/planet1_right.png,1,Community 1,NA,TRUE,j,j,NA,NA,NA,6,7,"3,1,2,10,5,13,9,6,14,12,11,8,15,7,4"
14700,commdev-image-keyboard-response,424,1299419,learnblock1,1075.5,img/planet3_right.png,3,Community 1,NA,TRUE,j,j,NA,NA,NA,6,7,"3,1,2,10,5,13,9,6,14,12,11,8,15,7,4"
14700,commdev-image-keyboard-response,425,1300672,learnblock1,1073.3999999999069,img/planet10_left.png,10,Community 1,NA,FALSE,j,f,NA,NA,NA,6,7,"3,1,2,10,5,13,9,6,14,12,11,8,15,7,4"
14700,commdev-image-keyboard-response,426,1301926,learnblock1,1004.0999999998603,img/planet3_right.png,3,Community 1,NA,TRUE,j,j,NA,NA,NA,6,7,"3,1,2,10,5,13,9,6,14,12,11,8,15,7,4"
14700,commdev-image-keyboard-response,427,1303180,learnblock1,1080.8999999999069,img/planet10_left.png,10,Community 1,NA,TRUE,f,f,NA,NA,NA,6,7,"3,1,2,10,5,13,9,6,14,12,11,8,15,7,4"
14700,commdev-image-keyboard-response,428,1304434,learnblock1,null,img/planet13_left.png,13,Community 2,NA,FALSE,null,f,NA,NA,NA,6,7,"3,1,2,10,5,13,9,6,14,12,11,8,15,7,4"
14700,commdev-image-keyboard-response,429,1305687,learnblock1,46.300000000046566,img/planet9_right.png,9,Community 2,NA,FALSE,f,j,NA,NA,NA,6,7,"3,1,2,10,5,13,9,6,14,12,11,8,15,7,4"
14700,commdev-image-keyboard-response,430,1306940,learnblock1,null,img/planet12_right.png,12,Community 2,NA,FALSE,null,j,NA,NA,NA,6,7,"3,1,2,10,5,13,9,6,14,12,11,8,15,7,4"
14700,commdev-image-keyboard-response,431,1308193,learnblock1,473.5999999998603,img/planet9_right.png,9,Community 2,NA,FALSE,f,j,NA,NA,NA,6,7,"3,1,2,10,5,13,9,6,14,12,11,8,15,7,4"
14700,commdev-image-keyboard-response,432,1309446,learnblock1,515.6999999999534,img/planet12_right.png,12,Community 2,NA,FALSE,f,j,NA,NA,NA,6,7,"3,1,2,10,5,13,9,6,14,12,11,8,15,7,4"
14700,commdev-image-keyboard-response,433,1310700,learnblock1,1059.1000000000931,img/planet9_left.png,9,Community 2,NA,FALSE,j,f,NA,NA,NA,6,7,"3,1,2,10,5,13,9,6,14,12,11,8,15,7,4"
14700,commdev-image-keyboard-response,434,1311954,learnblock1,null,img/planet12_left.png,12,Community 2,NA,FALSE,null,f,NA,NA,NA,6,7,"3,1,2,10,5,13,9,6,14,12,11,8,15,7,4"
14700,commdev-image-keyboard-response,435,1313207,learnblock1,5.600000000093132,img/planet9_left.png,9,Community 2,NA,TRUE,f,f,NA,NA,NA,6,7,"3,1,2,10,5,13,9,6,14,12,11,8,15,7,4"
14700,commdev-image-keyboard-response,439,1576220,learnblock2,null,img/planet11_right.png,11,Community 3,NA,FALSE,null,j,NA,NA,NA,6,7,"3,1,2,10,5,13,9,6,14,12,11,8,15,7,4"
14700,commdev-image-keyboard-response,440,1577473,learnblock2,107.9000000001397,img/planet5_left.png,5,Community 1,NA,FALSE,j,f,NA,NA,NA,6,7,"3,1,2,10,5,13,9,6,14,12,11,8,15,7,4"
14700,commdev-image-keyboard-response,441,1578727,learnblock2,677.5,img/planet2_left.png,2,Community 1,NA,TRUE,f,f,NA,NA,NA,6,7,"3,1,2,10,5,13,9,6,14,12,11,8,15,7,4"
14700,commdev-image-keyboard-response,442,1579981,learnblock2,652.1999999999534,img/planet3_right.png,3,Community 1,NA,TRUE,j,j,NA,NA,NA,6,7,"3,1,2,10,5,13,9,6,14,12,11,8,15,7,4"
14700,commdev-image-keyboard-response,443,1581234,learnblock2,688.8000000000466,img/planet10_left.png,10,Community 1,NA,TRUE,f,f,NA,NA,NA,6,7,"3,1,2,10,5,13,9,6,14,12,11,8,15,7,4"
14700,commdev-image-keyboard-response,444,1582487,learnblock2,692.5999999998603,img/planet1_right.png,1,Community 1,NA,TRUE,j,j,NA,NA,NA,6,7,"3,1,2,10,5,13,9,6,14,12,11,8,15,7,4"
14700,commdev-image-keyboard-response,445,1583742,learnblock2,847.7000000001863,img/planet2_right.png,2,Community 1,NA,TRUE,j,j,NA,NA,NA,6,7,"3,1,2,10,5,13,9,6,14,12,11,8,15,7,4"
14700,commdev-image-keyboard-response,446,1584996,learnblock2,758.7000000001863,img/planet5_left.png,5,Community 1,NA,TRUE,f,f,NA,NA,NA,6,7,"3,1,2,10,5,13,9,6,14,12,11,8,15,7,4"
14700,commdev-image-keyboard-response,447,1586250,learnblock2,741.8000000000466,img/planet2_right.png,2,Community 1,NA,TRUE,j,j,NA,NA,NA,6,7,"3,1,2,10,5,13,9,6,14,12,11,8,15,7,4"
14700,commdev-image-keyboard-response,448,1587504,learnblock2,633.8000000000466,img/planet1_left.png,1,Community 1,NA,TRUE,f,f,NA,NA,NA,6,7,"3,1,2,10,5,13,9,6,14,12,11,8,15,7,4"
14700,commdev-image-keyboard-response,449,1588757,learnblock2,539.8999999999069,img/planet10_left.png,10,Community 1,NA,TRUE,f,f,NA,NA,NA,6,7,"3,1,2,10,5,13,9,6,14,12,11,8,15,7,4"
14700,commdev-image-keyboard-response,450,1590010,learnblock2,1039.5,img/planet1_right.png,1,Community 1,NA,TRUE,j,j,NA,NA,NA,6,7,"3,1,2,10,5,13,9,6,14,12,11,8,15,7,4"
14700,commdev-image-keyboard-response,451,1591265,learnblock2,645.9000000001397,img/planet3_right.png,3,Community 1,NA,FALSE,f,j,NA,NA,NA,6,7,"3,1,2,10,5,13,9,6,14,12,11,8,15,7,4"
14700,commdev-image-keyboard-response,452,1592518,learnblock2,703.3000000000466,img/planet5_left.png,5,Community 1,NA,TRUE,f,f,NA,NA,NA,6,7,"3,1,2,10,5,13,9,6,14,12,11,8,15,7,4"
14700,commdev-image-keyboard-response,453,1593772,learnblock2,723.8999999999069,img/planet3_right.png,3,Community 1,NA,TRUE,j,j,NA,NA,NA,6,7,"3,1,2,10,5,13,9,6,14,12,11,8,15,7,4"
14700,commdev-image-keyboard-response,454,1595026,learnblock2,701.3999999999069,img/planet5_left.png,5,Community 1,NA,TRUE,f,f,NA,NA,NA,6,7,"3,1,2,10,5,13,9,6,14,12,11,8,15,7,4"
14700,commdev-image-keyboard-response,455,1596279,learnblock2,660.3999999999069,img/planet2_right.png,2,Community 1,NA,TRUE,j,j,NA,NA,NA,6,7,"3,1,2,10,5,13,9,6,14,12,11,8,15,7,4"
14700,commdev-image-keyboard-response,456,1597532,learnblock2,719.8000000000466,img/planet10_right.png,10,Community 1,NA,TRUE,j,j,NA,NA,NA,6,7,"3,1,2,10,5,13,9,6,14,12,11,8,15,7,4"
14700,commdev-image-keyboard-response,457,1598786,learnblock2,906,img/planet2_right.png,2,Community 1,NA,TRUE,j,j,NA,NA,NA,6,7,"3,1,2,10,5,13,9,6,14,12,11,8,15,7,4"
14700,commdev-image-keyboard-response,458,1600039,learnblock2,576,img/planet1_left.png,1,Community 1,NA,TRUE,f,f,NA,NA,NA,6,7,"3,1,2,10,5,13,9,6,14,12,11,8,15,7,4"
14700,commdev-image-keyboard-response,459,1601292,learnblock2,683.2000000001863,img/planet2_right.png,2,Community 1,NA,TRUE,j,j,NA,NA,NA,6,7,"3,1,2,10,5,13,9,6,14,12,11,8,15,7,4"
14700,commdev-image-keyboard-response,460,1602546,learnblock2,705,img/planet1_left.png,1,Community 1,NA,TRUE,f,f,NA,NA,NA,6,7,"3,1,2,10,5,13,9,6,14,12,11,8,15,7,4"
14700,commdev-image-keyboard-response,461,1603799,learnblock2,859.9000000001397,img/planet5_left.png,5,Community 1,NA,TRUE,f,f,NA,NA,NA,6,7,"3,1,2,10,5,13,9,6,14,12,11,8,15,7,4"
14700,commdev-image-keyboard-response,462,1605051,learnblock2,904.6000000000931,img/planet2_right.png,2,Community 1,NA,TRUE,j,j,NA,NA,NA,6,7,"3,1,2,10,5,13,9,6,14,12,11,8,15,7,4"
14700,commdev-image-keyboard-response,463,1606305,learnblock2,926.2000000001863,img/planet5_right.png,5,Community 1,NA,TRUE,j,j,NA,NA,NA,6,7,"3,1,2,10,5,13,9,6,14,12,11,8,15,7,4"
14700,commdev-image-keyboard-response,464,1607558,learnblock2,1163.1000000000931,img/planet2_right.png,2,Community 1,NA,TRUE,j,j,NA,NA,NA,6,7,"3,1,2,10,5,13,9,6,14,12,11,8,15,7,4"
14700,commdev-image-keyboard-response,465,1608812,learnblock2,922.9000000001397,img/planet3_right.png,3,Community 1,NA,TRUE,j,j,NA,NA,NA,6,7,"3,1,2,10,5,13,9,6,14,12,11,8,15,7,4"
14700,commdev-image-keyboard-response,466,1610066,learnblock2,888.8999999999069,img/planet5_left.png,5,Community 1,NA,TRUE,f,f,NA,NA,NA,6,7,"3,1,2,10,5,13,9,6,14,12,11,8,15,7,4"
14700,commdev-image-keyboard-response,467,1611319,learnblock2,950.1999999999534,img/planet2_left.png,2,Community 1,NA,TRUE,f,f,NA,NA,NA,6,7,"3,1,2,10,5,13,9,6,14,12,11,8,15,7,4"
14700,commdev-image-keyboard-response,468,1612572,learnblock2,1166.0999999998603,img/planet3_left.png,3,Community 1,NA,TRUE,f,f,NA,NA,NA,6,7,"3,1,2,10,5,13,9,6,14,12,11,8,15,7,4"
14700,commdev-image-keyboard-response,469,1613827,learnblock2,860.5,img/planet2_right.png,2,Community 1,NA,TRUE,j,j,NA,NA,NA,6,7,"3,1,2,10,5,13,9,6,14,12,11,8,15,7,4"
14700,commdev-image-keyboard-response,470,1615080,learnblock2,895.5,img/planet3_left.png,3,Community 1,NA,FALSE,j,f,NA,NA,NA,6,7,"3,1,2,10,5,13,9,6,14,12,11,8,15,7,4"
14700,commdev-image-keyboard-response,471,1616336,learnblock2,null,img/planet5_right.png,5,Community 1,NA,FALSE,null,j,NA,NA,NA,6,7,"3,1,2,10,5,13,9,6,14,12,11,8,15,7,4"
14700,commdev-image-keyboard-response,472,1617589,learnblock2,170,img/planet1_right.png,1,Community 1,NA,FALSE,f,j,NA,NA,NA,6,7,"3,1,2,10,5,13,9,6,14,12,11,8,15,7,4"
14700,commdev-image-keyboard-response,473,1618842,learnblock2,25.200000000186265,img/planet2_left.png,2,Community 1,NA,FALSE,j,f,NA,NA,NA,6,7,"3,1,2,10,5,13,9,6,14,12,11,8,15,7,4"
14700,commdev-image-keyboard-response,474,1620096,learnblock2,1036.2999999998137,img/planet1_right.png,1,Community 1,NA,TRUE,j,j,NA,NA,NA,6,7,"3,1,2,10,5,13,9,6,14,12,11,8,15,7,4"
14700,commdev-image-keyboard-response,475,1621350,learnblock2,781.0999999998603,img/planet3_right.png,3,Community 1,NA,FALSE,f,j,NA,NA,NA,6,7,"3,1,2,10,5,13,9,6,14,12,11,8,15,7,4"
14700,commdev-image-keyboard-response,476,1622603,learnblock2,887.8000000000466,img/planet5_left.png,5,Community 1,NA,TRUE,f,f,NA,NA,NA,6,7,"3,1,2,10,5,13,9,6,14,12,11,8,15,7,4"
14700,commdev-image-keyboard-response,477,1623856,learnblock2,941.2999999998137,img/planet3_left.png,3,Community 1,NA,TRUE,f,f,NA,NA,NA,6,7,"3,1,2,10,5,13,9,6,14,12,11,8,15,7,4"
14700,commdev-image-keyboard-response,478,1625110,learnblock2,738.6000000000931,img/planet1_left.png,1,Community 1,NA,TRUE,f,f,NA,NA,NA,6,7,"3,1,2,10,5,13,9,6,14,12,11,8,15,7,4"
14700,commdev-image-keyboard-response,479,1626364,learnblock2,783.3999999999069,img/planet10_left.png,10,Community 1,NA,TRUE,f,f,NA,NA,NA,6,7,"3,1,2,10,5,13,9,6,14,12,11,8,15,7,4"
14700,commdev-image-keyboard-response,480,1627618,learnblock2,578.5,img/planet3_right.png,3,Community 1,NA,TRUE,j,j,NA,NA,NA,6,7,"3,1,2,10,5,13,9,6,14,12,11,8,15,7,4"
14700,commdev-image-keyboard-response,481,1628871,learnblock2,1156.3000000000466,img/planet1_right.png,1,Community 1,NA,TRUE,j,j,NA,NA,NA,6,7,"3,1,2,10,5,13,9,6,14,12,11,8,15,7,4"
14700,commdev-image-keyboard-response,482,1630126,learnblock2,961.5,img/planet2_left.png,2,Community 1,NA,TRUE,f,f,NA,NA,NA,6,7,"3,1,2,10,5,13,9,6,14,12,11,8,15,7,4"
14700,commdev-image-keyboard-response,483,1631379,learnblock2,703.0999999998603,img/planet5_right.png,5,Community 1,NA,TRUE,j,j,NA,NA,NA,6,7,"3,1,2,10,5,13,9,6,14,12,11,8,15,7,4"
14700,commdev-image-keyboard-response,484,1632633,learnblock2,955.8999999999069,img/planet11_right.png,11,Community 3,NA,TRUE,j,j,NA,NA,NA,6,7,"3,1,2,10,5,13,9,6,14,12,11,8,15,7,4"
14700,commdev-image-keyboard-response,485,1633887,learnblock2,1018.6000000000931,img/planet4_left.png,4,Community 3,NA,TRUE,f,f,NA,NA,NA,6,7,"3,1,2,10,5,13,9,6,14,12,11,8,15,7,4"
14700,commdev-image-keyboard-response,486,1635140,learnblock2,1179.5,img/planet7_right.png,7,Community 3,NA,TRUE,j,j,NA,NA,NA,6,7,"3,1,2,10,5,13,9,6,14,12,11,8,15,7,4"
14700,commdev-image-keyboard-response,487,1636393,learnblock2,null,img/planet11_left.png,11,Community 3,NA,FALSE,null,f,NA,NA,NA,6,7,"3,1,2,10,5,13,9,6,14,12,11,8,15,7,4"
14700,commdev-image-keyboard-response,488,1637648,learnblock2,4.699999999953434,img/planet15_left.png,15,Community 3,NA,TRUE,f,f,NA,NA,NA,6,7,"3,1,2,10,5,13,9,6,14,12,11,8,15,7,4"
14700,commdev-image-keyboard-response,489,1638902,learnblock2,null,img/planet4_left.png,4,Community 3,NA,FALSE,null,f,NA,NA,NA,6,7,"3,1,2,10,5,13,9,6,14,12,11,8,15,7,4"
14700,commdev-image-keyboard-response,490,1640156,learnblock2,99.39999999990687,img/planet15_right.png,15,Community 3,NA,FALSE,f,j,NA,NA,NA,6,7,"3,1,2,10,5,13,9,6,14,12,11,8,15,7,4"
14700,commdev-image-keyboard-response,491,1641410,learnblock2,853.5,img/planet8_left.png,8,Community 3,NA,TRUE,f,f,NA,NA,NA,6,7,"3,1,2,10,5,13,9,6,14,12,11,8,15,7,4"
14700,commdev-image-keyboard-response,492,1642663,learnblock2,785.6000000000931,img/planet4_left.png,4,Community 3,NA,TRUE,f,f,NA,NA,NA,6,7,"3,1,2,10,5,13,9,6,14,12,11,8,15,7,4"
14700,commdev-image-keyboard-response,493,1643916,learnblock2,688.5999999998603,img/planet15_right.png,15,Community 3,NA,TRUE,j,j,NA,NA,NA,6,7,"3,1,2,10,5,13,9,6,14,12,11,8,15,7,4"
14700,commdev-image-keyboard-response,494,1645170,learnblock2,762.9000000001397,img/planet11_right.png,11,Community 3,NA,FALSE,f,j,NA,NA,NA,6,7,"3,1,2,10,5,13,9,6,14,12,11,8,15,7,4"
14700,commdev-image-keyboard-response,495,1646423,learnblock2,641.9000000001397,img/planet7_right.png,7,Community 3,NA,TRUE,j,j,NA,NA,NA,6,7,"3,1,2,10,5,13,9,6,14,12,11,8,15,7,4"
14700,commdev-image-keyboard-response,496,1647677,learnblock2,992.5,img/planet15_right.png,15,Community 3,NA,TRUE,j,j,NA,NA,NA,6,7,"3,1,2,10,5,13,9,6,14,12,11,8,15,7,4"
14700,commdev-image-keyboard-response,497,1648931,learnblock2,1053.5999999998603,img/planet4_right.png,4,Community 3,NA,TRUE,j,j,NA,NA,NA,6,7,"3,1,2,10,5,13,9,6,14,12,11,8,15,7,4"
14700,commdev-image-keyboard-response,498,1650184,learnblock2,841.8999999999069,img/planet15_left.png,15,Community 3,NA,TRUE,f,f,NA,NA,NA,6,7,"3,1,2,10,5,13,9,6,14,12,11,8,15,7,4"
14700,commdev-image-keyboard-response,499,1651438,learnblock2,920.8999999999069,img/planet11_right.png,11,Community 3,NA,TRUE,j,j,NA,NA,NA,6,7,"3,1,2,10,5,13,9,6,14,12,11,8,15,7,4"
14700,commdev-image-keyboard-response,500,1652691,learnblock2,1017.8000000000466,img/planet4_right.png,4,Community 3,NA,TRUE,j,j,NA,NA,NA,6,7,"3,1,2,10,5,13,9,6,14,12,11,8,15,7,4"
14700,commdev-image-keyboard-response,501,1653945,learnblock2,807.6000000000931,img/planet7_left.png,7,Community 3,NA,TRUE,f,f,NA,NA,NA,6,7,"3,1,2,10,5,13,9,6,14,12,11,8,15,7,4"
14700,commdev-image-keyboard-response,502,1655199,learnblock2,1216.8000000000466,img/planet8_left.png,8,Community 3,NA,FALSE,j,f,NA,NA,NA,6,7,"3,1,2,10,5,13,9,6,14,12,11,8,15,7,4"
14700,commdev-image-keyboard-response,503,1656452,learnblock2,null,img/planet7_right.png,7,Community 3,NA,FALSE,null,j,NA,NA,NA,6,7,"3,1,2,10,5,13,9,6,14,12,11,8,15,7,4"
14700,commdev-image-keyboard-response,504,1657705,learnblock2,174.4000000001397,img/planet15_left.png,15,Community 3,NA,TRUE,f,f,NA,NA,NA,6,7,"3,1,2,10,5,13,9,6,14,12,11,8,15,7,4"
14700,commdev-image-keyboard-response,505,1658959,learnblock2,47,img/planet4_left.png,4,Community 3,NA,FALSE,j,f,NA,NA,NA,6,7,"3,1,2,10,5,13,9,6,14,12,11,8,15,7,4"
14700,commdev-image-keyboard-response,506,1660212,learnblock2,null,img/planet8_left.png,8,Community 3,NA,FALSE,null,f,NA,NA,NA,6,7,"3,1,2,10,5,13,9,6,14,12,11,8,15,7,4"
14700,commdev-image-keyboard-response,507,1661465,learnblock2,995.1999999999534,img/planet15_right.png,15,Community 3,NA,TRUE,j,j,NA,NA,NA,6,7,"3,1,2,10,5,13,9,6,14,12,11,8,15,7,4"
14700,commdev-image-keyboard-response,508,1662720,learnblock2,902.5,img/planet4_right.png,4,Community 3,NA,TRUE,j,j,NA,NA,NA,6,7,"3,1,2,10,5,13,9,6,14,12,11,8,15,7,4"
14700,commdev-image-keyboard-response,509,1663974,learnblock2,859.5,img/planet11_left.png,11,Community 3,NA,TRUE,f,f,NA,NA,NA,6,7,"3,1,2,10,5,13,9,6,14,12,11,8,15,7,4"
14700,commdev-image-keyboard-response,510,1665228,learnblock2,704.2999999998137,img/planet15_right.png,15,Community 3,NA,TRUE,j,j,NA,NA,NA,6,7,"3,1,2,10,5,13,9,6,14,12,11,8,15,7,4"
14700,commdev-image-keyboard-response,511,1666482,learnblock2,922.5999999998603,img/planet11_left.png,11,Community 3,NA,FALSE,j,f,NA,NA,NA,6,7,"3,1,2,10,5,13,9,6,14,12,11,8,15,7,4"
14700,commdev-image-keyboard-response,512,1667736,learnblock2,null,img/planet4_left.png,4,Community 3,NA,FALSE,null,f,NA,NA,NA,6,7,"3,1,2,10,5,13,9,6,14,12,11,8,15,7,4"
14700,commdev-image-keyboard-response,513,1668990,learnblock2,71.5999999998603,img/planet15_left.png,15,Community 3,NA,TRUE,f,f,NA,NA,NA,6,7,"3,1,2,10,5,13,9,6,14,12,11,8,15,7,4"
14700,commdev-image-keyboard-response,514,1670245,learnblock2,982.4000000001397,img/planet4_left.png,4,Community 3,NA,TRUE,f,f,NA,NA,NA,6,7,"3,1,2,10,5,13,9,6,14,12,11,8,15,7,4"
14700,commdev-image-keyboard-response,515,1671499,learnblock2,915.7000000001863,img/planet11_left.png,11,Community 3,NA,TRUE,f,f,NA,NA,NA,6,7,"3,1,2,10,5,13,9,6,14,12,11,8,15,7,4"
14700,commdev-image-keyboard-response,516,1672752,learnblock2,894.3000000000466,img/planet7_left.png,7,Community 3,NA,TRUE,f,f,NA,NA,NA,6,7,"3,1,2,10,5,13,9,6,14,12,11,8,15,7,4"
14700,commdev-image-keyboard-response,517,1674006,learnblock2,878.3000000000466,img/planet8_left.png,8,Community 3,NA,TRUE,f,f,NA,NA,NA,6,7,"3,1,2,10,5,13,9,6,14,12,11,8,15,7,4"
14700,commdev-image-keyboard-response,518,1675259,learnblock2,766.3999999999069,img/planet15_right.png,15,Community 3,NA,TRUE,j,j,NA,NA,NA,6,7,"3,1,2,10,5,13,9,6,14,12,11,8,15,7,4"
14700,commdev-image-keyboard-response,519,1676512,learnblock2,942.1000000000931,img/planet11_left.png,11,Community 3,NA,TRUE,f,f,NA,NA,NA,6,7,"3,1,2,10,5,13,9,6,14,12,11,8,15,7,4"
14700,commdev-image-keyboard-response,520,1677765,learnblock2,904.8999999999069,img/planet5_right.png,5,Community 1,NA,TRUE,j,j,NA,NA,NA,6,7,"3,1,2,10,5,13,9,6,14,12,11,8,15,7,4"
14700,commdev-image-keyboard-response,521,1679018,learnblock2,1060.5,img/planet3_left.png,3,Community 1,NA,TRUE,f,f,NA,NA,NA,6,7,"3,1,2,10,5,13,9,6,14,12,11,8,15,7,4"
14700,commdev-image-keyboard-response,522,1680271,learnblock2,696.7999999998137,img/planet1_right.png,1,Community 1,NA,TRUE,j,j,NA,NA,NA,6,7,"3,1,2,10,5,13,9,6,14,12,11,8,15,7,4"
14700,commdev-image-keyboard-response,523,1681524,learnblock2,645.1999999999534,img/planet3_left.png,3,Community 1,NA,TRUE,f,f,NA,NA,NA,6,7,"3,1,2,10,5,13,9,6,14,12,11,8,15,7,4"
14700,commdev-image-keyboard-response,524,1682778,learnblock2,771.8999999999069,img/planet5_left.png,5,Community 1,NA,TRUE,f,f,NA,NA,NA,6,7,"3,1,2,10,5,13,9,6,14,12,11,8,15,7,4"
14700,commdev-image-keyboard-response,525,1684031,learnblock2,523.9000000001397,img/planet1_right.png,1,Community 1,NA,TRUE,j,j,NA,NA,NA,6,7,"3,1,2,10,5,13,9,6,14,12,11,8,15,7,4"
14700,commdev-image-keyboard-response,526,1685285,learnblock2,null,img/planet5_right.png,5,Community 1,NA,FALSE,null,j,NA,NA,NA,6,7,"3,1,2,10,5,13,9,6,14,12,11,8,15,7,4"
14700,commdev-image-keyboard-response,527,1686539,learnblock2,5.300000000046566,img/planet2_right.png,2,Community 1,NA,TRUE,j,j,NA,NA,NA,6,7,"3,1,2,10,5,13,9,6,14,12,11,8,15,7,4"
14700,commdev-image-keyboard-response,528,1687792,learnblock2,698.6000000000931,img/planet1_left.png,1,Community 1,NA,TRUE,f,f,NA,NA,NA,6,7,"3,1,2,10,5,13,9,6,14,12,11,8,15,7,4"
14700,commdev-image-keyboard-response,529,1689046,learnblock2,1050.8000000000466,img/planet10_right.png,10,Community 1,NA,TRUE,j,j,NA,NA,NA,6,7,"3,1,2,10,5,13,9,6,14,12,11,8,15,7,4"
14700,commdev-image-keyboard-response,530,1690299,learnblock2,729.1999999999534,img/planet3_left.png,3,Community 1,NA,FALSE,j,f,NA,NA,NA,6,7,"3,1,2,10,5,13,9,6,14,12,11,8,15,7,4"
14700,commdev-image-keyboard-response,531,1691552,learnblock2,715.8000000000466,img/planet10_left.png,10,Community 1,NA,TRUE,f,f,NA,NA,NA,6,7,"3,1,2,10,5,13,9,6,14,12,11,8,15,7,4"
14700,commdev-image-keyboard-response,532,1692806,learnblock2,492.10000000009313,img/planet3_left.png,3,Community 1,NA,TRUE,f,f,NA,NA,NA,6,7,"3,1,2,10,5,13,9,6,14,12,11,8,15,7,4"
14700,commdev-image-keyboard-response,533,1694060,learnblock2,834.3000000000466,img/planet2_right.png,2,Community 1,NA,TRUE,j,j,NA,NA,NA,6,7,"3,1,2,10,5,13,9,6,14,12,11,8,15,7,4"
14700,commdev-image-keyboard-response,534,1695313,learnblock2,994.3999999999069,img/planet3_left.png,3,Community 1,NA,TRUE,f,f,NA,NA,NA,6,7,"3,1,2,10,5,13,9,6,14,12,11,8,15,7,4"
14700,commdev-image-keyboard-response,535,1696567,learnblock2,896.6000000000931,img/planet2_left.png,2,Community 1,NA,TRUE,f,f,NA,NA,NA,6,7,"3,1,2,10,5,13,9,6,14,12,11,8,15,7,4"
14700,commdev-image-keyboard-response,536,1697822,learnblock2,1070.8999999999069,img/planet3_left.png,3,Community 1,NA,TRUE,f,f,NA,NA,NA,6,7,"3,1,2,10,5,13,9,6,14,12,11,8,15,7,4"
14700,commdev-image-keyboard-response,537,1699075,learnblock2,720.9000000001397,img/planet10_right.png,10,Community 1,NA,TRUE,j,j,NA,NA,NA,6,7,"3,1,2,10,5,13,9,6,14,12,11,8,15,7,4"
14700,commdev-image-keyboard-response,538,1700329,learnblock2,1244.5,img/planet3_right.png,3,Community 1,NA,TRUE,j,j,NA,NA,NA,6,7,"3,1,2,10,5,13,9,6,14,12,11,8,15,7,4"
14700,commdev-image-keyboard-response,539,1701582,learnblock2,932.9000000001397,img/planet1_left.png,1,Community 1,NA,FALSE,j,f,NA,NA,NA,6,7,"3,1,2,10,5,13,9,6,14,12,11,8,15,7,4"
14700,commdev-image-keyboard-response,540,1702836,learnblock2,992.5,img/planet5_left.png,5,Community 1,NA,TRUE,f,f,NA,NA,NA,6,7,"3,1,2,10,5,13,9,6,14,12,11,8,15,7,4"
14700,commdev-image-keyboard-response,541,1704090,learnblock2,754.8000000000466,img/planet2_left.png,2,Community 1,NA,TRUE,f,f,NA,NA,NA,6,7,"3,1,2,10,5,13,9,6,14,12,11,8,15,7,4"
14700,commdev-image-keyboard-response,542,1705344,learnblock2,915.8999999999069,img/planet5_left.png,5,Community 1,NA,TRUE,f,f,NA,NA,NA,6,7,"3,1,2,10,5,13,9,6,14,12,11,8,15,7,4"
14700,commdev-image-keyboard-response,543,1706598,learnblock2,860.5,img/planet1_left.png,1,Community 1,NA,TRUE,f,f,NA,NA,NA,6,7,"3,1,2,10,5,13,9,6,14,12,11,8,15,7,4"
14700,commdev-image-keyboard-response,544,1707851,learnblock2,733.8000000000466,img/planet5_right.png,5,Community 1,NA,TRUE,j,j,NA,NA,NA,6,7,"3,1,2,10,5,13,9,6,14,12,11,8,15,7,4"
14700,commdev-image-keyboard-response,545,1709105,learnblock2,981.6000000000931,img/planet2_left.png,2,Community 1,NA,TRUE,f,f,NA,NA,NA,6,7,"3,1,2,10,5,13,9,6,14,12,11,8,15,7,4"
14700,commdev-image-keyboard-response,546,1710359,learnblock2,1045,img/planet10_left.png,10,Community 1,NA,TRUE,f,f,NA,NA,NA,6,7,"3,1,2,10,5,13,9,6,14,12,11,8,15,7,4"
14700,commdev-image-keyboard-response,547,1711612,learnblock2,844.1999999999534,img/planet13_right.png,13,Community 2,NA,TRUE,j,j,NA,NA,NA,6,7,"3,1,2,10,5,13,9,6,14,12,11,8,15,7,4"
14700,commdev-image-keyboard-response,548,1712866,learnblock2,null,img/planet9_right.png,9,Community 2,NA,FALSE,null,j,NA,NA,NA,6,7,"3,1,2,10,5,13,9,6,14,12,11,8,15,7,4"
14700,commdev-image-keyboard-response,549,1714120,learnblock2,28.299999999813735,img/planet14_right.png,14,Community 2,NA,TRUE,j,j,NA,NA,NA,6,7,"3,1,2,10,5,13,9,6,14,12,11,8,15,7,4"
14700,commdev-image-keyboard-response,550,1715374,learnblock2,21.5999999998603,img/planet13_right.png,13,Community 2,NA,TRUE,j,j,NA,NA,NA,6,7,"3,1,2,10,5,13,9,6,14,12,11,8,15,7,4"
14700,commdev-image-keyboard-response,551,1716627,learnblock2,106.4000000001397,img/planet12_left.png,12,Community 2,NA,FALSE,j,f,NA,NA,NA,6,7,"3,1,2,10,5,13,9,6,14,12,11,8,15,7,4"
14700,commdev-image-keyboard-response,552,1717881,learnblock2,null,img/planet6_right.png,6,Community 2,NA,FALSE,null,j,NA,NA,NA,6,7,"3,1,2,10,5,13,9,6,14,12,11,8,15,7,4"
14700,commdev-image-keyboard-response,553,1719136,learnblock2,528.1000000000931,img/planet14_right.png,14,Community 2,NA,TRUE,j,j,NA,NA,NA,6,7,"3,1,2,10,5,13,9,6,14,12,11,8,15,7,4"
14700,commdev-image-keyboard-response,554,1720390,learnblock2,710.5,img/planet6_left.png,6,Community 2,NA,FALSE,j,f,NA,NA,NA,6,7,"3,1,2,10,5,13,9,6,14,12,11,8,15,7,4"
14700,commdev-image-keyboard-response,555,1721643,learnblock2,1013.0999999998603,img/planet12_left.png,12,Community 2,NA,TRUE,f,f,NA,NA,NA,6,7,"3,1,2,10,5,13,9,6,14,12,11,8,15,7,4"
14700,commdev-image-keyboard-response,556,1722897,learnblock2,891.7999999998137,img/planet13_right.png,13,Community 2,NA,TRUE,j,j,NA,NA,NA,6,7,"3,1,2,10,5,13,9,6,14,12,11,8,15,7,4"
14700,commdev-image-keyboard-response,557,1724150,learnblock2,886.8999999999069,img/planet12_left.png,12,Community 2,NA,TRUE,f,f,NA,NA,NA,6,7,"3,1,2,10,5,13,9,6,14,12,11,8,15,7,4"
14700,commdev-image-keyboard-response,558,1725404,learnblock2,906.5,img/planet6_left.png,6,Community 2,NA,TRUE,f,f,NA,NA,NA,6,7,"3,1,2,10,5,13,9,6,14,12,11,8,15,7,4"
14700,commdev-image-keyboard-response,559,1726658,learnblock2,800.8000000000466,img/planet12_right.png,12,Community 2,NA,TRUE,j,j,NA,NA,NA,6,7,"3,1,2,10,5,13,9,6,14,12,11,8,15,7,4"
14700,commdev-image-keyboard-response,560,1727912,learnblock2,963.7999999998137,img/planet14_left.png,14,Community 2,NA,TRUE,f,f,NA,NA,NA,6,7,"3,1,2,10,5,13,9,6,14,12,11,8,15,7,4"
14700,commdev-image-keyboard-response,561,1729165,learnblock2,845.6999999999534,img/planet13_right.png,13,Community 2,NA,TRUE,j,j,NA,NA,NA,6,7,"3,1,2,10,5,13,9,6,14,12,11,8,15,7,4"
14700,commdev-image-keyboard-response,562,1730419,learnblock2,692,img/planet10_left.png,10,Community 1,NA,TRUE,f,f,NA,NA,NA,6,7,"3,1,2,10,5,13,9,6,14,12,11,8,15,7,4"
14700,commdev-image-keyboard-response,563,1731672,learnblock2,1038.3000000000466,img/planet2_left.png,2,Community 1,NA,TRUE,f,f,NA,NA,NA,6,7,"3,1,2,10,5,13,9,6,14,12,11,8,15,7,4"
14700,commdev-image-keyboard-response,564,1732927,learnblock2,913.6999999999534,img/planet1_left.png,1,Community 1,NA,TRUE,f,f,NA,NA,NA,6,7,"3,1,2,10,5,13,9,6,14,12,11,8,15,7,4"
14700,commdev-image-keyboard-response,565,1734180,learnblock2,949,img/planet2_left.png,2,Community 1,NA,FALSE,j,f,NA,NA,NA,6,7,"3,1,2,10,5,13,9,6,14,12,11,8,15,7,4"
14700,commdev-image-keyboard-response,566,1735433,learnblock2,997.1999999999534,img/planet1_right.png,1,Community 1,NA,TRUE,j,j,NA,NA,NA,6,7,"3,1,2,10,5,13,9,6,14,12,11,8,15,7,4"
14700,commdev-image-keyboard-response,567,1736687,learnblock2,898,img/planet5_right.png,5,Community 1,NA,TRUE,j,j,NA,NA,NA,6,7,"3,1,2,10,5,13,9,6,14,12,11,8,15,7,4"
14700,commdev-image-keyboard-response,568,1737941,learnblock2,938.5,img/planet3_left.png,3,Community 1,NA,TRUE,f,f,NA,NA,NA,6,7,"3,1,2,10,5,13,9,6,14,12,11,8,15,7,4"
14700,commdev-image-keyboard-response,569,1739194,learnblock2,904.5999999998603,img/planet1_right.png,1,Community 1,NA,TRUE,j,j,NA,NA,NA,6,7,"3,1,2,10,5,13,9,6,14,12,11,8,15,7,4"
14700,commdev-image-keyboard-response,570,1740448,learnblock2,713.3000000000466,img/planet10_right.png,10,Community 1,NA,TRUE,j,j,NA,NA,NA,6,7,"3,1,2,10,5,13,9,6,14,12,11,8,15,7,4"
14700,commdev-image-keyboard-response,571,1741701,learnblock2,763.5,img/planet13_left.png,13,Community 2,NA,TRUE,f,f,NA,NA,NA,6,7,"3,1,2,10,5,13,9,6,14,12,11,8,15,7,4"
14700,commdev-image-keyboard-response,572,1742956,learnblock2,1019.3000000000466,img/planet12_left.png,12,Community 2,NA,TRUE,f,f,NA,NA,NA,6,7,"3,1,2,10,5,13,9,6,14,12,11,8,15,7,4"
14700,commdev-image-keyboard-response,573,1744209,learnblock2,1022.8000000000466,img/planet14_right.png,14,Community 2,NA,TRUE,j,j,NA,NA,NA,6,7,"3,1,2,10,5,13,9,6,14,12,11,8,15,7,4"
14700,commdev-image-keyboard-response,574,1745463,learnblock2,1139.8000000000466,img/planet13_right.png,13,Community 2,NA,TRUE,j,j,NA,NA,NA,6,7,"3,1,2,10,5,13,9,6,14,12,11,8,15,7,4"
14700,commdev-image-keyboard-response,575,1746715,learnblock2,1110.2999999998137,img/planet14_right.png,14,Community 2,NA,TRUE,j,j,NA,NA,NA,6,7,"3,1,2,10,5,13,9,6,14,12,11,8,15,7,4"
14700,commdev-image-keyboard-response,576,1747971,learnblock2,856,img/planet9_left.png,9,Community 2,NA,TRUE,f,f,NA,NA,NA,6,7,"3,1,2,10,5,13,9,6,14,12,11,8,15,7,4"
14700,commdev-image-keyboard-response,577,1749224,learnblock2,null,img/planet13_left.png,13,Community 2,NA,FALSE,null,f,NA,NA,NA,6,7,"3,1,2,10,5,13,9,6,14,12,11,8,15,7,4"
14700,commdev-image-keyboard-response,578,1750476,learnblock2,282.5999999998603,img/planet9_left.png,9,Community 2,NA,TRUE,f,f,NA,NA,NA,6,7,"3,1,2,10,5,13,9,6,14,12,11,8,15,7,4"
14700,commdev-image-keyboard-response,579,1751730,learnblock2,726.8000000000466,img/planet13_right.png,13,Community 2,NA,TRUE,j,j,NA,NA,NA,6,7,"3,1,2,10,5,13,9,6,14,12,11,8,15,7,4"
14700,commdev-image-keyboard-response,580,1752983,learnblock2,769.6999999999534,img/planet12_left.png,12,Community 2,NA,TRUE,f,f,NA,NA,NA,6,7,"3,1,2,10,5,13,9,6,14,12,11,8,15,7,4"
14700,commdev-image-keyboard-response,581,1754238,learnblock2,976,img/planet13_left.png,13,Community 2,NA,TRUE,f,f,NA,NA,NA,6,7,"3,1,2,10,5,13,9,6,14,12,11,8,15,7,4"
14700,commdev-image-keyboard-response,582,1755492,learnblock2,724,img/planet9_left.png,9,Community 2,NA,TRUE,f,f,NA,NA,NA,6,7,"3,1,2,10,5,13,9,6,14,12,11,8,15,7,4"
14700,commdev-image-keyboard-response,583,1756746,learnblock2,892.1000000000931,img/planet12_right.png,12,Community 2,NA,TRUE,j,j,NA,NA,NA,6,7,"3,1,2,10,5,13,9,6,14,12,11,8,15,7,4"
14700,commdev-image-keyboard-response,584,1757999,learnblock2,644.8999999999069,img/planet13_left.png,13,Community 2,NA,TRUE,f,f,NA,NA,NA,6,7,"3,1,2,10,5,13,9,6,14,12,11,8,15,7,4"
14700,commdev-image-keyboard-response,585,1759252,learnblock2,697.5999999998603,img/planet12_left.png,12,Community 2,NA,TRUE,f,f,NA,NA,NA,6,7,"3,1,2,10,5,13,9,6,14,12,11,8,15,7,4"
14700,commdev-image-keyboard-response,586,1760505,learnblock2,877.1999999999534,img/planet13_left.png,13,Community 2,NA,TRUE,f,f,NA,NA,NA,6,7,"3,1,2,10,5,13,9,6,14,12,11,8,15,7,4"
14700,commdev-image-keyboard-response,587,1761759,learnblock2,706,img/planet10_right.png,10,Community 1,NA,TRUE,j,j,NA,NA,NA,6,7,"3,1,2,10,5,13,9,6,14,12,11,8,15,7,4"
14700,commdev-image-keyboard-response,588,1763013,learnblock2,1006.6999999999534,img/planet3_left.png,3,Community 1,NA,TRUE,f,f,NA,NA,NA,6,7,"3,1,2,10,5,13,9,6,14,12,11,8,15,7,4"
14700,commdev-image-keyboard-response,589,1764267,learnblock2,930.9000000001397,img/planet1_right.png,1,Community 1,NA,TRUE,j,j,NA,NA,NA,6,7,"3,1,2,10,5,13,9,6,14,12,11,8,15,7,4"
14700,commdev-image-keyboard-response,590,1765521,learnblock2,718.6000000000931,img/planet10_left.png,10,Community 1,NA,TRUE,f,f,NA,NA,NA,6,7,"3,1,2,10,5,13,9,6,14,12,11,8,15,7,4"
14700,commdev-image-keyboard-response,591,1766775,learnblock2,862.7000000001863,img/planet2_left.png,2,Community 1,NA,TRUE,f,f,NA,NA,NA,6,7,"3,1,2,10,5,13,9,6,14,12,11,8,15,7,4"
14700,commdev-image-keyboard-response,592,1768028,learnblock2,1226.9000000001397,img/planet10_right.png,10,Community 1,NA,TRUE,j,j,NA,NA,NA,6,7,"3,1,2,10,5,13,9,6,14,12,11,8,15,7,4"
14700,commdev-image-keyboard-response,593,1769281,learnblock2,870.9000000001397,img/planet2_left.png,2,Community 1,NA,TRUE,f,f,NA,NA,NA,6,7,"3,1,2,10,5,13,9,6,14,12,11,8,15,7,4"
14700,commdev-image-keyboard-response,594,1770534,learnblock2,null,img/planet5_right.png,5,Community 1,NA,FALSE,null,j,NA,NA,NA,6,7,"3,1,2,10,5,13,9,6,14,12,11,8,15,7,4"
14700,commdev-image-keyboard-response,595,1771788,learnblock2,288,img/planet1_right.png,1,Community 1,NA,TRUE,j,j,NA,NA,NA,6,7,"3,1,2,10,5,13,9,6,14,12,11,8,15,7,4"
14700,commdev-image-keyboard-response,596,1773042,learnblock2,559.8000000000466,img/planet2_left.png,2,Community 1,NA,TRUE,f,f,NA,NA,NA,6,7,"3,1,2,10,5,13,9,6,14,12,11,8,15,7,4"
14700,commdev-image-keyboard-response,597,1774295,learnblock2,691.3000000000466,img/planet5_right.png,5,Community 1,NA,FALSE,f,j,NA,NA,NA,6,7,"3,1,2,10,5,13,9,6,14,12,11,8,15,7,4"
14700,commdev-image-keyboard-response,598,1775550,learnblock2,1026,img/planet3_left.png,3,Community 1,NA,TRUE,f,f,NA,NA,NA,6,7,"3,1,2,10,5,13,9,6,14,12,11,8,15,7,4"
14700,commdev-image-keyboard-response,599,1776803,learnblock2,702.0999999998603,img/planet2_left.png,2,Community 1,NA,TRUE,f,f,NA,NA,NA,6,7,"3,1,2,10,5,13,9,6,14,12,11,8,15,7,4"
14700,commdev-image-keyboard-response,600,1778057,learnblock2,null,img/planet5_left.png,5,Community 1,NA,FALSE,null,f,NA,NA,NA,6,7,"3,1,2,10,5,13,9,6,14,12,11,8,15,7,4"
14700,commdev-image-keyboard-response,601,1779310,learnblock2,null,img/planet2_left.png,2,Community 1,NA,FALSE,null,f,NA,NA,NA,6,7,"3,1,2,10,5,13,9,6,14,12,11,8,15,7,4"
14700,commdev-image-keyboard-response,602,1780564,learnblock2,785,img/planet1_right.png,1,Community 1,NA,TRUE,j,j,NA,NA,NA,6,7,"3,1,2,10,5,13,9,6,14,12,11,8,15,7,4"
14700,commdev-image-keyboard-response,603,1781818,learnblock2,969.8999999999069,img/planet5_left.png,5,Community 1,NA,TRUE,f,f,NA,NA,NA,6,7,"3,1,2,10,5,13,9,6,14,12,11,8,15,7,4"
14700,commdev-image-keyboard-response,604,1783071,learnblock2,1006.0999999998603,img/planet3_left.png,3,Community 1,NA,TRUE,f,f,NA,NA,NA,6,7,"3,1,2,10,5,13,9,6,14,12,11,8,15,7,4"
14700,commdev-image-keyboard-response,605,1784323,learnblock2,865.3999999999069,img/planet5_left.png,5,Community 1,NA,FALSE,j,f,NA,NA,NA,6,7,"3,1,2,10,5,13,9,6,14,12,11,8,15,7,4"
14700,commdev-image-keyboard-response,606,1785577,learnblock2,1245.8999999999069,img/planet1_left.png,1,Community 1,NA,TRUE,f,f,NA,NA,NA,6,7,"3,1,2,10,5,13,9,6,14,12,11,8,15,7,4"
14700,commdev-image-keyboard-response,607,1786830,learnblock2,890.7999999998137,img/planet5_right.png,5,Community 1,NA,TRUE,j,j,NA,NA,NA,6,7,"3,1,2,10,5,13,9,6,14,12,11,8,15,7,4"
14700,commdev-image-keyboard-response,608,1788084,learnblock2,744.7000000001863,img/planet2_left.png,2,Community 1,NA,TRUE,f,f,NA,NA,NA,6,7,"3,1,2,10,5,13,9,6,14,12,11,8,15,7,4"
14700,commdev-image-keyboard-response,609,1789337,learnblock2,1074.2000000001863,img/planet3_right.png,3,Community 1,NA,TRUE,j,j,NA,NA,NA,6,7,"3,1,2,10,5,13,9,6,14,12,11,8,15,7,4"
14700,commdev-image-keyboard-response,610,1790591,learnblock2,711.6999999999534,img/planet2_left.png,2,Community 1,NA,TRUE,f,f,NA,NA,NA,6,7,"3,1,2,10,5,13,9,6,14,12,11,8,15,7,4"
14700,commdev-image-keyboard-response,611,1791844,learnblock2,870,img/planet1_left.png,1,Community 1,NA,TRUE,f,f,NA,NA,NA,6,7,"3,1,2,10,5,13,9,6,14,12,11,8,15,7,4"
14700,commdev-image-keyboard-response,612,1793098,learnblock2,960.1999999999534,img/planet2_right.png,2,Community 1,NA,TRUE,j,j,NA,NA,NA,6,7,"3,1,2,10,5,13,9,6,14,12,11,8,15,7,4"
14700,commdev-image-keyboard-response,613,1794355,learnblock2,1247,img/planet5_right.png,5,Community 1,NA,TRUE,j,j,NA,NA,NA,6,7,"3,1,2,10,5,13,9,6,14,12,11,8,15,7,4"
14700,commdev-image-keyboard-response,614,1795608,learnblock2,null,img/planet11_left.png,11,Community 3,NA,FALSE,null,f,NA,NA,NA,6,7,"3,1,2,10,5,13,9,6,14,12,11,8,15,7,4"
14700,commdev-image-keyboard-response,615,1796861,learnblock2,277.5,img/planet4_left.png,4,Community 3,NA,TRUE,f,f,NA,NA,NA,6,7,"3,1,2,10,5,13,9,6,14,12,11,8,15,7,4"
14700,commdev-image-keyboard-response,616,1798115,learnblock2,133.19999999995343,img/planet11_right.png,11,Community 3,NA,FALSE,f,j,NA,NA,NA,6,7,"3,1,2,10,5,13,9,6,14,12,11,8,15,7,4"
14700,commdev-image-keyboard-response,617,1799368,learnblock2,1088.1000000000931,img/planet7_right.png,7,Community 3,NA,TRUE,j,j,NA,NA,NA,6,7,"3,1,2,10,5,13,9,6,14,12,11,8,15,7,4"
14700,commdev-image-keyboard-response,618,1800622,learnblock2,1029.5,img/planet8_left.png,8,Community 3,NA,TRUE,f,f,NA,NA,NA,6,7,"3,1,2,10,5,13,9,6,14,12,11,8,15,7,4"
14700,commdev-image-keyboard-response,619,1801876,learnblock2,null,img/planet15_left.png,15,Community 3,NA,FALSE,null,f,NA,NA,NA,6,7,"3,1,2,10,5,13,9,6,14,12,11,8,15,7,4"
14700,commdev-image-keyboard-response,620,1803130,learnblock2,96.5,img/planet11_left.png,11,Community 3,NA,FALSE,j,f,NA,NA,NA,6,7,"3,1,2,10,5,13,9,6,14,12,11,8,15,7,4"
14700,commdev-image-keyboard-response,621,1804384,learnblock2,1060.1999999999534,img/planet4_right.png,4,Community 3,NA,FALSE,f,j,NA,NA,NA,6,7,"3,1,2,10,5,13,9,6,14,12,11,8,15,7,4"
14700,commdev-image-keyboard-response,622,1805639,learnblock2,null,img/planet8_right.png,8,Community 3,NA,FALSE,null,j,NA,NA,NA,6,7,"3,1,2,10,5,13,9,6,14,12,11,8,15,7,4"
14700,commdev-image-keyboard-response,623,1806892,learnblock2,null,img/planet15_right.png,15,Community 3,NA,FALSE,null,j,NA,NA,NA,6,7,"3,1,2,10,5,13,9,6,14,12,11,8,15,7,4"
14700,commdev-image-keyboard-response,624,1808146,learnblock2,83.9000000001397,img/planet4_left.png,4,Community 3,NA,FALSE,j,f,NA,NA,NA,6,7,"3,1,2,10,5,13,9,6,14,12,11,8,15,7,4"
14700,commdev-image-keyboard-response,625,1809399,learnblock2,1064.1999999999534,img/planet11_right.png,11,Community 3,NA,TRUE,j,j,NA,NA,NA,6,7,"3,1,2,10,5,13,9,6,14,12,11,8,15,7,4"
14700,commdev-image-keyboard-response,626,1810652,learnblock2,null,img/planet5_left.png,5,Community 1,NA,FALSE,null,f,NA,NA,NA,6,7,"3,1,2,10,5,13,9,6,14,12,11,8,15,7,4"
14700,commdev-image-keyboard-response,627,1811906,learnblock2,126.29999999981374,img/planet2_right.png,2,Community 1,NA,TRUE,j,j,NA,NA,NA,6,7,"3,1,2,10,5,13,9,6,14,12,11,8,15,7,4"
14700,commdev-image-keyboard-response,628,1813159,learnblock2,92.80000000004657,img/planet5_left.png,5,Community 1,NA,TRUE,f,f,NA,NA,NA,6,7,"3,1,2,10,5,13,9,6,14,12,11,8,15,7,4"
14700,commdev-image-keyboard-response,629,1814412,learnblock2,93.5999999998603,img/planet11_right.png,11,Community 3,NA,TRUE,j,j,NA,NA,NA,6,7,"3,1,2,10,5,13,9,6,14,12,11,8,15,7,4"
14700,commdev-image-keyboard-response,630,1815666,learnblock2,897.5,img/planet15_right.png,15,Community 3,NA,TRUE,j,j,NA,NA,NA,6,7,"3,1,2,10,5,13,9,6,14,12,11,8,15,7,4"
14700,commdev-image-keyboard-response,631,1816920,learnblock2,737.3999999999069,img/planet8_right.png,8,Community 3,NA,TRUE,j,j,NA,NA,NA,6,7,"3,1,2,10,5,13,9,6,14,12,11,8,15,7,4"
14700,commdev-image-keyboard-response,632,1818174,learnblock2,954.8999999999069,img/planet4_right.png,4,Community 3,NA,TRUE,j,j,NA,NA,NA,6,7,"3,1,2,10,5,13,9,6,14,12,11,8,15,7,4"
14700,commdev-image-keyboard-response,633,1819427,learnblock2,1033.2999999998137,img/planet7_left.png,7,Community 3,NA,FALSE,j,f,NA,NA,NA,6,7,"3,1,2,10,5,13,9,6,14,12,11,8,15,7,4"
14700,commdev-image-keyboard-response,634,1820679,learnblock2,null,img/planet4_left.png,4,Community 3,NA,FALSE,null,f,NA,NA,NA,6,7,"3,1,2,10,5,13,9,6,14,12,11,8,15,7,4"
14700,commdev-image-keyboard-response,635,1821933,learnblock2,9.399999999906868,img/planet7_left.png,7,Community 3,NA,FALSE,j,f,NA,NA,NA,6,7,"3,1,2,10,5,13,9,6,14,12,11,8,15,7,4"
14700,commdev-image-keyboard-response,636,1823187,learnblock2,1054.1999999999534,img/planet11_left.png,11,Community 3,NA,FALSE,j,f,NA,NA,NA,6,7,"3,1,2,10,5,13,9,6,14,12,11,8,15,7,4"
14700,commdev-image-keyboard-response,637,1824441,learnblock2,1199.0999999998603,img/planet15_right.png,15,Community 3,NA,TRUE,j,j,NA,NA,NA,6,7,"3,1,2,10,5,13,9,6,14,12,11,8,15,7,4"
14700,commdev-image-keyboard-response,638,1825693,learnblock2,63.5,img/planet7_right.png,7,Community 3,NA,FALSE,f,j,NA,NA,NA,6,7,"3,1,2,10,5,13,9,6,14,12,11,8,15,7,4"
14700,commdev-image-keyboard-response,639,1826947,learnblock2,1015,img/planet15_left.png,15,Community 3,NA,TRUE,f,f,NA,NA,NA,6,7,"3,1,2,10,5,13,9,6,14,12,11,8,15,7,4"
14700,commdev-image-keyboard-response,640,1828201,learnblock2,1140.0999999998603,img/planet7_left.png,7,Community 3,NA,TRUE,f,f,NA,NA,NA,6,7,"3,1,2,10,5,13,9,6,14,12,11,8,15,7,4"
14700,commdev-image-keyboard-response,641,1829455,learnblock2,879.8999999999069,img/planet4_left.png,4,Community 3,NA,TRUE,f,f,NA,NA,NA,6,7,"3,1,2,10,5,13,9,6,14,12,11,8,15,7,4"
14700,commdev-image-keyboard-response,642,1830709,learnblock2,860.6999999999534,img/planet8_left.png,8,Community 3,NA,TRUE,f,f,NA,NA,NA,6,7,"3,1,2,10,5,13,9,6,14,12,11,8,15,7,4"
14700,commdev-image-keyboard-response,643,1831963,learnblock2,940.1000000000931,img/planet4_left.png,4,Community 3,NA,TRUE,f,f,NA,NA,NA,6,7,"3,1,2,10,5,13,9,6,14,12,11,8,15,7,4"
14700,commdev-image-keyboard-response,644,1833215,learnblock2,871.6000000000931,img/planet11_right.png,11,Community 3,NA,TRUE,j,j,NA,NA,NA,6,7,"3,1,2,10,5,13,9,6,14,12,11,8,15,7,4"
14700,commdev-image-keyboard-response,645,1834468,learnblock2,923.5,img/planet7_left.png,7,Community 3,NA,TRUE,f,f,NA,NA,NA,6,7,"3,1,2,10,5,13,9,6,14,12,11,8,15,7,4"
14700,commdev-image-keyboard-response,646,1835722,learnblock2,933,img/planet4_right.png,4,Community 3,NA,TRUE,j,j,NA,NA,NA,6,7,"3,1,2,10,5,13,9,6,14,12,11,8,15,7,4"
14700,commdev-image-keyboard-response,647,1836974,learnblock2,1045.8000000000466,img/planet15_right.png,15,Community 3,NA,TRUE,j,j,NA,NA,NA,6,7,"3,1,2,10,5,13,9,6,14,12,11,8,15,7,4"
14700,commdev-image-keyboard-response,648,1838227,learnblock2,1027.3999999999069,img/planet11_right.png,11,Community 3,NA,TRUE,j,j,NA,NA,NA,6,7,"3,1,2,10,5,13,9,6,14,12,11,8,15,7,4"
14700,commdev-image-keyboard-response,649,1839481,learnblock2,null,img/planet7_right.png,7,Community 3,NA,FALSE,null,j,NA,NA,NA,6,7,"3,1,2,10,5,13,9,6,14,12,11,8,15,7,4"
14700,commdev-image-keyboard-response,650,1840735,learnblock2,49.39999999990687,img/planet8_right.png,8,Community 3,NA,TRUE,j,j,NA,NA,NA,6,7,"3,1,2,10,5,13,9,6,14,12,11,8,15,7,4"
14700,commdev-image-keyboard-response,651,1841988,learnblock2,910.6999999999534,img/planet4_right.png,4,Community 3,NA,TRUE,j,j,NA,NA,NA,6,7,"3,1,2,10,5,13,9,6,14,12,11,8,15,7,4"
14700,commdev-image-keyboard-response,652,1843241,learnblock2,1076.3000000000466,img/planet8_right.png,8,Community 3,NA,TRUE,j,j,NA,NA,NA,6,7,"3,1,2,10,5,13,9,6,14,12,11,8,15,7,4"
14700,commdev-image-keyboard-response,653,1844494,learnblock2,1209.4000000001397,img/planet4_right.png,4,Community 3,NA,TRUE,j,j,NA,NA,NA,6,7,"3,1,2,10,5,13,9,6,14,12,11,8,15,7,4"
14700,commdev-image-keyboard-response,654,1845746,learnblock2,980.2999999998137,img/planet7_left.png,7,Community 3,NA,FALSE,j,f,NA,NA,NA,6,7,"3,1,2,10,5,13,9,6,14,12,11,8,15,7,4"
14700,commdev-image-keyboard-response,655,1846999,learnblock2,714.5,img/planet4_left.png,4,Community 3,NA,FALSE,j,f,NA,NA,NA,6,7,"3,1,2,10,5,13,9,6,14,12,11,8,15,7,4"
14700,commdev-image-keyboard-response,656,1848253,learnblock2,534,img/planet7_right.png,7,Community 3,NA,TRUE,j,j,NA,NA,NA,6,7,"3,1,2,10,5,13,9,6,14,12,11,8,15,7,4"
14700,commdev-image-keyboard-response,657,1849505,learnblock2,911.2999999998137,img/planet4_right.png,4,Community 3,NA,TRUE,j,j,NA,NA,NA,6,7,"3,1,2,10,5,13,9,6,14,12,11,8,15,7,4"
14700,commdev-image-keyboard-response,658,1850758,learnblock2,794.2999999998137,img/planet15_left.png,15,Community 3,NA,FALSE,j,f,NA,NA,NA,6,7,"3,1,2,10,5,13,9,6,14,12,11,8,15,7,4"
14700,commdev-image-keyboard-response,659,1852012,learnblock2,201.60000000009313,img/planet8_left.png,8,Community 3,NA,TRUE,f,f,NA,NA,NA,6,7,"3,1,2,10,5,13,9,6,14,12,11,8,15,7,4"
14700,commdev-image-keyboard-response,660,1853265,learnblock2,null,img/planet7_right.png,7,Community 3,NA,FALSE,null,j,NA,NA,NA,6,7,"3,1,2,10,5,13,9,6,14,12,11,8,15,7,4"
14700,commdev-image-keyboard-response,661,1854518,learnblock2,135.70000000018626,img/planet8_left.png,8,Community 3,NA,FALSE,j,f,NA,NA,NA,6,7,"3,1,2,10,5,13,9,6,14,12,11,8,15,7,4"
14700,commdev-image-keyboard-response,662,1855772,learnblock2,426.8000000002794,img/planet6_left.png,6,Community 2,NA,TRUE,f,f,NA,NA,NA,6,7,"3,1,2,10,5,13,9,6,14,12,11,8,15,7,4"
14700,commdev-image-keyboard-response,663,1857024,learnblock2,null,img/planet9_left.png,9,Community 2,NA,FALSE,null,f,NA,NA,NA,6,7,"3,1,2,10,5,13,9,6,14,12,11,8,15,7,4"
14700,commdev-image-keyboard-response,664,1858276,learnblock2,21,img/planet13_right.png,13,Community 2,NA,FALSE,f,j,NA,NA,NA,6,7,"3,1,2,10,5,13,9,6,14,12,11,8,15,7,4"
