subject_id,trial_type,trial_index,time_elapsed,block,rt,stimulus,planet,community,response,correct,key_press,learning_correct_response,parse,init_locations,final_locations,browser_interactions,num_comp,planet_map
14463,commdev-instructions,7,34342,NA,4761.600000023842,"<p>In this game, you are a scientist on board a space shuttle. </p><p> On each mission, you will visit planets all across the universe.</p><img src=""img/controlroom.jpg"" width=300vw>",NA,NA,NA,NA,NA,NA,NA,NA,NA,4,6,"8,11,10,2,6,9,5,3,12,15,1,7,4,13,14"
14463,commdev-instructions,8,85017,NA,48587.60000002384,"<p>Here are a few planets you might see:</p><img src=""img/practice1.png"" width=200vw><img src=""img/practice2.png"" width=200vw><img src=""img/practice3.png"" width=200vw>",NA,NA,NA,NA,NA,NA,NA,NA,NA,4,6,"8,11,10,2,6,9,5,3,12,15,1,7,4,13,14"
14463,commdev-instructions,9,122797,NA,28865.700000047684,"<p>Your job as a scientist is to record which direction the winds are moving on each planet.</p><p>There are two types of wind directions:</p><img src=""img/practice1_left.png"" width=200vw><img src=""img/practice1_right.png"" width=200vw>",NA,NA,NA,NA,NA,NA,NA,NA,NA,4,6,"8,11,10,2,6,9,5,3,12,15,1,7,4,13,14"
14463,commdev-instructions,10,129346,NA,1665.5,"<p>If the winds are moving this way, press the letter <strong>F</strong> on the keyboard as fast as you can.</p><img src=""img/leftwind.png"" width=250vw>",NA,NA,NA,NA,NA,NA,NA,NA,NA,4,6,"8,11,10,2,6,9,5,3,12,15,1,7,4,13,14"
14463,commdev-instructions,11,138043,NA,4192.199999928474,"<p>If the winds are moving this way, press the letter <strong>J</strong> on the keyboard as fast as you can.</p><img src=""img/rightwind.png"" width=350vw>",NA,NA,NA,NA,NA,NA,NA,NA,NA,4,6,"8,11,10,2,6,9,5,3,12,15,1,7,4,13,14"
14463,commdev-instructions,12,144514,NA,2043.7000000476837,<p>You will have 1 second to respond. Try to respond before the time runs out!,NA,NA,NA,NA,NA,NA,NA,NA,NA,4,6,"8,11,10,2,6,9,5,3,12,15,1,7,4,13,14"
14463,commdev-instructions,13,150573,NA,612.6000000238419,<p>The planets you will visit will look different from each other.</p><p>You should respond <strong>only</strong> based on wind direction.,NA,NA,NA,NA,NA,NA,NA,NA,NA,4,6,"8,11,10,2,6,9,5,3,12,15,1,7,4,13,14"
14463,commdev-instructions,14,156765,NA,1013.7000000476837,"<p> Ready to start the practice round? </p><p> Remember, press <strong>F</strong> or <strong>J</strong> depending on the wind direction.<br><img src=""img/categorize_planet_example.png""",NA,NA,NA,NA,NA,NA,NA,NA,NA,4,6,"8,11,10,2,6,9,5,3,12,15,1,7,4,13,14"
14463,commdev-instructions,26,226248,NA,3421.6999999284744,"<p>Great, now try a short practice mission. </p><p> This time, you will have 1 second to respond and you won't know whether you pressed the right or wrong key for each planet.</p>",NA,NA,NA,NA,NA,NA,NA,NA,NA,4,6,"8,11,10,2,6,9,5,3,12,15,1,7,4,13,14"
14463,commdev-image-keyboard-response,27,227625,practice,1203.2999999523163,img/practice2_right.png,NA,Number not found in mappings,NA,TRUE,j,j,NA,NA,NA,4,6,"8,11,10,2,6,9,5,3,12,15,1,7,4,13,14"
14463,commdev-image-keyboard-response,28,228884,practice,null,img/practice1_right.png,NA,Number not found in mappings,NA,FALSE,null,j,NA,NA,NA,4,6,"8,11,10,2,6,9,5,3,12,15,1,7,4,13,14"
14463,commdev-image-keyboard-response,29,230137,practice,782.2999999523163,img/practice4_left.png,NA,Number not found in mappings,NA,FALSE,j,f,NA,NA,NA,4,6,"8,11,10,2,6,9,5,3,12,15,1,7,4,13,14"
14463,commdev-image-keyboard-response,30,231388,practice,745.8999999761581,img/practice2_left.png,NA,Number not found in mappings,NA,FALSE,j,f,NA,NA,NA,4,6,"8,11,10,2,6,9,5,3,12,15,1,7,4,13,14"
14463,commdev-image-keyboard-response,31,232654,practice,562.5,img/practice4_left.png,NA,Number not found in mappings,NA,TRUE,f,f,NA,NA,NA,4,6,"8,11,10,2,6,9,5,3,12,15,1,7,4,13,14"
14463,commdev-image-keyboard-response,32,233924,practice,585.6000000238419,img/practice2_left.png,NA,Number not found in mappings,NA,TRUE,f,f,NA,NA,NA,4,6,"8,11,10,2,6,9,5,3,12,15,1,7,4,13,14"
14463,commdev-image-keyboard-response,33,235184,practice,385.3000000715256,img/practice4_left.png,NA,Number not found in mappings,NA,TRUE,f,f,NA,NA,NA,4,6,"8,11,10,2,6,9,5,3,12,15,1,7,4,13,14"
14463,commdev-image-keyboard-response,34,236441,practice,233.39999997615814,img/practice3_right.png,NA,Number not found in mappings,NA,FALSE,f,j,NA,NA,NA,4,6,"8,11,10,2,6,9,5,3,12,15,1,7,4,13,14"
14463,commdev-instructions,35,247882,NA,1897.6000000238419,"<p>Great job with the practice round.</p><p>During real missions, you won't know whether you pressed the right or wrong key for each planet.</p><p>But between missions, we will tell you how you did overall.</p>",NA,NA,NA,NA,NA,NA,NA,NA,NA,4,6,"8,11,10,2,6,9,5,3,12,15,1,7,4,13,14"
14463,commdev-instructions,36,257556,NA,1420.6999999284744,<p>Try your best! You will be paid a bonus based on how many correct responses you make!</p><p>Responses that are too slow will not count toward your bonus.</p>,NA,NA,NA,NA,NA,NA,NA,NA,NA,4,6,"8,11,10,2,6,9,5,3,12,15,1,7,4,13,14"
14463,commdev-instructions,37,265213,NA,1457.3000000715256,"<p>You are almost ready to start the real game.</p><p> First, we are going to ask you some questions about how the game works.</p>",NA,NA,NA,NA,NA,NA,NA,NA,NA,4,6,"8,11,10,2,6,9,5,3,12,15,1,7,4,13,14"
14463,commdev-instructions,46,655226,NA,5628.699999928474,"<p> Nice work! It is now time to start the real game.<p></p>You will go on two missions to record wind directions of different planets.<p></p>Each one will take about 5 minutes. You will get to take a break between missions.<p><p> Remember, press <strong>F</strong> or <strong>J</strong> depending on the wind direction. Good luck!<br><img src=""img/categorize_planet_example.png""",NA,NA,NA,NA,NA,NA,NA,NA,NA,4,6,"8,11,10,2,6,9,5,3,12,15,1,7,4,13,14"
14463,commdev-image-keyboard-response,48,660096,learnblock1,null,img/planet1_left.png,1,Community 3,NA,FALSE,null,f,NA,NA,NA,4,6,"8,11,10,2,6,9,5,3,12,15,1,7,4,13,14"
14463,commdev-image-keyboard-response,49,661350,learnblock1,1051.3000000715256,img/planet6_right.png,6,Community 1,NA,TRUE,j,j,NA,NA,NA,4,6,"8,11,10,2,6,9,5,3,12,15,1,7,4,13,14"
14463,commdev-image-keyboard-response,50,662609,learnblock1,585.8000000715256,img/planet8_right.png,8,Community 1,NA,FALSE,f,j,NA,NA,NA,4,6,"8,11,10,2,6,9,5,3,12,15,1,7,4,13,14"
14463,commdev-image-keyboard-response,51,663866,learnblock1,117.19999992847443,img/planet11_right.png,11,Community 1,NA,TRUE,j,j,NA,NA,NA,4,6,"8,11,10,2,6,9,5,3,12,15,1,7,4,13,14"
14463,commdev-image-keyboard-response,52,665124,learnblock1,142.60000002384186,img/planet2_right.png,2,Community 1,NA,TRUE,j,j,NA,NA,NA,4,6,"8,11,10,2,6,9,5,3,12,15,1,7,4,13,14"
14463,commdev-image-keyboard-response,53,666386,learnblock1,333.39999997615814,img/planet8_right.png,8,Community 1,NA,TRUE,j,j,NA,NA,NA,4,6,"8,11,10,2,6,9,5,3,12,15,1,7,4,13,14"
14463,commdev-image-keyboard-response,54,667646,learnblock1,984.2999999523163,img/planet6_left.png,6,Community 1,NA,TRUE,f,f,NA,NA,NA,4,6,"8,11,10,2,6,9,5,3,12,15,1,7,4,13,14"
14463,commdev-image-keyboard-response,55,668916,learnblock1,791.8999999761581,img/planet8_right.png,8,Community 1,NA,TRUE,j,j,NA,NA,NA,4,6,"8,11,10,2,6,9,5,3,12,15,1,7,4,13,14"
14463,commdev-image-keyboard-response,56,670176,learnblock1,201.60000002384186,img/planet10_right.png,10,Community 1,NA,TRUE,j,j,NA,NA,NA,4,6,"8,11,10,2,6,9,5,3,12,15,1,7,4,13,14"
14463,commdev-image-keyboard-response,57,671446,learnblock1,306.2999999523163,img/planet11_left.png,11,Community 1,NA,FALSE,j,f,NA,NA,NA,4,6,"8,11,10,2,6,9,5,3,12,15,1,7,4,13,14"
14463,commdev-image-keyboard-response,58,672706,learnblock1,486.60000002384186,img/planet2_left.png,2,Community 1,NA,FALSE,j,f,NA,NA,NA,4,6,"8,11,10,2,6,9,5,3,12,15,1,7,4,13,14"
14463,commdev-image-keyboard-response,59,673976,learnblock1,705.7000000476837,img/planet11_left.png,11,Community 1,NA,TRUE,f,f,NA,NA,NA,4,6,"8,11,10,2,6,9,5,3,12,15,1,7,4,13,14"
14463,commdev-image-keyboard-response,60,675236,learnblock1,711.3999999761581,img/planet2_right.png,2,Community 1,NA,TRUE,j,j,NA,NA,NA,4,6,"8,11,10,2,6,9,5,3,12,15,1,7,4,13,14"
14463,commdev-image-keyboard-response,61,676506,learnblock1,747.3999999761581,img/planet8_left.png,8,Community 1,NA,TRUE,f,f,NA,NA,NA,4,6,"8,11,10,2,6,9,5,3,12,15,1,7,4,13,14"
14463,commdev-image-keyboard-response,62,677766,learnblock1,724.6000000238419,img/planet2_left.png,2,Community 1,NA,TRUE,f,f,NA,NA,NA,4,6,"8,11,10,2,6,9,5,3,12,15,1,7,4,13,14"
14463,commdev-image-keyboard-response,63,679026,learnblock1,668.6000000238419,img/planet10_left.png,10,Community 1,NA,TRUE,f,f,NA,NA,NA,4,6,"8,11,10,2,6,9,5,3,12,15,1,7,4,13,14"
14463,commdev-image-keyboard-response,64,680278,learnblock1,523.6999999284744,img/planet6_left.png,6,Community 1,NA,TRUE,f,f,NA,NA,NA,4,6,"8,11,10,2,6,9,5,3,12,15,1,7,4,13,14"
14463,commdev-image-keyboard-response,65,681530,learnblock1,785.6000000238419,img/planet8_right.png,8,Community 1,NA,TRUE,j,j,NA,NA,NA,4,6,"8,11,10,2,6,9,5,3,12,15,1,7,4,13,14"
14463,commdev-image-keyboard-response,66,682782,learnblock1,672.1000000238419,img/planet10_right.png,10,Community 1,NA,TRUE,j,j,NA,NA,NA,4,6,"8,11,10,2,6,9,5,3,12,15,1,7,4,13,14"
14463,commdev-image-keyboard-response,67,684034,learnblock1,702.7000000476837,img/planet8_left.png,8,Community 1,NA,TRUE,f,f,NA,NA,NA,4,6,"8,11,10,2,6,9,5,3,12,15,1,7,4,13,14"
14463,commdev-image-keyboard-response,68,685287,learnblock1,568.7999999523163,img/planet2_left.png,2,Community 1,NA,TRUE,f,f,NA,NA,NA,4,6,"8,11,10,2,6,9,5,3,12,15,1,7,4,13,14"
14463,commdev-image-keyboard-response,69,686539,learnblock1,771.7999999523163,img/planet11_right.png,11,Community 1,NA,TRUE,j,j,NA,NA,NA,4,6,"8,11,10,2,6,9,5,3,12,15,1,7,4,13,14"
14463,commdev-image-keyboard-response,70,687791,learnblock1,1078,img/planet2_right.png,2,Community 1,NA,TRUE,j,j,NA,NA,NA,4,6,"8,11,10,2,6,9,5,3,12,15,1,7,4,13,14"
14463,commdev-image-keyboard-response,71,689043,learnblock1,782,img/planet10_left.png,10,Community 1,NA,TRUE,f,f,NA,NA,NA,4,6,"8,11,10,2,6,9,5,3,12,15,1,7,4,13,14"
14463,commdev-image-keyboard-response,72,690295,learnblock1,732.1999999284744,img/planet11_left.png,11,Community 1,NA,TRUE,f,f,NA,NA,NA,4,6,"8,11,10,2,6,9,5,3,12,15,1,7,4,13,14"
14463,commdev-image-keyboard-response,73,691547,learnblock1,864.5,img/planet6_left.png,6,Community 1,NA,TRUE,f,f,NA,NA,NA,4,6,"8,11,10,2,6,9,5,3,12,15,1,7,4,13,14"
14463,commdev-image-keyboard-response,74,692799,learnblock1,675.3999999761581,img/planet8_left.png,8,Community 1,NA,TRUE,f,f,NA,NA,NA,4,6,"8,11,10,2,6,9,5,3,12,15,1,7,4,13,14"
14463,commdev-image-keyboard-response,75,694051,learnblock1,677.1000000238419,img/planet6_right.png,6,Community 1,NA,TRUE,j,j,NA,NA,NA,4,6,"8,11,10,2,6,9,5,3,12,15,1,7,4,13,14"
14463,commdev-image-keyboard-response,76,695303,learnblock1,507.39999997615814,img/planet1_right.png,1,Community 3,NA,TRUE,j,j,NA,NA,NA,4,6,"8,11,10,2,6,9,5,3,12,15,1,7,4,13,14"
14463,commdev-image-keyboard-response,77,696554,learnblock1,459,img/planet14_left.png,14,Community 3,NA,FALSE,j,f,NA,NA,NA,4,6,"8,11,10,2,6,9,5,3,12,15,1,7,4,13,14"
14463,commdev-image-keyboard-response,78,697807,learnblock1,877.1999999284744,img/planet1_right.png,1,Community 3,NA,TRUE,j,j,NA,NA,NA,4,6,"8,11,10,2,6,9,5,3,12,15,1,7,4,13,14"
14463,commdev-image-keyboard-response,79,699057,learnblock1,780.2999999523163,img/planet14_right.png,14,Community 3,NA,TRUE,j,j,NA,NA,NA,4,6,"8,11,10,2,6,9,5,3,12,15,1,7,4,13,14"
14463,commdev-image-keyboard-response,80,700310,learnblock1,607.3000000715256,img/planet1_left.png,1,Community 3,NA,TRUE,f,f,NA,NA,NA,4,6,"8,11,10,2,6,9,5,3,12,15,1,7,4,13,14"
14463,commdev-image-keyboard-response,81,701562,learnblock1,629,img/planet6_left.png,6,Community 1,NA,TRUE,f,f,NA,NA,NA,4,6,"8,11,10,2,6,9,5,3,12,15,1,7,4,13,14"
14463,commdev-image-keyboard-response,82,702814,learnblock1,667.3999999761581,img/planet11_right.png,11,Community 1,NA,TRUE,j,j,NA,NA,NA,4,6,"8,11,10,2,6,9,5,3,12,15,1,7,4,13,14"
14463,commdev-image-keyboard-response,83,704066,learnblock1,718,img/planet6_left.png,6,Community 1,NA,TRUE,f,f,NA,NA,NA,4,6,"8,11,10,2,6,9,5,3,12,15,1,7,4,13,14"
14463,commdev-image-keyboard-response,84,705318,learnblock1,661.5,img/planet1_right.png,1,Community 3,NA,TRUE,j,j,NA,NA,NA,4,6,"8,11,10,2,6,9,5,3,12,15,1,7,4,13,14"
14463,commdev-image-keyboard-response,85,706569,learnblock1,569,img/planet6_left.png,6,Community 1,NA,TRUE,f,f,NA,NA,NA,4,6,"8,11,10,2,6,9,5,3,12,15,1,7,4,13,14"
14463,commdev-image-keyboard-response,86,707821,learnblock1,690.8999999761581,img/planet1_right.png,1,Community 3,NA,TRUE,j,j,NA,NA,NA,4,6,"8,11,10,2,6,9,5,3,12,15,1,7,4,13,14"
14463,commdev-image-keyboard-response,87,709073,learnblock1,486.39999997615814,img/planet4_left.png,4,Community 3,NA,TRUE,f,f,NA,NA,NA,4,6,"8,11,10,2,6,9,5,3,12,15,1,7,4,13,14"
14463,commdev-image-keyboard-response,88,710324,learnblock1,667.5,img/planet14_left.png,14,Community 3,NA,TRUE,f,f,NA,NA,NA,4,6,"8,11,10,2,6,9,5,3,12,15,1,7,4,13,14"
14463,commdev-image-keyboard-response,89,711576,learnblock1,651.3999999761581,img/planet4_right.png,4,Community 3,NA,TRUE,j,j,NA,NA,NA,4,6,"8,11,10,2,6,9,5,3,12,15,1,7,4,13,14"
14463,commdev-image-keyboard-response,90,712830,learnblock1,623.1000000238419,img/planet14_left.png,14,Community 3,NA,TRUE,f,f,NA,NA,NA,4,6,"8,11,10,2,6,9,5,3,12,15,1,7,4,13,14"
14463,commdev-image-keyboard-response,91,714083,learnblock1,655.6000000238419,img/planet1_right.png,1,Community 3,NA,TRUE,j,j,NA,NA,NA,4,6,"8,11,10,2,6,9,5,3,12,15,1,7,4,13,14"
14463,commdev-image-keyboard-response,92,715334,learnblock1,615.6999999284744,img/planet6_left.png,6,Community 1,NA,TRUE,f,f,NA,NA,NA,4,6,"8,11,10,2,6,9,5,3,12,15,1,7,4,13,14"
14463,commdev-image-keyboard-response,93,716585,learnblock1,969.2999999523163,img/planet10_left.png,10,Community 1,NA,TRUE,f,f,NA,NA,NA,4,6,"8,11,10,2,6,9,5,3,12,15,1,7,4,13,14"
14463,commdev-image-keyboard-response,94,717837,learnblock1,664.6999999284744,img/planet11_right.png,11,Community 1,NA,TRUE,j,j,NA,NA,NA,4,6,"8,11,10,2,6,9,5,3,12,15,1,7,4,13,14"
14463,commdev-image-keyboard-response,95,719089,learnblock1,980.6000000238419,img/planet6_right.png,6,Community 1,NA,TRUE,j,j,NA,NA,NA,4,6,"8,11,10,2,6,9,5,3,12,15,1,7,4,13,14"
14463,commdev-image-keyboard-response,96,720341,learnblock1,781.7999999523163,img/planet8_left.png,8,Community 1,NA,TRUE,f,f,NA,NA,NA,4,6,"8,11,10,2,6,9,5,3,12,15,1,7,4,13,14"
14463,commdev-image-keyboard-response,97,721593,learnblock1,874.3999999761581,img/planet11_right.png,11,Community 1,NA,TRUE,j,j,NA,NA,NA,4,6,"8,11,10,2,6,9,5,3,12,15,1,7,4,13,14"
14463,commdev-image-keyboard-response,98,722845,learnblock1,681.6000000238419,img/planet2_right.png,2,Community 1,NA,TRUE,j,j,NA,NA,NA,4,6,"8,11,10,2,6,9,5,3,12,15,1,7,4,13,14"
14463,commdev-image-keyboard-response,99,724097,learnblock1,428.5,img/planet10_right.png,10,Community 1,NA,TRUE,j,j,NA,NA,NA,4,6,"8,11,10,2,6,9,5,3,12,15,1,7,4,13,14"
14463,commdev-image-keyboard-response,100,725349,learnblock1,539.0999999046326,img/planet2_right.png,2,Community 1,NA,TRUE,j,j,NA,NA,NA,4,6,"8,11,10,2,6,9,5,3,12,15,1,7,4,13,14"
14463,commdev-image-keyboard-response,101,726601,learnblock1,302.10000002384186,img/planet11_left.png,11,Community 1,NA,FALSE,j,f,NA,NA,NA,4,6,"8,11,10,2,6,9,5,3,12,15,1,7,4,13,14"
14463,commdev-image-keyboard-response,102,727853,learnblock1,105,img/planet2_left.png,2,Community 1,NA,TRUE,f,f,NA,NA,NA,4,6,"8,11,10,2,6,9,5,3,12,15,1,7,4,13,14"
14463,commdev-image-keyboard-response,103,729104,learnblock1,744.8000000715256,img/planet8_left.png,8,Community 1,NA,TRUE,f,f,NA,NA,NA,4,6,"8,11,10,2,6,9,5,3,12,15,1,7,4,13,14"
14463,commdev-image-keyboard-response,104,730357,learnblock1,658.2000000476837,img/planet11_left.png,11,Community 1,NA,TRUE,f,f,NA,NA,NA,4,6,"8,11,10,2,6,9,5,3,12,15,1,7,4,13,14"
14463,commdev-image-keyboard-response,105,731609,learnblock1,665.3000000715256,img/planet10_right.png,10,Community 1,NA,TRUE,j,j,NA,NA,NA,4,6,"8,11,10,2,6,9,5,3,12,15,1,7,4,13,14"
14463,commdev-image-keyboard-response,106,732861,learnblock1,464.10000002384186,img/planet2_right.png,2,Community 1,NA,TRUE,j,j,NA,NA,NA,4,6,"8,11,10,2,6,9,5,3,12,15,1,7,4,13,14"
14463,commdev-image-keyboard-response,107,734112,learnblock1,658.1000000238419,img/planet8_left.png,8,Community 1,NA,TRUE,f,f,NA,NA,NA,4,6,"8,11,10,2,6,9,5,3,12,15,1,7,4,13,14"
14463,commdev-image-keyboard-response,108,735364,learnblock1,562.7000000476837,img/planet6_left.png,6,Community 1,NA,TRUE,f,f,NA,NA,NA,4,6,"8,11,10,2,6,9,5,3,12,15,1,7,4,13,14"
14463,commdev-image-keyboard-response,109,736616,learnblock1,543.2999999523163,img/planet1_left.png,1,Community 3,NA,TRUE,f,f,NA,NA,NA,4,6,"8,11,10,2,6,9,5,3,12,15,1,7,4,13,14"
14463,commdev-image-keyboard-response,110,737868,learnblock1,658.2000000476837,img/planet4_right.png,4,Community 3,NA,TRUE,j,j,NA,NA,NA,4,6,"8,11,10,2,6,9,5,3,12,15,1,7,4,13,14"
14463,commdev-image-keyboard-response,111,739120,learnblock1,304.2999999523163,img/planet1_right.png,1,Community 3,NA,FALSE,f,j,NA,NA,NA,4,6,"8,11,10,2,6,9,5,3,12,15,1,7,4,13,14"
14463,commdev-image-keyboard-response,112,740371,learnblock1,756.6000000238419,img/planet14_right.png,14,Community 3,NA,TRUE,j,j,NA,NA,NA,4,6,"8,11,10,2,6,9,5,3,12,15,1,7,4,13,14"
14463,commdev-image-keyboard-response,113,741623,learnblock1,741.4000000953674,img/planet7_left.png,7,Community 3,NA,TRUE,f,f,NA,NA,NA,4,6,"8,11,10,2,6,9,5,3,12,15,1,7,4,13,14"
14463,commdev-image-keyboard-response,114,742874,learnblock1,840.7999999523163,img/planet3_right.png,3,Community 2,NA,TRUE,j,j,NA,NA,NA,4,6,"8,11,10,2,6,9,5,3,12,15,1,7,4,13,14"
14463,commdev-image-keyboard-response,115,744127,learnblock1,581.5,img/planet7_left.png,7,Community 3,NA,TRUE,f,f,NA,NA,NA,4,6,"8,11,10,2,6,9,5,3,12,15,1,7,4,13,14"
14463,commdev-image-keyboard-response,116,745380,learnblock1,499,img/planet4_left.png,4,Community 3,NA,FALSE,j,f,NA,NA,NA,4,6,"8,11,10,2,6,9,5,3,12,15,1,7,4,13,14"
14463,commdev-image-keyboard-response,117,746632,learnblock1,765.3999999761581,img/planet13_right.png,13,Community 3,NA,TRUE,j,j,NA,NA,NA,4,6,"8,11,10,2,6,9,5,3,12,15,1,7,4,13,14"
14463,commdev-image-keyboard-response,118,747884,learnblock1,529.7999999523163,img/planet1_left.png,1,Community 3,NA,TRUE,f,f,NA,NA,NA,4,6,"8,11,10,2,6,9,5,3,12,15,1,7,4,13,14"
14463,commdev-image-keyboard-response,119,749137,learnblock1,724.2000000476837,img/planet6_right.png,6,Community 1,NA,TRUE,j,j,NA,NA,NA,4,6,"8,11,10,2,6,9,5,3,12,15,1,7,4,13,14"
14463,commdev-image-keyboard-response,120,750389,learnblock1,694.6999999284744,img/planet8_right.png,8,Community 1,NA,TRUE,j,j,NA,NA,NA,4,6,"8,11,10,2,6,9,5,3,12,15,1,7,4,13,14"
14463,commdev-image-keyboard-response,121,751641,learnblock1,782.4000000953674,img/planet6_right.png,6,Community 1,NA,TRUE,j,j,NA,NA,NA,4,6,"8,11,10,2,6,9,5,3,12,15,1,7,4,13,14"
14463,commdev-image-keyboard-response,122,752893,learnblock1,673.8999999761581,img/planet11_right.png,11,Community 1,NA,TRUE,j,j,NA,NA,NA,4,6,"8,11,10,2,6,9,5,3,12,15,1,7,4,13,14"
14463,commdev-image-keyboard-response,123,754144,learnblock1,598.3999999761581,img/planet2_right.png,2,Community 1,NA,TRUE,j,j,NA,NA,NA,4,6,"8,11,10,2,6,9,5,3,12,15,1,7,4,13,14"
14463,commdev-image-keyboard-response,124,755397,learnblock1,443.1999999284744,img/planet10_left.png,10,Community 1,NA,TRUE,f,f,NA,NA,NA,4,6,"8,11,10,2,6,9,5,3,12,15,1,7,4,13,14"
14463,commdev-image-keyboard-response,125,756648,learnblock1,519.1000000238419,img/planet11_left.png,11,Community 1,NA,TRUE,f,f,NA,NA,NA,4,6,"8,11,10,2,6,9,5,3,12,15,1,7,4,13,14"
14463,commdev-image-keyboard-response,126,757912,learnblock1,458.2999999523163,img/planet2_left.png,2,Community 1,NA,TRUE,f,f,NA,NA,NA,4,6,"8,11,10,2,6,9,5,3,12,15,1,7,4,13,14"
14463,commdev-image-keyboard-response,127,759165,learnblock1,563.5,img/planet8_left.png,8,Community 1,NA,TRUE,f,f,NA,NA,NA,4,6,"8,11,10,2,6,9,5,3,12,15,1,7,4,13,14"
14463,commdev-image-keyboard-response,128,760416,learnblock1,511.89999997615814,img/planet10_right.png,10,Community 1,NA,TRUE,j,j,NA,NA,NA,4,6,"8,11,10,2,6,9,5,3,12,15,1,7,4,13,14"
14463,commdev-image-keyboard-response,129,761669,learnblock1,565.2000000476837,img/planet2_right.png,2,Community 1,NA,TRUE,j,j,NA,NA,NA,4,6,"8,11,10,2,6,9,5,3,12,15,1,7,4,13,14"
14463,commdev-image-keyboard-response,130,762922,learnblock1,565.3000000715256,img/planet10_right.png,10,Community 1,NA,TRUE,j,j,NA,NA,NA,4,6,"8,11,10,2,6,9,5,3,12,15,1,7,4,13,14"
14463,commdev-image-keyboard-response,131,764174,learnblock1,538.6000000238419,img/planet11_right.png,11,Community 1,NA,TRUE,j,j,NA,NA,NA,4,6,"8,11,10,2,6,9,5,3,12,15,1,7,4,13,14"
14463,commdev-image-keyboard-response,132,765426,learnblock1,444.5,img/planet6_left.png,6,Community 1,NA,TRUE,f,f,NA,NA,NA,4,6,"8,11,10,2,6,9,5,3,12,15,1,7,4,13,14"
14463,commdev-image-keyboard-response,133,766678,learnblock1,468.6999999284744,img/planet1_right.png,1,Community 3,NA,TRUE,j,j,NA,NA,NA,4,6,"8,11,10,2,6,9,5,3,12,15,1,7,4,13,14"
14463,commdev-image-keyboard-response,134,767930,learnblock1,426.60000002384186,img/planet6_left.png,6,Community 1,NA,TRUE,f,f,NA,NA,NA,4,6,"8,11,10,2,6,9,5,3,12,15,1,7,4,13,14"
14463,commdev-image-keyboard-response,135,769182,learnblock1,434.09999990463257,img/planet10_left.png,10,Community 1,NA,FALSE,j,f,NA,NA,NA,4,6,"8,11,10,2,6,9,5,3,12,15,1,7,4,13,14"
14463,commdev-image-keyboard-response,136,770435,learnblock1,674,img/planet8_left.png,8,Community 1,NA,FALSE,j,f,NA,NA,NA,4,6,"8,11,10,2,6,9,5,3,12,15,1,7,4,13,14"
14463,commdev-image-keyboard-response,137,771687,learnblock1,66.60000002384186,img/planet6_right.png,6,Community 1,NA,FALSE,f,j,NA,NA,NA,4,6,"8,11,10,2,6,9,5,3,12,15,1,7,4,13,14"
14463,commdev-image-keyboard-response,138,772938,learnblock1,645,img/planet10_right.png,10,Community 1,NA,TRUE,j,j,NA,NA,NA,4,6,"8,11,10,2,6,9,5,3,12,15,1,7,4,13,14"
14463,commdev-image-keyboard-response,139,774205,learnblock1,561.2999999523163,img/planet11_left.png,11,Community 1,NA,FALSE,j,f,NA,NA,NA,4,6,"8,11,10,2,6,9,5,3,12,15,1,7,4,13,14"
14463,commdev-image-keyboard-response,140,775457,learnblock1,null,img/planet2_right.png,2,Community 1,NA,FALSE,null,j,NA,NA,NA,4,6,"8,11,10,2,6,9,5,3,12,15,1,7,4,13,14"
14463,commdev-image-keyboard-response,141,776709,learnblock1,71,img/planet8_left.png,8,Community 1,NA,FALSE,j,f,NA,NA,NA,4,6,"8,11,10,2,6,9,5,3,12,15,1,7,4,13,14"
14463,commdev-image-keyboard-response,142,777961,learnblock1,839.3000000715256,img/planet2_left.png,2,Community 1,NA,TRUE,f,f,NA,NA,NA,4,6,"8,11,10,2,6,9,5,3,12,15,1,7,4,13,14"
14463,commdev-image-keyboard-response,143,779213,learnblock1,617.4000000953674,img/planet11_left.png,11,Community 1,NA,TRUE,f,f,NA,NA,NA,4,6,"8,11,10,2,6,9,5,3,12,15,1,7,4,13,14"
14463,commdev-image-keyboard-response,144,780465,learnblock1,587.8999999761581,img/planet6_right.png,6,Community 1,NA,FALSE,f,j,NA,NA,NA,4,6,"8,11,10,2,6,9,5,3,12,15,1,7,4,13,14"
14463,commdev-image-keyboard-response,145,781717,learnblock1,862.9000000953674,img/planet1_right.png,1,Community 3,NA,TRUE,j,j,NA,NA,NA,4,6,"8,11,10,2,6,9,5,3,12,15,1,7,4,13,14"
14463,commdev-image-keyboard-response,146,782969,learnblock1,796.7000000476837,img/planet4_right.png,4,Community 3,NA,TRUE,j,j,NA,NA,NA,4,6,"8,11,10,2,6,9,5,3,12,15,1,7,4,13,14"
14463,commdev-image-keyboard-response,147,784221,learnblock1,699.9000000953674,img/planet13_right.png,13,Community 3,NA,TRUE,j,j,NA,NA,NA,4,6,"8,11,10,2,6,9,5,3,12,15,1,7,4,13,14"
14463,commdev-image-keyboard-response,148,785472,learnblock1,691.5,img/planet7_left.png,7,Community 3,NA,TRUE,f,f,NA,NA,NA,4,6,"8,11,10,2,6,9,5,3,12,15,1,7,4,13,14"
14463,commdev-image-keyboard-response,149,786724,learnblock1,734,img/planet4_right.png,4,Community 3,NA,TRUE,j,j,NA,NA,NA,4,6,"8,11,10,2,6,9,5,3,12,15,1,7,4,13,14"
14463,commdev-image-keyboard-response,150,787976,learnblock1,659.5,img/planet13_right.png,13,Community 3,NA,TRUE,j,j,NA,NA,NA,4,6,"8,11,10,2,6,9,5,3,12,15,1,7,4,13,14"
14463,commdev-image-keyboard-response,151,789229,learnblock1,756.1000000238419,img/planet1_left.png,1,Community 3,NA,TRUE,f,f,NA,NA,NA,4,6,"8,11,10,2,6,9,5,3,12,15,1,7,4,13,14"
14463,commdev-image-keyboard-response,152,790482,learnblock1,1200,img/planet6_right.png,6,Community 1,NA,FALSE,f,j,NA,NA,NA,4,6,"8,11,10,2,6,9,5,3,12,15,1,7,4,13,14"
14463,commdev-image-keyboard-response,153,791733,learnblock1,625.2000000476837,img/planet11_right.png,11,Community 1,NA,TRUE,j,j,NA,NA,NA,4,6,"8,11,10,2,6,9,5,3,12,15,1,7,4,13,14"
14463,commdev-image-keyboard-response,154,792985,learnblock1,652.1000000238419,img/planet2_left.png,2,Community 1,NA,TRUE,f,f,NA,NA,NA,4,6,"8,11,10,2,6,9,5,3,12,15,1,7,4,13,14"
14463,commdev-image-keyboard-response,155,794237,learnblock1,1068.2000000476837,img/planet8_right.png,8,Community 1,NA,TRUE,j,j,NA,NA,NA,4,6,"8,11,10,2,6,9,5,3,12,15,1,7,4,13,14"
14463,commdev-image-keyboard-response,156,795489,learnblock1,774.3999999761581,img/planet6_left.png,6,Community 1,NA,TRUE,f,f,NA,NA,NA,4,6,"8,11,10,2,6,9,5,3,12,15,1,7,4,13,14"
14463,commdev-image-keyboard-response,157,796741,learnblock1,83.39999997615814,img/planet11_left.png,11,Community 1,NA,TRUE,f,f,NA,NA,NA,4,6,"8,11,10,2,6,9,5,3,12,15,1,7,4,13,14"
14463,commdev-image-keyboard-response,158,797994,learnblock1,775.3999999761581,img/planet6_right.png,6,Community 1,NA,TRUE,j,j,NA,NA,NA,4,6,"8,11,10,2,6,9,5,3,12,15,1,7,4,13,14"
14463,commdev-image-keyboard-response,159,799245,learnblock1,944.6000000238419,img/planet11_right.png,11,Community 1,NA,FALSE,f,j,NA,NA,NA,4,6,"8,11,10,2,6,9,5,3,12,15,1,7,4,13,14"
14463,commdev-image-keyboard-response,160,800496,learnblock1,null,img/planet6_right.png,6,Community 1,NA,FALSE,null,j,NA,NA,NA,4,6,"8,11,10,2,6,9,5,3,12,15,1,7,4,13,14"
14463,commdev-image-keyboard-response,161,801749,learnblock1,1078,img/planet8_right.png,8,Community 1,NA,TRUE,j,j,NA,NA,NA,4,6,"8,11,10,2,6,9,5,3,12,15,1,7,4,13,14"
14463,commdev-image-keyboard-response,162,803001,learnblock1,null,img/planet10_right.png,10,Community 1,NA,FALSE,null,j,NA,NA,NA,4,6,"8,11,10,2,6,9,5,3,12,15,1,7,4,13,14"
14463,commdev-image-keyboard-response,163,804252,learnblock1,214,img/planet11_left.png,11,Community 1,NA,FALSE,j,f,NA,NA,NA,4,6,"8,11,10,2,6,9,5,3,12,15,1,7,4,13,14"
14463,commdev-image-keyboard-response,164,805504,learnblock1,512.6000000238419,img/planet10_left.png,10,Community 1,NA,FALSE,j,f,NA,NA,NA,4,6,"8,11,10,2,6,9,5,3,12,15,1,7,4,13,14"
14463,commdev-image-keyboard-response,165,806756,learnblock1,466.3000000715256,img/planet6_left.png,6,Community 1,NA,FALSE,j,f,NA,NA,NA,4,6,"8,11,10,2,6,9,5,3,12,15,1,7,4,13,14"
14463,commdev-image-keyboard-response,166,808008,learnblock1,619.5,img/planet10_left.png,10,Community 1,NA,TRUE,f,f,NA,NA,NA,4,6,"8,11,10,2,6,9,5,3,12,15,1,7,4,13,14"
14463,commdev-image-keyboard-response,167,809260,learnblock1,773.8000000715256,img/planet11_right.png,11,Community 1,NA,TRUE,j,j,NA,NA,NA,4,6,"8,11,10,2,6,9,5,3,12,15,1,7,4,13,14"
14463,commdev-image-keyboard-response,168,810512,learnblock1,453.89999997615814,img/planet10_left.png,10,Community 1,NA,TRUE,f,f,NA,NA,NA,4,6,"8,11,10,2,6,9,5,3,12,15,1,7,4,13,14"
14463,commdev-image-keyboard-response,169,811764,learnblock1,743.2000000476837,img/planet8_right.png,8,Community 1,NA,TRUE,j,j,NA,NA,NA,4,6,"8,11,10,2,6,9,5,3,12,15,1,7,4,13,14"
14463,commdev-image-keyboard-response,170,813016,learnblock1,876.4000000953674,img/planet2_right.png,2,Community 1,NA,FALSE,f,j,NA,NA,NA,4,6,"8,11,10,2,6,9,5,3,12,15,1,7,4,13,14"
14463,commdev-image-keyboard-response,171,814269,learnblock1,688.6999999284744,img/planet10_right.png,10,Community 1,NA,TRUE,j,j,NA,NA,NA,4,6,"8,11,10,2,6,9,5,3,12,15,1,7,4,13,14"
14463,commdev-image-keyboard-response,172,815521,learnblock1,748.8999999761581,img/planet6_right.png,6,Community 1,NA,TRUE,j,j,NA,NA,NA,4,6,"8,11,10,2,6,9,5,3,12,15,1,7,4,13,14"
14463,commdev-image-keyboard-response,173,816772,learnblock1,587.5,img/planet1_left.png,1,Community 3,NA,TRUE,f,f,NA,NA,NA,4,6,"8,11,10,2,6,9,5,3,12,15,1,7,4,13,14"
14463,commdev-image-keyboard-response,174,818027,learnblock1,673.7000000476837,img/planet13_right.png,13,Community 3,NA,TRUE,j,j,NA,NA,NA,4,6,"8,11,10,2,6,9,5,3,12,15,1,7,4,13,14"
14463,commdev-image-keyboard-response,175,819280,learnblock1,555.5999999046326,img/planet14_right.png,14,Community 3,NA,FALSE,f,j,NA,NA,NA,4,6,"8,11,10,2,6,9,5,3,12,15,1,7,4,13,14"
14463,commdev-image-keyboard-response,176,820532,learnblock1,688.3000000715256,img/planet1_right.png,1,Community 3,NA,TRUE,j,j,NA,NA,NA,4,6,"8,11,10,2,6,9,5,3,12,15,1,7,4,13,14"
14463,commdev-image-keyboard-response,177,821785,learnblock1,567.8000000715256,img/planet14_right.png,14,Community 3,NA,TRUE,j,j,NA,NA,NA,4,6,"8,11,10,2,6,9,5,3,12,15,1,7,4,13,14"
14463,commdev-image-keyboard-response,178,823036,learnblock1,537.8999999761581,img/planet1_right.png,1,Community 3,NA,TRUE,j,j,NA,NA,NA,4,6,"8,11,10,2,6,9,5,3,12,15,1,7,4,13,14"
14463,commdev-image-keyboard-response,179,824288,learnblock1,407.39999997615814,img/planet13_left.png,13,Community 3,NA,FALSE,j,f,NA,NA,NA,4,6,"8,11,10,2,6,9,5,3,12,15,1,7,4,13,14"
14463,commdev-image-keyboard-response,180,825540,learnblock1,111,img/planet4_left.png,4,Community 3,NA,TRUE,f,f,NA,NA,NA,4,6,"8,11,10,2,6,9,5,3,12,15,1,7,4,13,14"
14463,commdev-image-keyboard-response,181,826791,learnblock1,661.2999999523163,img/planet14_left.png,14,Community 3,NA,TRUE,f,f,NA,NA,NA,4,6,"8,11,10,2,6,9,5,3,12,15,1,7,4,13,14"
14463,commdev-image-keyboard-response,182,828042,learnblock1,729.2999999523163,img/planet1_right.png,1,Community 3,NA,TRUE,j,j,NA,NA,NA,4,6,"8,11,10,2,6,9,5,3,12,15,1,7,4,13,14"
14463,commdev-image-keyboard-response,183,829294,learnblock1,821.3000000715256,img/planet13_left.png,13,Community 3,NA,TRUE,f,f,NA,NA,NA,4,6,"8,11,10,2,6,9,5,3,12,15,1,7,4,13,14"
14463,commdev-image-keyboard-response,184,830547,learnblock1,1088.8999999761581,img/planet7_right.png,7,Community 3,NA,TRUE,j,j,NA,NA,NA,4,6,"8,11,10,2,6,9,5,3,12,15,1,7,4,13,14"
14463,commdev-image-keyboard-response,185,831798,learnblock1,684.6000000238419,img/planet13_right.png,13,Community 3,NA,FALSE,f,j,NA,NA,NA,4,6,"8,11,10,2,6,9,5,3,12,15,1,7,4,13,14"
14463,commdev-image-keyboard-response,186,833051,learnblock1,413.60000002384186,img/planet7_right.png,7,Community 3,NA,TRUE,j,j,NA,NA,NA,4,6,"8,11,10,2,6,9,5,3,12,15,1,7,4,13,14"
14463,commdev-image-keyboard-response,187,834302,learnblock1,874.6000000238419,img/planet3_left.png,3,Community 2,NA,TRUE,f,f,NA,NA,NA,4,6,"8,11,10,2,6,9,5,3,12,15,1,7,4,13,14"
14463,commdev-image-keyboard-response,188,835554,learnblock1,791.5,img/planet15_left.png,15,Community 2,NA,TRUE,f,f,NA,NA,NA,4,6,"8,11,10,2,6,9,5,3,12,15,1,7,4,13,14"
14463,commdev-image-keyboard-response,189,836806,learnblock1,710.6000000238419,img/planet9_left.png,9,Community 2,NA,TRUE,f,f,NA,NA,NA,4,6,"8,11,10,2,6,9,5,3,12,15,1,7,4,13,14"
14463,commdev-image-keyboard-response,190,838057,learnblock1,641.6999999284744,img/planet12_left.png,12,Community 2,NA,TRUE,f,f,NA,NA,NA,4,6,"8,11,10,2,6,9,5,3,12,15,1,7,4,13,14"
14463,commdev-image-keyboard-response,191,839309,learnblock1,395.7999999523163,img/planet15_right.png,15,Community 2,NA,TRUE,j,j,NA,NA,NA,4,6,"8,11,10,2,6,9,5,3,12,15,1,7,4,13,14"
14463,commdev-image-keyboard-response,192,840564,learnblock1,606.5,img/planet12_left.png,12,Community 2,NA,TRUE,f,f,NA,NA,NA,4,6,"8,11,10,2,6,9,5,3,12,15,1,7,4,13,14"
14463,commdev-image-keyboard-response,193,841816,learnblock1,545.5,img/planet15_right.png,15,Community 2,NA,TRUE,j,j,NA,NA,NA,4,6,"8,11,10,2,6,9,5,3,12,15,1,7,4,13,14"
14463,commdev-image-keyboard-response,194,843067,learnblock1,620.4000000953674,img/planet9_left.png,9,Community 2,NA,TRUE,f,f,NA,NA,NA,4,6,"8,11,10,2,6,9,5,3,12,15,1,7,4,13,14"
14463,commdev-image-keyboard-response,195,844319,learnblock1,485.6999999284744,img/planet2_left.png,2,Community 1,NA,FALSE,j,f,NA,NA,NA,4,6,"8,11,10,2,6,9,5,3,12,15,1,7,4,13,14"
14463,commdev-image-keyboard-response,196,845576,learnblock1,727.3000000715256,img/planet10_left.png,10,Community 1,NA,TRUE,f,f,NA,NA,NA,4,6,"8,11,10,2,6,9,5,3,12,15,1,7,4,13,14"
14463,commdev-image-keyboard-response,197,846827,learnblock1,646.4000000953674,img/planet8_right.png,8,Community 1,NA,FALSE,f,j,NA,NA,NA,4,6,"8,11,10,2,6,9,5,3,12,15,1,7,4,13,14"
14463,commdev-image-keyboard-response,198,848079,learnblock1,337.90000009536743,img/planet10_right.png,10,Community 1,NA,FALSE,f,j,NA,NA,NA,4,6,"8,11,10,2,6,9,5,3,12,15,1,7,4,13,14"
14463,commdev-image-keyboard-response,199,849331,learnblock1,1168,img/planet8_left.png,8,Community 1,NA,TRUE,f,f,NA,NA,NA,4,6,"8,11,10,2,6,9,5,3,12,15,1,7,4,13,14"
14463,commdev-image-keyboard-response,200,850582,learnblock1,955.7999999523163,img/planet10_left.png,10,Community 1,NA,TRUE,f,f,NA,NA,NA,4,6,"8,11,10,2,6,9,5,3,12,15,1,7,4,13,14"
14463,commdev-image-keyboard-response,201,851834,learnblock1,565.6000000238419,img/planet8_right.png,8,Community 1,NA,TRUE,j,j,NA,NA,NA,4,6,"8,11,10,2,6,9,5,3,12,15,1,7,4,13,14"
14463,commdev-image-keyboard-response,202,853086,learnblock1,688.8000000715256,img/planet6_right.png,6,Community 1,NA,TRUE,j,j,NA,NA,NA,4,6,"8,11,10,2,6,9,5,3,12,15,1,7,4,13,14"
14463,commdev-image-keyboard-response,203,854337,learnblock1,728,img/planet8_right.png,8,Community 1,NA,TRUE,j,j,NA,NA,NA,4,6,"8,11,10,2,6,9,5,3,12,15,1,7,4,13,14"
14463,commdev-image-keyboard-response,204,855590,learnblock1,753.2000000476837,img/planet2_right.png,2,Community 1,NA,TRUE,j,j,NA,NA,NA,4,6,"8,11,10,2,6,9,5,3,12,15,1,7,4,13,14"
14463,commdev-image-keyboard-response,205,856841,learnblock1,888.2000000476837,img/planet11_right.png,11,Community 1,NA,TRUE,j,j,NA,NA,NA,4,6,"8,11,10,2,6,9,5,3,12,15,1,7,4,13,14"
14463,commdev-image-keyboard-response,206,858093,learnblock1,891.5,img/planet2_right.png,2,Community 1,NA,TRUE,j,j,NA,NA,NA,4,6,"8,11,10,2,6,9,5,3,12,15,1,7,4,13,14"
14463,commdev-image-keyboard-response,207,859344,learnblock1,750.1999999284744,img/planet9_left.png,9,Community 2,NA,TRUE,f,f,NA,NA,NA,4,6,"8,11,10,2,6,9,5,3,12,15,1,7,4,13,14"
14463,commdev-image-keyboard-response,208,860596,learnblock1,439.39999997615814,img/planet5_left.png,5,Community 2,NA,TRUE,f,f,NA,NA,NA,4,6,"8,11,10,2,6,9,5,3,12,15,1,7,4,13,14"
14463,commdev-image-keyboard-response,209,861848,learnblock1,673.4000000953674,img/planet3_right.png,3,Community 2,NA,FALSE,f,j,NA,NA,NA,4,6,"8,11,10,2,6,9,5,3,12,15,1,7,4,13,14"
14463,commdev-image-keyboard-response,210,863100,learnblock1,524.3999999761581,img/planet5_right.png,5,Community 2,NA,TRUE,j,j,NA,NA,NA,4,6,"8,11,10,2,6,9,5,3,12,15,1,7,4,13,14"
14463,commdev-image-keyboard-response,211,864352,learnblock1,266.7000000476837,img/planet12_left.png,12,Community 2,NA,FALSE,j,f,NA,NA,NA,4,6,"8,11,10,2,6,9,5,3,12,15,1,7,4,13,14"
14463,commdev-image-keyboard-response,212,865604,learnblock1,649.3000000715256,img/planet15_left.png,15,Community 2,NA,TRUE,f,f,NA,NA,NA,4,6,"8,11,10,2,6,9,5,3,12,15,1,7,4,13,14"
14463,commdev-image-keyboard-response,213,866855,learnblock1,938.1999999284744,img/planet3_right.png,3,Community 2,NA,FALSE,f,j,NA,NA,NA,4,6,"8,11,10,2,6,9,5,3,12,15,1,7,4,13,14"
14463,commdev-image-keyboard-response,214,868119,learnblock1,990.2999999523163,img/planet5_left.png,5,Community 2,NA,TRUE,f,f,NA,NA,NA,4,6,"8,11,10,2,6,9,5,3,12,15,1,7,4,13,14"
14463,commdev-image-keyboard-response,215,869371,learnblock1,674.2999999523163,img/planet12_right.png,12,Community 2,NA,TRUE,j,j,NA,NA,NA,4,6,"8,11,10,2,6,9,5,3,12,15,1,7,4,13,14"
14463,commdev-image-keyboard-response,216,870624,learnblock1,826.3000000715256,img/planet15_right.png,15,Community 2,NA,TRUE,j,j,NA,NA,NA,4,6,"8,11,10,2,6,9,5,3,12,15,1,7,4,13,14"
14463,commdev-image-keyboard-response,217,871875,learnblock1,636,img/planet9_left.png,9,Community 2,NA,TRUE,f,f,NA,NA,NA,4,6,"8,11,10,2,6,9,5,3,12,15,1,7,4,13,14"
14463,commdev-image-keyboard-response,218,873128,learnblock1,1042.7999999523163,img/planet5_left.png,5,Community 2,NA,TRUE,f,f,NA,NA,NA,4,6,"8,11,10,2,6,9,5,3,12,15,1,7,4,13,14"
14463,commdev-image-keyboard-response,219,874380,learnblock1,1004.3000000715256,img/planet15_right.png,15,Community 2,NA,FALSE,f,j,NA,NA,NA,4,6,"8,11,10,2,6,9,5,3,12,15,1,7,4,13,14"
14463,commdev-image-keyboard-response,220,875635,learnblock1,756.7000000476837,img/planet12_left.png,12,Community 2,NA,TRUE,f,f,NA,NA,NA,4,6,"8,11,10,2,6,9,5,3,12,15,1,7,4,13,14"
14463,commdev-image-keyboard-response,221,876887,learnblock1,806.5999999046326,img/planet15_right.png,15,Community 2,NA,FALSE,f,j,NA,NA,NA,4,6,"8,11,10,2,6,9,5,3,12,15,1,7,4,13,14"
14463,commdev-image-keyboard-response,222,878138,learnblock1,553.5,img/planet9_right.png,9,Community 2,NA,FALSE,f,j,NA,NA,NA,4,6,"8,11,10,2,6,9,5,3,12,15,1,7,4,13,14"
14463,commdev-image-keyboard-response,223,879389,learnblock1,275,img/planet12_left.png,12,Community 2,NA,TRUE,f,f,NA,NA,NA,4,6,"8,11,10,2,6,9,5,3,12,15,1,7,4,13,14"
14463,commdev-image-keyboard-response,224,880641,learnblock1,469.7000000476837,img/planet15_right.png,15,Community 2,NA,FALSE,f,j,NA,NA,NA,4,6,"8,11,10,2,6,9,5,3,12,15,1,7,4,13,14"
14463,commdev-image-keyboard-response,225,881893,learnblock1,145,img/planet5_right.png,5,Community 2,NA,TRUE,j,j,NA,NA,NA,4,6,"8,11,10,2,6,9,5,3,12,15,1,7,4,13,14"
14463,commdev-image-keyboard-response,226,883146,learnblock1,108.5,img/planet3_left.png,3,Community 2,NA,FALSE,j,f,NA,NA,NA,4,6,"8,11,10,2,6,9,5,3,12,15,1,7,4,13,14"
14463,commdev-image-keyboard-response,227,884398,learnblock1,543.3000000715256,img/planet5_left.png,5,Community 2,NA,TRUE,f,f,NA,NA,NA,4,6,"8,11,10,2,6,9,5,3,12,15,1,7,4,13,14"
14463,commdev-image-keyboard-response,228,885650,learnblock1,62.800000071525574,img/planet9_left.png,9,Community 2,NA,TRUE,f,f,NA,NA,NA,4,6,"8,11,10,2,6,9,5,3,12,15,1,7,4,13,14"
14463,commdev-image-keyboard-response,229,886903,learnblock1,562.7000000476837,img/planet5_left.png,5,Community 2,NA,TRUE,f,f,NA,NA,NA,4,6,"8,11,10,2,6,9,5,3,12,15,1,7,4,13,14"
14463,commdev-image-keyboard-response,230,888154,learnblock1,97.59999990463257,img/planet15_left.png,15,Community 2,NA,TRUE,f,f,NA,NA,NA,4,6,"8,11,10,2,6,9,5,3,12,15,1,7,4,13,14"
14463,commdev-image-keyboard-response,231,889406,learnblock1,686.5999999046326,img/planet5_right.png,5,Community 2,NA,TRUE,j,j,NA,NA,NA,4,6,"8,11,10,2,6,9,5,3,12,15,1,7,4,13,14"
14463,commdev-image-keyboard-response,232,890658,learnblock1,625.2000000476837,img/planet3_left.png,3,Community 2,NA,TRUE,f,f,NA,NA,NA,4,6,"8,11,10,2,6,9,5,3,12,15,1,7,4,13,14"
14463,commdev-image-keyboard-response,233,891910,learnblock1,241.39999997615814,img/planet15_right.png,15,Community 2,NA,FALSE,f,j,NA,NA,NA,4,6,"8,11,10,2,6,9,5,3,12,15,1,7,4,13,14"
14463,commdev-image-keyboard-response,234,893163,learnblock1,81.5,img/planet9_left.png,9,Community 2,NA,FALSE,j,f,NA,NA,NA,4,6,"8,11,10,2,6,9,5,3,12,15,1,7,4,13,14"
14463,commdev-image-keyboard-response,235,894414,learnblock1,9.599999904632568,img/planet2_left.png,2,Community 1,NA,FALSE,j,f,NA,NA,NA,4,6,"8,11,10,2,6,9,5,3,12,15,1,7,4,13,14"
14463,commdev-image-keyboard-response,236,895665,learnblock1,null,img/planet8_right.png,8,Community 1,NA,FALSE,null,j,NA,NA,NA,4,6,"8,11,10,2,6,9,5,3,12,15,1,7,4,13,14"
14463,commdev-image-keyboard-response,237,896919,learnblock1,null,img/planet11_left.png,11,Community 1,NA,FALSE,null,f,NA,NA,NA,4,6,"8,11,10,2,6,9,5,3,12,15,1,7,4,13,14"
14463,commdev-image-keyboard-response,238,898171,learnblock1,null,img/planet8_right.png,8,Community 1,NA,FALSE,null,j,NA,NA,NA,4,6,"8,11,10,2,6,9,5,3,12,15,1,7,4,13,14"
14463,commdev-image-keyboard-response,239,899422,learnblock1,211.60000002384186,img/planet10_right.png,10,Community 1,NA,FALSE,f,j,NA,NA,NA,4,6,"8,11,10,2,6,9,5,3,12,15,1,7,4,13,14"
14463,commdev-image-keyboard-response,240,900674,learnblock1,null,img/planet11_right.png,11,Community 1,NA,FALSE,null,j,NA,NA,NA,4,6,"8,11,10,2,6,9,5,3,12,15,1,7,4,13,14"
14463,commdev-image-keyboard-response,241,901925,learnblock1,889.2000000476837,img/planet10_left.png,10,Community 1,NA,TRUE,f,f,NA,NA,NA,4,6,"8,11,10,2,6,9,5,3,12,15,1,7,4,13,14"
14463,commdev-image-keyboard-response,242,903177,learnblock1,707.6000000238419,img/planet2_left.png,2,Community 1,NA,TRUE,f,f,NA,NA,NA,4,6,"8,11,10,2,6,9,5,3,12,15,1,7,4,13,14"
14463,commdev-image-keyboard-response,243,904429,learnblock1,633.4000000953674,img/planet9_left.png,9,Community 2,NA,TRUE,f,f,NA,NA,NA,4,6,"8,11,10,2,6,9,5,3,12,15,1,7,4,13,14"
14463,commdev-image-keyboard-response,244,905680,learnblock1,557.7000000476837,img/planet5_right.png,5,Community 2,NA,FALSE,f,j,NA,NA,NA,4,6,"8,11,10,2,6,9,5,3,12,15,1,7,4,13,14"
14463,commdev-image-keyboard-response,245,906933,learnblock1,635.3000000715256,img/planet12_left.png,12,Community 2,NA,TRUE,f,f,NA,NA,NA,4,6,"8,11,10,2,6,9,5,3,12,15,1,7,4,13,14"
14463,commdev-image-keyboard-response,246,908186,learnblock1,668.1000000238419,img/planet5_right.png,5,Community 2,NA,FALSE,f,j,NA,NA,NA,4,6,"8,11,10,2,6,9,5,3,12,15,1,7,4,13,14"
14463,commdev-image-keyboard-response,247,909438,learnblock1,1228.2999999523163,img/planet9_left.png,9,Community 2,NA,TRUE,f,f,NA,NA,NA,4,6,"8,11,10,2,6,9,5,3,12,15,1,7,4,13,14"
14463,commdev-image-keyboard-response,248,910690,learnblock1,null,img/planet2_left.png,2,Community 1,NA,FALSE,null,f,NA,NA,NA,4,6,"8,11,10,2,6,9,5,3,12,15,1,7,4,13,14"
14463,commdev-image-keyboard-response,249,911942,learnblock1,null,img/planet8_left.png,8,Community 1,NA,FALSE,null,f,NA,NA,NA,4,6,"8,11,10,2,6,9,5,3,12,15,1,7,4,13,14"
14463,commdev-image-keyboard-response,250,913194,learnblock1,null,img/planet6_right.png,6,Community 1,NA,FALSE,null,j,NA,NA,NA,4,6,"8,11,10,2,6,9,5,3,12,15,1,7,4,13,14"
14463,commdev-image-keyboard-response,251,914448,learnblock1,788.5,img/planet10_left.png,10,Community 1,NA,TRUE,f,f,NA,NA,NA,4,6,"8,11,10,2,6,9,5,3,12,15,1,7,4,13,14"
14463,commdev-image-keyboard-response,252,915700,learnblock1,null,img/planet11_right.png,11,Community 1,NA,FALSE,null,j,NA,NA,NA,4,6,"8,11,10,2,6,9,5,3,12,15,1,7,4,13,14"
14463,commdev-image-keyboard-response,253,916952,learnblock1,null,img/planet6_right.png,6,Community 1,NA,FALSE,null,j,NA,NA,NA,4,6,"8,11,10,2,6,9,5,3,12,15,1,7,4,13,14"
14463,commdev-image-keyboard-response,254,918204,learnblock1,619.5,img/planet1_left.png,1,Community 3,NA,TRUE,f,f,NA,NA,NA,4,6,"8,11,10,2,6,9,5,3,12,15,1,7,4,13,14"
14463,commdev-image-keyboard-response,255,919456,learnblock1,null,img/planet13_right.png,13,Community 3,NA,FALSE,null,j,NA,NA,NA,4,6,"8,11,10,2,6,9,5,3,12,15,1,7,4,13,14"
14463,commdev-image-keyboard-response,256,920709,learnblock1,797.8000000715256,img/planet14_right.png,14,Community 3,NA,FALSE,f,j,NA,NA,NA,4,6,"8,11,10,2,6,9,5,3,12,15,1,7,4,13,14"
14463,commdev-image-keyboard-response,257,921962,learnblock1,null,img/planet7_right.png,7,Community 3,NA,FALSE,null,j,NA,NA,NA,4,6,"8,11,10,2,6,9,5,3,12,15,1,7,4,13,14"
14463,commdev-image-keyboard-response,258,923214,learnblock1,null,img/planet14_right.png,14,Community 3,NA,FALSE,null,j,NA,NA,NA,4,6,"8,11,10,2,6,9,5,3,12,15,1,7,4,13,14"
14463,commdev-image-keyboard-response,259,924466,learnblock1,null,img/planet1_right.png,1,Community 3,NA,FALSE,null,j,NA,NA,NA,4,6,"8,11,10,2,6,9,5,3,12,15,1,7,4,13,14"
14463,commdev-image-keyboard-response,260,925718,learnblock1,651.3999999761581,img/planet14_left.png,14,Community 3,NA,TRUE,f,f,NA,NA,NA,4,6,"8,11,10,2,6,9,5,3,12,15,1,7,4,13,14"
14463,commdev-image-keyboard-response,261,926970,learnblock1,null,img/planet7_right.png,7,Community 3,NA,FALSE,null,j,NA,NA,NA,4,6,"8,11,10,2,6,9,5,3,12,15,1,7,4,13,14"
14463,commdev-image-keyboard-response,262,928222,learnblock1,807.8999999761581,img/planet13_left.png,13,Community 3,NA,TRUE,f,f,NA,NA,NA,4,6,"8,11,10,2,6,9,5,3,12,15,1,7,4,13,14"
14463,commdev-image-keyboard-response,263,929474,learnblock1,946.1999999284744,img/planet4_left.png,4,Community 3,NA,TRUE,f,f,NA,NA,NA,4,6,"8,11,10,2,6,9,5,3,12,15,1,7,4,13,14"
14463,commdev-image-keyboard-response,264,930726,learnblock1,931.0999999046326,img/planet7_left.png,7,Community 3,NA,TRUE,f,f,NA,NA,NA,4,6,"8,11,10,2,6,9,5,3,12,15,1,7,4,13,14"
14463,commdev-image-keyboard-response,265,931979,learnblock1,1016.7999999523163,img/planet14_left.png,14,Community 3,NA,TRUE,f,f,NA,NA,NA,4,6,"8,11,10,2,6,9,5,3,12,15,1,7,4,13,14"
14463,commdev-image-keyboard-response,266,933231,learnblock1,819.3999999761581,img/planet4_left.png,4,Community 3,NA,TRUE,f,f,NA,NA,NA,4,6,"8,11,10,2,6,9,5,3,12,15,1,7,4,13,14"
14463,commdev-image-keyboard-response,267,934483,learnblock1,664.8000000715256,img/planet14_left.png,14,Community 3,NA,TRUE,f,f,NA,NA,NA,4,6,"8,11,10,2,6,9,5,3,12,15,1,7,4,13,14"
14463,commdev-image-keyboard-response,268,935735,learnblock1,null,img/planet4_right.png,4,Community 3,NA,FALSE,null,j,NA,NA,NA,4,6,"8,11,10,2,6,9,5,3,12,15,1,7,4,13,14"
14463,commdev-image-keyboard-response,269,936987,learnblock1,759.2000000476837,img/planet1_left.png,1,Community 3,NA,TRUE,f,f,NA,NA,NA,4,6,"8,11,10,2,6,9,5,3,12,15,1,7,4,13,14"
14463,commdev-image-keyboard-response,270,938239,learnblock1,null,img/planet6_right.png,6,Community 1,NA,FALSE,null,j,NA,NA,NA,4,6,"8,11,10,2,6,9,5,3,12,15,1,7,4,13,14"
14463,commdev-image-keyboard-response,271,939492,learnblock1,626.2000000476837,img/planet10_right.png,10,Community 1,NA,FALSE,f,j,NA,NA,NA,4,6,"8,11,10,2,6,9,5,3,12,15,1,7,4,13,14"
14463,commdev-image-keyboard-response,272,940759,learnblock1,850,img/planet8_right.png,8,Community 1,NA,FALSE,f,j,NA,NA,NA,4,6,"8,11,10,2,6,9,5,3,12,15,1,7,4,13,14"
14463,commdev-image-keyboard-response,273,942011,learnblock1,1171.7999999523163,img/planet11_left.png,11,Community 1,NA,TRUE,f,f,NA,NA,NA,4,6,"8,11,10,2,6,9,5,3,12,15,1,7,4,13,14"
14463,commdev-image-keyboard-response,274,943263,learnblock1,1179.3999999761581,img/planet10_left.png,10,Community 1,NA,TRUE,f,f,NA,NA,NA,4,6,"8,11,10,2,6,9,5,3,12,15,1,7,4,13,14"
14463,commdev-image-keyboard-response,275,944515,learnblock1,836.7000000476837,img/planet8_left.png,8,Community 1,NA,TRUE,f,f,NA,NA,NA,4,6,"8,11,10,2,6,9,5,3,12,15,1,7,4,13,14"
14463,commdev-image-keyboard-response,276,945767,learnblock1,536,img/planet2_left.png,2,Community 1,NA,TRUE,f,f,NA,NA,NA,4,6,"8,11,10,2,6,9,5,3,12,15,1,7,4,13,14"
14463,commdev-image-keyboard-response,277,947018,learnblock1,null,img/planet11_right.png,11,Community 1,NA,FALSE,null,j,NA,NA,NA,4,6,"8,11,10,2,6,9,5,3,12,15,1,7,4,13,14"
14463,commdev-image-keyboard-response,278,948269,learnblock1,485.5,img/planet2_right.png,2,Community 1,NA,FALSE,f,j,NA,NA,NA,4,6,"8,11,10,2,6,9,5,3,12,15,1,7,4,13,14"
14463,commdev-image-keyboard-response,279,949521,learnblock1,null,img/planet11_left.png,11,Community 1,NA,FALSE,null,f,NA,NA,NA,4,6,"8,11,10,2,6,9,5,3,12,15,1,7,4,13,14"
14463,commdev-image-keyboard-response,280,950772,learnblock1,13.5,img/planet6_right.png,6,Community 1,NA,FALSE,f,j,NA,NA,NA,4,6,"8,11,10,2,6,9,5,3,12,15,1,7,4,13,14"
14463,commdev-image-keyboard-response,281,952024,learnblock1,null,img/planet1_right.png,1,Community 3,NA,FALSE,null,j,NA,NA,NA,4,6,"8,11,10,2,6,9,5,3,12,15,1,7,4,13,14"
14463,commdev-image-keyboard-response,282,953275,learnblock1,719.6999999284744,img/planet4_left.png,4,Community 3,NA,TRUE,f,f,NA,NA,NA,4,6,"8,11,10,2,6,9,5,3,12,15,1,7,4,13,14"
14463,commdev-image-keyboard-response,283,954527,learnblock1,null,img/planet1_right.png,1,Community 3,NA,FALSE,null,j,NA,NA,NA,4,6,"8,11,10,2,6,9,5,3,12,15,1,7,4,13,14"
14463,commdev-image-keyboard-response,284,955779,learnblock1,null,img/planet13_right.png,13,Community 3,NA,FALSE,null,j,NA,NA,NA,4,6,"8,11,10,2,6,9,5,3,12,15,1,7,4,13,14"
14463,commdev-image-keyboard-response,285,957032,learnblock1,null,img/planet1_right.png,1,Community 3,NA,FALSE,null,j,NA,NA,NA,4,6,"8,11,10,2,6,9,5,3,12,15,1,7,4,13,14"
14463,commdev-image-keyboard-response,286,958284,learnblock1,null,img/planet13_right.png,13,Community 3,NA,FALSE,null,j,NA,NA,NA,4,6,"8,11,10,2,6,9,5,3,12,15,1,7,4,13,14"
14463,commdev-image-keyboard-response,287,959537,learnblock1,null,img/planet14_right.png,14,Community 3,NA,FALSE,null,j,NA,NA,NA,4,6,"8,11,10,2,6,9,5,3,12,15,1,7,4,13,14"
14463,commdev-image-keyboard-response,288,960790,learnblock1,null,img/planet7_right.png,7,Community 3,NA,FALSE,null,j,NA,NA,NA,4,6,"8,11,10,2,6,9,5,3,12,15,1,7,4,13,14"
14463,commdev-image-keyboard-response,289,962041,learnblock1,null,img/planet14_right.png,14,Community 3,NA,FALSE,null,j,NA,NA,NA,4,6,"8,11,10,2,6,9,5,3,12,15,1,7,4,13,14"
14463,commdev-image-keyboard-response,290,963292,learnblock1,711.1000000238419,img/planet4_left.png,4,Community 3,NA,TRUE,f,f,NA,NA,NA,4,6,"8,11,10,2,6,9,5,3,12,15,1,7,4,13,14"
14463,commdev-image-keyboard-response,291,964543,learnblock1,789.8000000715256,img/planet7_right.png,7,Community 3,NA,FALSE,f,j,NA,NA,NA,4,6,"8,11,10,2,6,9,5,3,12,15,1,7,4,13,14"
14463,commdev-image-keyboard-response,292,965795,learnblock1,1056.3999999761581,img/planet14_left.png,14,Community 3,NA,TRUE,f,f,NA,NA,NA,4,6,"8,11,10,2,6,9,5,3,12,15,1,7,4,13,14"
14463,commdev-image-keyboard-response,293,967048,learnblock1,1016.9000000953674,img/planet4_left.png,4,Community 3,NA,TRUE,f,f,NA,NA,NA,4,6,"8,11,10,2,6,9,5,3,12,15,1,7,4,13,14"
14463,commdev-image-keyboard-response,294,968300,learnblock1,621.7999999523163,img/planet1_left.png,1,Community 3,NA,TRUE,f,f,NA,NA,NA,4,6,"8,11,10,2,6,9,5,3,12,15,1,7,4,13,14"
14463,commdev-image-keyboard-response,295,969551,learnblock1,799.8999999761581,img/planet13_left.png,13,Community 3,NA,TRUE,f,f,NA,NA,NA,4,6,"8,11,10,2,6,9,5,3,12,15,1,7,4,13,14"
14463,commdev-image-keyboard-response,296,970803,learnblock1,null,img/planet7_right.png,7,Community 3,NA,FALSE,null,j,NA,NA,NA,4,6,"8,11,10,2,6,9,5,3,12,15,1,7,4,13,14"
14463,commdev-image-keyboard-response,297,972055,learnblock1,null,img/planet4_right.png,4,Community 3,NA,FALSE,null,j,NA,NA,NA,4,6,"8,11,10,2,6,9,5,3,12,15,1,7,4,13,14"
14463,commdev-image-keyboard-response,298,973307,learnblock1,null,img/planet13_right.png,13,Community 3,NA,FALSE,null,j,NA,NA,NA,4,6,"8,11,10,2,6,9,5,3,12,15,1,7,4,13,14"
14463,commdev-image-keyboard-response,299,974558,learnblock1,null,img/planet4_right.png,4,Community 3,NA,FALSE,null,j,NA,NA,NA,4,6,"8,11,10,2,6,9,5,3,12,15,1,7,4,13,14"
14463,commdev-image-keyboard-response,300,975811,learnblock1,null,img/planet13_right.png,13,Community 3,NA,FALSE,null,j,NA,NA,NA,4,6,"8,11,10,2,6,9,5,3,12,15,1,7,4,13,14"
14463,commdev-image-keyboard-response,301,977063,learnblock1,833.3999999761581,img/planet7_left.png,7,Community 3,NA,TRUE,f,f,NA,NA,NA,4,6,"8,11,10,2,6,9,5,3,12,15,1,7,4,13,14"
14463,commdev-image-keyboard-response,302,978316,learnblock1,1031.1999999284744,img/planet3_left.png,3,Community 2,NA,TRUE,f,f,NA,NA,NA,4,6,"8,11,10,2,6,9,5,3,12,15,1,7,4,13,14"
14463,commdev-image-keyboard-response,303,979568,learnblock1,631.6999999284744,img/planet5_left.png,5,Community 2,NA,TRUE,f,f,NA,NA,NA,4,6,"8,11,10,2,6,9,5,3,12,15,1,7,4,13,14"
14463,commdev-image-keyboard-response,304,980826,learnblock1,508.39999997615814,img/planet15_right.png,15,Community 2,NA,FALSE,f,j,NA,NA,NA,4,6,"8,11,10,2,6,9,5,3,12,15,1,7,4,13,14"
14463,commdev-image-keyboard-response,305,982077,learnblock1,400.2000000476837,img/planet3_right.png,3,Community 2,NA,FALSE,f,j,NA,NA,NA,4,6,"8,11,10,2,6,9,5,3,12,15,1,7,4,13,14"
14463,commdev-image-keyboard-response,306,983333,learnblock1,709.6999999284744,img/planet15_left.png,15,Community 2,NA,TRUE,f,f,NA,NA,NA,4,6,"8,11,10,2,6,9,5,3,12,15,1,7,4,13,14"
14463,commdev-image-keyboard-response,307,984585,learnblock1,null,img/planet3_right.png,3,Community 2,NA,FALSE,null,j,NA,NA,NA,4,6,"8,11,10,2,6,9,5,3,12,15,1,7,4,13,14"
14463,commdev-image-keyboard-response,308,985837,learnblock1,296.5,img/planet15_right.png,15,Community 2,NA,FALSE,f,j,NA,NA,NA,4,6,"8,11,10,2,6,9,5,3,12,15,1,7,4,13,14"
14463,commdev-image-keyboard-response,309,987098,learnblock1,888.8999999761581,img/planet12_left.png,12,Community 2,NA,TRUE,f,f,NA,NA,NA,4,6,"8,11,10,2,6,9,5,3,12,15,1,7,4,13,14"
14463,commdev-image-keyboard-response,310,988350,learnblock1,null,img/planet9_right.png,9,Community 2,NA,FALSE,null,j,NA,NA,NA,4,6,"8,11,10,2,6,9,5,3,12,15,1,7,4,13,14"
14463,commdev-image-keyboard-response,311,989601,learnblock1,572.6000000238419,img/planet2_left.png,2,Community 1,NA,TRUE,f,f,NA,NA,NA,4,6,"8,11,10,2,6,9,5,3,12,15,1,7,4,13,14"
14463,commdev-image-keyboard-response,312,990852,learnblock1,163.19999992847443,img/planet8_left.png,8,Community 1,NA,FALSE,j,f,NA,NA,NA,4,6,"8,11,10,2,6,9,5,3,12,15,1,7,4,13,14"
14463,commdev-image-keyboard-response,313,992103,learnblock1,824.8999999761581,img/planet11_left.png,11,Community 1,NA,FALSE,j,f,NA,NA,NA,4,6,"8,11,10,2,6,9,5,3,12,15,1,7,4,13,14"
14463,commdev-image-keyboard-response,314,993355,learnblock1,647.7000000476837,img/planet6_right.png,6,Community 1,NA,FALSE,f,j,NA,NA,NA,4,6,"8,11,10,2,6,9,5,3,12,15,1,7,4,13,14"
14463,commdev-image-keyboard-response,315,994607,learnblock1,564.1999999284744,img/planet1_right.png,1,Community 3,NA,FALSE,f,j,NA,NA,NA,4,6,"8,11,10,2,6,9,5,3,12,15,1,7,4,13,14"
14463,commdev-image-keyboard-response,316,995873,learnblock1,40.200000047683716,img/planet14_left.png,14,Community 3,NA,FALSE,j,f,NA,NA,NA,4,6,"8,11,10,2,6,9,5,3,12,15,1,7,4,13,14"
14463,commdev-image-keyboard-response,317,997125,learnblock1,1131.8000000715256,img/planet7_right.png,7,Community 3,NA,FALSE,f,j,NA,NA,NA,4,6,"8,11,10,2,6,9,5,3,12,15,1,7,4,13,14"
14463,commdev-image-keyboard-response,318,998377,learnblock1,null,img/planet13_right.png,13,Community 3,NA,FALSE,null,j,NA,NA,NA,4,6,"8,11,10,2,6,9,5,3,12,15,1,7,4,13,14"
14463,commdev-image-keyboard-response,319,999629,learnblock1,504.89999997615814,img/planet7_left.png,7,Community 3,NA,TRUE,f,f,NA,NA,NA,4,6,"8,11,10,2,6,9,5,3,12,15,1,7,4,13,14"
14463,commdev-image-keyboard-response,320,1000881,learnblock1,1.399999976158142,img/planet4_right.png,4,Community 3,NA,FALSE,f,j,NA,NA,NA,4,6,"8,11,10,2,6,9,5,3,12,15,1,7,4,13,14"
14463,commdev-image-keyboard-response,321,1002133,learnblock1,107.69999992847443,img/planet1_left.png,1,Community 3,NA,FALSE,j,f,NA,NA,NA,4,6,"8,11,10,2,6,9,5,3,12,15,1,7,4,13,14"
14463,commdev-image-keyboard-response,322,1003385,learnblock1,932,img/planet14_right.png,14,Community 3,NA,TRUE,j,j,NA,NA,NA,4,6,"8,11,10,2,6,9,5,3,12,15,1,7,4,13,14"
14463,commdev-image-keyboard-response,323,1004638,learnblock1,574.0999999046326,img/planet7_left.png,7,Community 3,NA,TRUE,f,f,NA,NA,NA,4,6,"8,11,10,2,6,9,5,3,12,15,1,7,4,13,14"
14463,commdev-image-keyboard-response,324,1005889,learnblock1,364.1999999284744,img/planet4_right.png,4,Community 3,NA,TRUE,j,j,NA,NA,NA,4,6,"8,11,10,2,6,9,5,3,12,15,1,7,4,13,14"
14463,commdev-image-keyboard-response,325,1007141,learnblock1,196.29999995231628,img/planet7_left.png,7,Community 3,NA,TRUE,f,f,NA,NA,NA,4,6,"8,11,10,2,6,9,5,3,12,15,1,7,4,13,14"
14463,commdev-image-keyboard-response,326,1008393,learnblock1,1241.2999999523163,img/planet14_left.png,14,Community 3,NA,FALSE,j,f,NA,NA,NA,4,6,"8,11,10,2,6,9,5,3,12,15,1,7,4,13,14"
14463,commdev-image-keyboard-response,327,1009645,learnblock1,408.60000002384186,img/planet13_right.png,13,Community 3,NA,FALSE,f,j,NA,NA,NA,4,6,"8,11,10,2,6,9,5,3,12,15,1,7,4,13,14"
14463,commdev-image-keyboard-response,328,1010897,learnblock1,null,img/planet14_right.png,14,Community 3,NA,FALSE,null,j,NA,NA,NA,4,6,"8,11,10,2,6,9,5,3,12,15,1,7,4,13,14"
14463,commdev-image-keyboard-response,329,1012149,learnblock1,647.3999999761581,img/planet4_right.png,4,Community 3,NA,TRUE,j,j,NA,NA,NA,4,6,"8,11,10,2,6,9,5,3,12,15,1,7,4,13,14"
14463,commdev-image-keyboard-response,330,1013401,learnblock1,538.7000000476837,img/planet13_right.png,13,Community 3,NA,TRUE,j,j,NA,NA,NA,4,6,"8,11,10,2,6,9,5,3,12,15,1,7,4,13,14"
14463,commdev-image-keyboard-response,331,1014653,learnblock1,692.2999999523163,img/planet4_left.png,4,Community 3,NA,TRUE,f,f,NA,NA,NA,4,6,"8,11,10,2,6,9,5,3,12,15,1,7,4,13,14"
14463,commdev-image-keyboard-response,332,1015905,learnblock1,578.2000000476837,img/planet14_left.png,14,Community 3,NA,TRUE,f,f,NA,NA,NA,4,6,"8,11,10,2,6,9,5,3,12,15,1,7,4,13,14"
14463,commdev-image-keyboard-response,333,1017157,learnblock1,440.39999997615814,img/planet13_left.png,13,Community 3,NA,TRUE,f,f,NA,NA,NA,4,6,"8,11,10,2,6,9,5,3,12,15,1,7,4,13,14"
14463,commdev-image-keyboard-response,334,1018410,learnblock1,532.2000000476837,img/planet7_right.png,7,Community 3,NA,FALSE,f,j,NA,NA,NA,4,6,"8,11,10,2,6,9,5,3,12,15,1,7,4,13,14"
14463,commdev-image-keyboard-response,335,1019662,learnblock1,651.9000000953674,img/planet14_left.png,14,Community 3,NA,TRUE,f,f,NA,NA,NA,4,6,"8,11,10,2,6,9,5,3,12,15,1,7,4,13,14"
14463,commdev-image-keyboard-response,336,1020914,learnblock1,628.2999999523163,img/planet7_left.png,7,Community 3,NA,TRUE,f,f,NA,NA,NA,4,6,"8,11,10,2,6,9,5,3,12,15,1,7,4,13,14"
14463,commdev-image-keyboard-response,337,1022167,learnblock1,861.3999999761581,img/planet3_left.png,3,Community 2,NA,TRUE,f,f,NA,NA,NA,4,6,"8,11,10,2,6,9,5,3,12,15,1,7,4,13,14"
14463,commdev-image-keyboard-response,338,1023419,learnblock1,835.6999999284744,img/planet15_right.png,15,Community 2,NA,TRUE,j,j,NA,NA,NA,4,6,"8,11,10,2,6,9,5,3,12,15,1,7,4,13,14"
14463,commdev-image-keyboard-response,339,1024670,learnblock1,679.6999999284744,img/planet3_left.png,3,Community 2,NA,TRUE,f,f,NA,NA,NA,4,6,"8,11,10,2,6,9,5,3,12,15,1,7,4,13,14"
14463,commdev-image-keyboard-response,340,1025922,learnblock1,318.2000000476837,img/planet15_left.png,15,Community 2,NA,TRUE,f,f,NA,NA,NA,4,6,"8,11,10,2,6,9,5,3,12,15,1,7,4,13,14"
14463,commdev-image-keyboard-response,341,1027175,learnblock1,677.5,img/planet5_left.png,5,Community 2,NA,TRUE,f,f,NA,NA,NA,4,6,"8,11,10,2,6,9,5,3,12,15,1,7,4,13,14"
14463,commdev-image-keyboard-response,342,1028426,learnblock1,559,img/planet3_left.png,3,Community 2,NA,TRUE,f,f,NA,NA,NA,4,6,"8,11,10,2,6,9,5,3,12,15,1,7,4,13,14"
14463,commdev-image-keyboard-response,343,1029679,learnblock1,596.2000000476837,img/planet12_right.png,12,Community 2,NA,FALSE,f,j,NA,NA,NA,4,6,"8,11,10,2,6,9,5,3,12,15,1,7,4,13,14"
14463,commdev-image-keyboard-response,344,1030932,learnblock1,786.6000000238419,img/planet3_right.png,3,Community 2,NA,TRUE,j,j,NA,NA,NA,4,6,"8,11,10,2,6,9,5,3,12,15,1,7,4,13,14"
14463,commdev-image-keyboard-response,345,1032184,learnblock1,344,img/planet15_right.png,15,Community 2,NA,TRUE,j,j,NA,NA,NA,4,6,"8,11,10,2,6,9,5,3,12,15,1,7,4,13,14"
14463,commdev-image-keyboard-response,346,1033437,learnblock1,209.80000007152557,img/planet5_left.png,5,Community 2,NA,FALSE,j,f,NA,NA,NA,4,6,"8,11,10,2,6,9,5,3,12,15,1,7,4,13,14"
14463,commdev-image-keyboard-response,347,1034690,learnblock1,176.40000009536743,img/planet15_right.png,15,Community 2,NA,TRUE,j,j,NA,NA,NA,4,6,"8,11,10,2,6,9,5,3,12,15,1,7,4,13,14"
14463,commdev-image-keyboard-response,351,2229649,learnblock2,1088.1000000238419,img/planet11_left.png,11,Community 1,NA,TRUE,f,f,NA,NA,NA,4,6,"8,11,10,2,6,9,5,3,12,15,1,7,4,13,14"
14463,commdev-image-keyboard-response,352,2230900,learnblock2,570.1999999284744,img/planet6_right.png,6,Community 1,NA,TRUE,j,j,NA,NA,NA,4,6,"8,11,10,2,6,9,5,3,12,15,1,7,4,13,14"
14463,commdev-image-keyboard-response,353,2232151,learnblock2,523.2000000476837,img/planet1_left.png,1,Community 3,NA,TRUE,f,f,NA,NA,NA,4,6,"8,11,10,2,6,9,5,3,12,15,1,7,4,13,14"
14463,commdev-image-keyboard-response,354,2233402,learnblock2,663.8000000715256,img/planet4_left.png,4,Community 3,NA,TRUE,f,f,NA,NA,NA,4,6,"8,11,10,2,6,9,5,3,12,15,1,7,4,13,14"
14463,commdev-image-keyboard-response,355,2234653,learnblock2,673,img/planet7_left.png,7,Community 3,NA,TRUE,f,f,NA,NA,NA,4,6,"8,11,10,2,6,9,5,3,12,15,1,7,4,13,14"
14463,commdev-image-keyboard-response,356,2235904,learnblock2,536.8000000715256,img/planet14_left.png,14,Community 3,NA,TRUE,f,f,NA,NA,NA,4,6,"8,11,10,2,6,9,5,3,12,15,1,7,4,13,14"
14463,commdev-image-keyboard-response,357,2237156,learnblock2,606.5,img/planet13_right.png,13,Community 3,NA,TRUE,j,j,NA,NA,NA,4,6,"8,11,10,2,6,9,5,3,12,15,1,7,4,13,14"
14463,commdev-image-keyboard-response,358,2238407,learnblock2,623.7000000476837,img/planet7_right.png,7,Community 3,NA,TRUE,j,j,NA,NA,NA,4,6,"8,11,10,2,6,9,5,3,12,15,1,7,4,13,14"
14463,commdev-image-keyboard-response,359,2239658,learnblock2,621.1000000238419,img/planet14_right.png,14,Community 3,NA,TRUE,j,j,NA,NA,NA,4,6,"8,11,10,2,6,9,5,3,12,15,1,7,4,13,14"
14463,commdev-image-keyboard-response,360,2240911,learnblock2,541.1000000238419,img/planet13_right.png,13,Community 3,NA,TRUE,j,j,NA,NA,NA,4,6,"8,11,10,2,6,9,5,3,12,15,1,7,4,13,14"
14463,commdev-image-keyboard-response,361,2242163,learnblock2,589.5,img/planet1_right.png,1,Community 3,NA,TRUE,j,j,NA,NA,NA,4,6,"8,11,10,2,6,9,5,3,12,15,1,7,4,13,14"
14463,commdev-image-keyboard-response,362,2243415,learnblock2,547.1000000238419,img/planet13_right.png,13,Community 3,NA,TRUE,j,j,NA,NA,NA,4,6,"8,11,10,2,6,9,5,3,12,15,1,7,4,13,14"
14463,commdev-image-keyboard-response,363,2244667,learnblock2,290.60000002384186,img/planet4_left.png,4,Community 3,NA,FALSE,j,f,NA,NA,NA,4,6,"8,11,10,2,6,9,5,3,12,15,1,7,4,13,14"
14463,commdev-image-keyboard-response,364,2245919,learnblock2,895.8999999761581,img/planet7_right.png,7,Community 3,NA,TRUE,j,j,NA,NA,NA,4,6,"8,11,10,2,6,9,5,3,12,15,1,7,4,13,14"
14463,commdev-image-keyboard-response,365,2247171,learnblock2,763.6999999284744,img/planet14_right.png,14,Community 3,NA,TRUE,j,j,NA,NA,NA,4,6,"8,11,10,2,6,9,5,3,12,15,1,7,4,13,14"
14463,commdev-image-keyboard-response,366,2248423,learnblock2,604.1000000238419,img/planet7_right.png,7,Community 3,NA,TRUE,j,j,NA,NA,NA,4,6,"8,11,10,2,6,9,5,3,12,15,1,7,4,13,14"
14463,commdev-image-keyboard-response,367,2249676,learnblock2,577.7999999523163,img/planet3_right.png,3,Community 2,NA,TRUE,j,j,NA,NA,NA,4,6,"8,11,10,2,6,9,5,3,12,15,1,7,4,13,14"
14463,commdev-image-keyboard-response,368,2250928,learnblock2,560.8000000715256,img/planet12_left.png,12,Community 2,NA,TRUE,f,f,NA,NA,NA,4,6,"8,11,10,2,6,9,5,3,12,15,1,7,4,13,14"
14463,commdev-image-keyboard-response,369,2252180,learnblock2,659,img/planet9_right.png,9,Community 2,NA,TRUE,j,j,NA,NA,NA,4,6,"8,11,10,2,6,9,5,3,12,15,1,7,4,13,14"
14463,commdev-image-keyboard-response,370,2253432,learnblock2,736.8000000715256,img/planet2_right.png,2,Community 1,NA,TRUE,j,j,NA,NA,NA,4,6,"8,11,10,2,6,9,5,3,12,15,1,7,4,13,14"
14463,commdev-image-keyboard-response,371,2254683,learnblock2,572.7000000476837,img/planet9_right.png,9,Community 2,NA,TRUE,j,j,NA,NA,NA,4,6,"8,11,10,2,6,9,5,3,12,15,1,7,4,13,14"
14463,commdev-image-keyboard-response,372,2255935,learnblock2,522.7000000476837,img/planet5_left.png,5,Community 2,NA,TRUE,f,f,NA,NA,NA,4,6,"8,11,10,2,6,9,5,3,12,15,1,7,4,13,14"
14463,commdev-image-keyboard-response,373,2257187,learnblock2,514.3000000715256,img/planet12_right.png,12,Community 2,NA,TRUE,j,j,NA,NA,NA,4,6,"8,11,10,2,6,9,5,3,12,15,1,7,4,13,14"
14463,commdev-image-keyboard-response,374,2258439,learnblock2,508.2000000476837,img/planet15_left.png,15,Community 2,NA,TRUE,f,f,NA,NA,NA,4,6,"8,11,10,2,6,9,5,3,12,15,1,7,4,13,14"
14463,commdev-image-keyboard-response,375,2259691,learnblock2,265.5,img/planet12_right.png,12,Community 2,NA,TRUE,j,j,NA,NA,NA,4,6,"8,11,10,2,6,9,5,3,12,15,1,7,4,13,14"
14463,commdev-image-keyboard-response,376,2260942,learnblock2,541.7999999523163,img/planet9_right.png,9,Community 2,NA,TRUE,j,j,NA,NA,NA,4,6,"8,11,10,2,6,9,5,3,12,15,1,7,4,13,14"
14463,commdev-image-keyboard-response,377,2262194,learnblock2,495.40000009536743,img/planet5_left.png,5,Community 2,NA,FALSE,j,f,NA,NA,NA,4,6,"8,11,10,2,6,9,5,3,12,15,1,7,4,13,14"
14463,commdev-image-keyboard-response,378,2263447,learnblock2,660.6000000238419,img/planet12_left.png,12,Community 2,NA,TRUE,f,f,NA,NA,NA,4,6,"8,11,10,2,6,9,5,3,12,15,1,7,4,13,14"
14463,commdev-image-keyboard-response,379,2264698,learnblock2,601.1000000238419,img/planet5_left.png,5,Community 2,NA,TRUE,f,f,NA,NA,NA,4,6,"8,11,10,2,6,9,5,3,12,15,1,7,4,13,14"
14463,commdev-image-keyboard-response,380,2265952,learnblock2,546.3000000715256,img/planet12_right.png,12,Community 2,NA,TRUE,j,j,NA,NA,NA,4,6,"8,11,10,2,6,9,5,3,12,15,1,7,4,13,14"
14463,commdev-image-keyboard-response,381,2267204,learnblock2,647.4000000953674,img/planet5_right.png,5,Community 2,NA,TRUE,j,j,NA,NA,NA,4,6,"8,11,10,2,6,9,5,3,12,15,1,7,4,13,14"
14463,commdev-image-keyboard-response,382,2268456,learnblock2,778.8999999761581,img/planet15_right.png,15,Community 2,NA,TRUE,j,j,NA,NA,NA,4,6,"8,11,10,2,6,9,5,3,12,15,1,7,4,13,14"
14463,commdev-image-keyboard-response,383,2269708,learnblock2,641.5999999046326,img/planet12_left.png,12,Community 2,NA,TRUE,f,f,NA,NA,NA,4,6,"8,11,10,2,6,9,5,3,12,15,1,7,4,13,14"
14463,commdev-image-keyboard-response,384,2270959,learnblock2,593.8999999761581,img/planet5_left.png,5,Community 2,NA,TRUE,f,f,NA,NA,NA,4,6,"8,11,10,2,6,9,5,3,12,15,1,7,4,13,14"
14463,commdev-image-keyboard-response,385,2272211,learnblock2,760,img/planet3_right.png,3,Community 2,NA,TRUE,j,j,NA,NA,NA,4,6,"8,11,10,2,6,9,5,3,12,15,1,7,4,13,14"
14463,commdev-image-keyboard-response,386,2273465,learnblock2,694.2000000476837,img/planet5_right.png,5,Community 2,NA,TRUE,j,j,NA,NA,NA,4,6,"8,11,10,2,6,9,5,3,12,15,1,7,4,13,14"
14463,commdev-image-keyboard-response,387,2274716,learnblock2,818.1000000238419,img/planet15_right.png,15,Community 2,NA,TRUE,j,j,NA,NA,NA,4,6,"8,11,10,2,6,9,5,3,12,15,1,7,4,13,14"
14463,commdev-image-keyboard-response,388,2275969,learnblock2,864.7999999523163,img/planet3_left.png,3,Community 2,NA,TRUE,f,f,NA,NA,NA,4,6,"8,11,10,2,6,9,5,3,12,15,1,7,4,13,14"
14463,commdev-image-keyboard-response,389,2277221,learnblock2,1193.2000000476837,img/planet7_right.png,7,Community 3,NA,TRUE,j,j,NA,NA,NA,4,6,"8,11,10,2,6,9,5,3,12,15,1,7,4,13,14"
14463,commdev-image-keyboard-response,390,2278472,learnblock2,1111.8999999761581,img/planet4_left.png,4,Community 3,NA,TRUE,f,f,NA,NA,NA,4,6,"8,11,10,2,6,9,5,3,12,15,1,7,4,13,14"
14463,commdev-image-keyboard-response,391,2279723,learnblock2,651.1000000238419,img/planet1_left.png,1,Community 3,NA,TRUE,f,f,NA,NA,NA,4,6,"8,11,10,2,6,9,5,3,12,15,1,7,4,13,14"
14463,commdev-image-keyboard-response,392,2280975,learnblock2,856.5999999046326,img/planet13_left.png,13,Community 3,NA,TRUE,f,f,NA,NA,NA,4,6,"8,11,10,2,6,9,5,3,12,15,1,7,4,13,14"
14463,commdev-image-keyboard-response,393,2282227,learnblock2,674.0999999046326,img/planet1_right.png,1,Community 3,NA,TRUE,j,j,NA,NA,NA,4,6,"8,11,10,2,6,9,5,3,12,15,1,7,4,13,14"
14463,commdev-image-keyboard-response,394,2283480,learnblock2,624.6999999284744,img/planet4_right.png,4,Community 3,NA,TRUE,j,j,NA,NA,NA,4,6,"8,11,10,2,6,9,5,3,12,15,1,7,4,13,14"
14463,commdev-image-keyboard-response,395,2284731,learnblock2,786.5,img/planet14_right.png,14,Community 3,NA,TRUE,j,j,NA,NA,NA,4,6,"8,11,10,2,6,9,5,3,12,15,1,7,4,13,14"
14463,commdev-image-keyboard-response,396,2285983,learnblock2,766.2999999523163,img/planet4_left.png,4,Community 3,NA,TRUE,f,f,NA,NA,NA,4,6,"8,11,10,2,6,9,5,3,12,15,1,7,4,13,14"
14463,commdev-image-keyboard-response,397,2287235,learnblock2,682,img/planet1_left.png,1,Community 3,NA,TRUE,f,f,NA,NA,NA,4,6,"8,11,10,2,6,9,5,3,12,15,1,7,4,13,14"
14463,commdev-image-keyboard-response,398,2288487,learnblock2,625,img/planet14_right.png,14,Community 3,NA,TRUE,j,j,NA,NA,NA,4,6,"8,11,10,2,6,9,5,3,12,15,1,7,4,13,14"
14463,commdev-image-keyboard-response,399,2289739,learnblock2,560.1000000238419,img/planet7_left.png,7,Community 3,NA,FALSE,j,f,NA,NA,NA,4,6,"8,11,10,2,6,9,5,3,12,15,1,7,4,13,14"
14463,commdev-image-keyboard-response,400,2290991,learnblock2,1175.5,img/planet4_right.png,4,Community 3,NA,TRUE,j,j,NA,NA,NA,4,6,"8,11,10,2,6,9,5,3,12,15,1,7,4,13,14"
14463,commdev-image-keyboard-response,401,2292243,learnblock2,1047.1000000238419,img/planet14_right.png,14,Community 3,NA,TRUE,j,j,NA,NA,NA,4,6,"8,11,10,2,6,9,5,3,12,15,1,7,4,13,14"
14463,commdev-image-keyboard-response,402,2293495,learnblock2,833.7000000476837,img/planet4_right.png,4,Community 3,NA,TRUE,j,j,NA,NA,NA,4,6,"8,11,10,2,6,9,5,3,12,15,1,7,4,13,14"
14463,commdev-image-keyboard-response,403,2294746,learnblock2,592.2000000476837,img/planet14_right.png,14,Community 3,NA,TRUE,j,j,NA,NA,NA,4,6,"8,11,10,2,6,9,5,3,12,15,1,7,4,13,14"
14463,commdev-image-keyboard-response,404,2295999,learnblock2,641.2999999523163,img/planet1_right.png,1,Community 3,NA,TRUE,j,j,NA,NA,NA,4,6,"8,11,10,2,6,9,5,3,12,15,1,7,4,13,14"
14463,commdev-image-keyboard-response,405,2297251,learnblock2,702.5,img/planet14_left.png,14,Community 3,NA,TRUE,f,f,NA,NA,NA,4,6,"8,11,10,2,6,9,5,3,12,15,1,7,4,13,14"
14463,commdev-image-keyboard-response,406,2298503,learnblock2,621.4000000953674,img/planet1_left.png,1,Community 3,NA,TRUE,f,f,NA,NA,NA,4,6,"8,11,10,2,6,9,5,3,12,15,1,7,4,13,14"
14463,commdev-image-keyboard-response,407,2299755,learnblock2,652.3999999761581,img/planet14_right.png,14,Community 3,NA,TRUE,j,j,NA,NA,NA,4,6,"8,11,10,2,6,9,5,3,12,15,1,7,4,13,14"
14463,commdev-image-keyboard-response,408,2301006,learnblock2,674.3000000715256,img/planet13_left.png,13,Community 3,NA,TRUE,f,f,NA,NA,NA,4,6,"8,11,10,2,6,9,5,3,12,15,1,7,4,13,14"
14463,commdev-image-keyboard-response,409,2302259,learnblock2,643.6999999284744,img/planet7_right.png,7,Community 3,NA,TRUE,j,j,NA,NA,NA,4,6,"8,11,10,2,6,9,5,3,12,15,1,7,4,13,14"
14463,commdev-image-keyboard-response,410,2303520,learnblock2,494.90000009536743,img/planet4_right.png,4,Community 3,NA,TRUE,j,j,NA,NA,NA,4,6,"8,11,10,2,6,9,5,3,12,15,1,7,4,13,14"
14463,commdev-image-keyboard-response,411,2304774,learnblock2,550.3000000715256,img/planet13_left.png,13,Community 3,NA,TRUE,f,f,NA,NA,NA,4,6,"8,11,10,2,6,9,5,3,12,15,1,7,4,13,14"
14463,commdev-image-keyboard-response,412,2306025,learnblock2,540.8000000715256,img/planet4_right.png,4,Community 3,NA,TRUE,j,j,NA,NA,NA,4,6,"8,11,10,2,6,9,5,3,12,15,1,7,4,13,14"
14463,commdev-image-keyboard-response,413,2307278,learnblock2,554.3999999761581,img/planet1_right.png,1,Community 3,NA,TRUE,j,j,NA,NA,NA,4,6,"8,11,10,2,6,9,5,3,12,15,1,7,4,13,14"
14463,commdev-image-keyboard-response,414,2308529,learnblock2,513.3999999761581,img/planet4_left.png,4,Community 3,NA,FALSE,j,f,NA,NA,NA,4,6,"8,11,10,2,6,9,5,3,12,15,1,7,4,13,14"
14463,commdev-image-keyboard-response,415,2309782,learnblock2,734.1000000238419,img/planet7_left.png,7,Community 3,NA,TRUE,f,f,NA,NA,NA,4,6,"8,11,10,2,6,9,5,3,12,15,1,7,4,13,14"
14463,commdev-image-keyboard-response,416,2311035,learnblock2,888.5,img/planet4_right.png,4,Community 3,NA,TRUE,j,j,NA,NA,NA,4,6,"8,11,10,2,6,9,5,3,12,15,1,7,4,13,14"
14463,commdev-image-keyboard-response,417,2312286,learnblock2,658.6999999284744,img/planet13_right.png,13,Community 3,NA,TRUE,j,j,NA,NA,NA,4,6,"8,11,10,2,6,9,5,3,12,15,1,7,4,13,14"
14463,commdev-image-keyboard-response,418,2313538,learnblock2,687.1000000238419,img/planet1_right.png,1,Community 3,NA,TRUE,j,j,NA,NA,NA,4,6,"8,11,10,2,6,9,5,3,12,15,1,7,4,13,14"
14463,commdev-image-keyboard-response,419,2314791,learnblock2,740.0999999046326,img/planet14_left.png,14,Community 3,NA,TRUE,f,f,NA,NA,NA,4,6,"8,11,10,2,6,9,5,3,12,15,1,7,4,13,14"
14463,commdev-image-keyboard-response,420,2316042,learnblock2,698.1000000238419,img/planet7_right.png,7,Community 3,NA,TRUE,j,j,NA,NA,NA,4,6,"8,11,10,2,6,9,5,3,12,15,1,7,4,13,14"
14463,commdev-image-keyboard-response,421,2317294,learnblock2,666.8999999761581,img/planet14_right.png,14,Community 3,NA,TRUE,j,j,NA,NA,NA,4,6,"8,11,10,2,6,9,5,3,12,15,1,7,4,13,14"
14463,commdev-image-keyboard-response,422,2318546,learnblock2,678.6000000238419,img/planet13_right.png,13,Community 3,NA,TRUE,j,j,NA,NA,NA,4,6,"8,11,10,2,6,9,5,3,12,15,1,7,4,13,14"
14463,commdev-image-keyboard-response,423,2319798,learnblock2,606.5,img/planet7_left.png,7,Community 3,NA,TRUE,f,f,NA,NA,NA,4,6,"8,11,10,2,6,9,5,3,12,15,1,7,4,13,14"
14463,commdev-image-keyboard-response,424,2321050,learnblock2,578.1000000238419,img/planet13_left.png,13,Community 3,NA,TRUE,f,f,NA,NA,NA,4,6,"8,11,10,2,6,9,5,3,12,15,1,7,4,13,14"
14463,commdev-image-keyboard-response,425,2322301,learnblock2,630.7999999523163,img/planet7_right.png,7,Community 3,NA,TRUE,j,j,NA,NA,NA,4,6,"8,11,10,2,6,9,5,3,12,15,1,7,4,13,14"
14463,commdev-image-keyboard-response,426,2323553,learnblock2,544.6999999284744,img/planet4_left.png,4,Community 3,NA,TRUE,f,f,NA,NA,NA,4,6,"8,11,10,2,6,9,5,3,12,15,1,7,4,13,14"
14463,commdev-image-keyboard-response,427,2324805,learnblock2,529.6000000238419,img/planet7_left.png,7,Community 3,NA,TRUE,f,f,NA,NA,NA,4,6,"8,11,10,2,6,9,5,3,12,15,1,7,4,13,14"
14463,commdev-image-keyboard-response,428,2326057,learnblock2,496.10000002384186,img/planet4_right.png,4,Community 3,NA,TRUE,j,j,NA,NA,NA,4,6,"8,11,10,2,6,9,5,3,12,15,1,7,4,13,14"
14463,commdev-image-keyboard-response,429,2327309,learnblock2,486,img/planet1_left.png,1,Community 3,NA,TRUE,f,f,NA,NA,NA,4,6,"8,11,10,2,6,9,5,3,12,15,1,7,4,13,14"
14463,commdev-image-keyboard-response,430,2328561,learnblock2,639.2000000476837,img/planet4_right.png,4,Community 3,NA,TRUE,j,j,NA,NA,NA,4,6,"8,11,10,2,6,9,5,3,12,15,1,7,4,13,14"
14463,commdev-image-keyboard-response,431,2329813,learnblock2,693.2000000476837,img/planet1_right.png,1,Community 3,NA,TRUE,j,j,NA,NA,NA,4,6,"8,11,10,2,6,9,5,3,12,15,1,7,4,13,14"
14463,commdev-image-keyboard-response,432,2331065,learnblock2,563.5,img/planet6_right.png,6,Community 1,NA,TRUE,j,j,NA,NA,NA,4,6,"8,11,10,2,6,9,5,3,12,15,1,7,4,13,14"
14463,commdev-image-keyboard-response,433,2332317,learnblock2,579.5,img/planet8_right.png,8,Community 1,NA,TRUE,j,j,NA,NA,NA,4,6,"8,11,10,2,6,9,5,3,12,15,1,7,4,13,14"
14463,commdev-image-keyboard-response,434,2333569,learnblock2,456,img/planet10_left.png,10,Community 1,NA,TRUE,f,f,NA,NA,NA,4,6,"8,11,10,2,6,9,5,3,12,15,1,7,4,13,14"
14463,commdev-image-keyboard-response,435,2334821,learnblock2,656.1000000238419,img/planet8_right.png,8,Community 1,NA,TRUE,j,j,NA,NA,NA,4,6,"8,11,10,2,6,9,5,3,12,15,1,7,4,13,14"
14463,commdev-image-keyboard-response,436,2336073,learnblock2,680.7999999523163,img/planet6_right.png,6,Community 1,NA,TRUE,j,j,NA,NA,NA,4,6,"8,11,10,2,6,9,5,3,12,15,1,7,4,13,14"
14463,commdev-image-keyboard-response,437,2337324,learnblock2,561.4000000953674,img/planet10_left.png,10,Community 1,NA,TRUE,f,f,NA,NA,NA,4,6,"8,11,10,2,6,9,5,3,12,15,1,7,4,13,14"
14463,commdev-image-keyboard-response,438,2338576,learnblock2,676.7000000476837,img/planet6_left.png,6,Community 1,NA,TRUE,f,f,NA,NA,NA,4,6,"8,11,10,2,6,9,5,3,12,15,1,7,4,13,14"
14463,commdev-image-keyboard-response,439,2339829,learnblock2,564.8999999761581,img/planet11_right.png,11,Community 1,NA,TRUE,j,j,NA,NA,NA,4,6,"8,11,10,2,6,9,5,3,12,15,1,7,4,13,14"
14463,commdev-image-keyboard-response,440,2341081,learnblock2,575.7999999523163,img/planet6_right.png,6,Community 1,NA,TRUE,j,j,NA,NA,NA,4,6,"8,11,10,2,6,9,5,3,12,15,1,7,4,13,14"
14463,commdev-image-keyboard-response,441,2342346,learnblock2,538.8000000715256,img/planet8_left.png,8,Community 1,NA,FALSE,j,f,NA,NA,NA,4,6,"8,11,10,2,6,9,5,3,12,15,1,7,4,13,14"
14463,commdev-image-keyboard-response,442,2343599,learnblock2,634.6000000238419,img/planet2_right.png,2,Community 1,NA,TRUE,j,j,NA,NA,NA,4,6,"8,11,10,2,6,9,5,3,12,15,1,7,4,13,14"
14463,commdev-image-keyboard-response,443,2344850,learnblock2,538,img/planet9_left.png,9,Community 2,NA,TRUE,f,f,NA,NA,NA,4,6,"8,11,10,2,6,9,5,3,12,15,1,7,4,13,14"
14463,commdev-image-keyboard-response,444,2346101,learnblock2,566.5,img/planet12_left.png,12,Community 2,NA,TRUE,f,f,NA,NA,NA,4,6,"8,11,10,2,6,9,5,3,12,15,1,7,4,13,14"
14463,commdev-image-keyboard-response,445,2347364,learnblock2,464.39999997615814,img/planet9_left.png,9,Community 2,NA,TRUE,f,f,NA,NA,NA,4,6,"8,11,10,2,6,9,5,3,12,15,1,7,4,13,14"
14463,commdev-image-keyboard-response,446,2348616,learnblock2,517.4000000953674,img/planet15_left.png,15,Community 2,NA,TRUE,f,f,NA,NA,NA,4,6,"8,11,10,2,6,9,5,3,12,15,1,7,4,13,14"
14463,commdev-image-keyboard-response,447,2349869,learnblock2,687.5,img/planet3_right.png,3,Community 2,NA,TRUE,j,j,NA,NA,NA,4,6,"8,11,10,2,6,9,5,3,12,15,1,7,4,13,14"
14463,commdev-image-keyboard-response,448,2351121,learnblock2,732.6000000238419,img/planet12_right.png,12,Community 2,NA,TRUE,j,j,NA,NA,NA,4,6,"8,11,10,2,6,9,5,3,12,15,1,7,4,13,14"
14463,commdev-image-keyboard-response,449,2352372,learnblock2,746.6999999284744,img/planet5_left.png,5,Community 2,NA,TRUE,f,f,NA,NA,NA,4,6,"8,11,10,2,6,9,5,3,12,15,1,7,4,13,14"
14463,commdev-image-keyboard-response,450,2353624,learnblock2,801.2000000476837,img/planet15_left.png,15,Community 2,NA,TRUE,f,f,NA,NA,NA,4,6,"8,11,10,2,6,9,5,3,12,15,1,7,4,13,14"
14463,commdev-image-keyboard-response,451,2354876,learnblock2,640.3999999761581,img/planet3_left.png,3,Community 2,NA,TRUE,f,f,NA,NA,NA,4,6,"8,11,10,2,6,9,5,3,12,15,1,7,4,13,14"
14463,commdev-image-keyboard-response,452,2356128,learnblock2,748.2999999523163,img/planet15_right.png,15,Community 2,NA,TRUE,j,j,NA,NA,NA,4,6,"8,11,10,2,6,9,5,3,12,15,1,7,4,13,14"
14463,commdev-image-keyboard-response,453,2357379,learnblock2,622.8999999761581,img/planet5_right.png,5,Community 2,NA,TRUE,j,j,NA,NA,NA,4,6,"8,11,10,2,6,9,5,3,12,15,1,7,4,13,14"
14463,commdev-image-keyboard-response,454,2358630,learnblock2,576.5,img/planet15_left.png,15,Community 2,NA,TRUE,f,f,NA,NA,NA,4,6,"8,11,10,2,6,9,5,3,12,15,1,7,4,13,14"
14463,commdev-image-keyboard-response,455,2359882,learnblock2,653.8999999761581,img/planet9_right.png,9,Community 2,NA,TRUE,j,j,NA,NA,NA,4,6,"8,11,10,2,6,9,5,3,12,15,1,7,4,13,14"
14463,commdev-image-keyboard-response,456,2361134,learnblock2,461.2000000476837,img/planet12_left.png,12,Community 2,NA,TRUE,f,f,NA,NA,NA,4,6,"8,11,10,2,6,9,5,3,12,15,1,7,4,13,14"
14463,commdev-image-keyboard-response,457,2362386,learnblock2,430.89999997615814,img/planet3_left.png,3,Community 2,NA,FALSE,j,f,NA,NA,NA,4,6,"8,11,10,2,6,9,5,3,12,15,1,7,4,13,14"
14463,commdev-image-keyboard-response,458,2363639,learnblock2,683.9000000953674,img/planet15_left.png,15,Community 2,NA,TRUE,f,f,NA,NA,NA,4,6,"8,11,10,2,6,9,5,3,12,15,1,7,4,13,14"
14463,commdev-image-keyboard-response,459,2364891,learnblock2,619.1999999284744,img/planet3_right.png,3,Community 2,NA,TRUE,j,j,NA,NA,NA,4,6,"8,11,10,2,6,9,5,3,12,15,1,7,4,13,14"
14463,commdev-image-keyboard-response,460,2366143,learnblock2,603.1999999284744,img/planet15_left.png,15,Community 2,NA,TRUE,f,f,NA,NA,NA,4,6,"8,11,10,2,6,9,5,3,12,15,1,7,4,13,14"
14463,commdev-image-keyboard-response,461,2367404,learnblock2,754.2000000476837,img/planet5_left.png,5,Community 2,NA,TRUE,f,f,NA,NA,NA,4,6,"8,11,10,2,6,9,5,3,12,15,1,7,4,13,14"
14463,commdev-image-keyboard-response,462,2368657,learnblock2,560.8000000715256,img/planet12_right.png,12,Community 2,NA,TRUE,j,j,NA,NA,NA,4,6,"8,11,10,2,6,9,5,3,12,15,1,7,4,13,14"
14463,commdev-image-keyboard-response,463,2369908,learnblock2,707.8000000715256,img/planet9_right.png,9,Community 2,NA,TRUE,j,j,NA,NA,NA,4,6,"8,11,10,2,6,9,5,3,12,15,1,7,4,13,14"
14463,commdev-image-keyboard-response,464,2371160,learnblock2,570.3000000715256,img/planet15_left.png,15,Community 2,NA,TRUE,f,f,NA,NA,NA,4,6,"8,11,10,2,6,9,5,3,12,15,1,7,4,13,14"
14463,commdev-image-keyboard-response,465,2372412,learnblock2,738.1000000238419,img/planet12_right.png,12,Community 2,NA,TRUE,j,j,NA,NA,NA,4,6,"8,11,10,2,6,9,5,3,12,15,1,7,4,13,14"
14463,commdev-image-keyboard-response,466,2373664,learnblock2,881.7000000476837,img/planet15_right.png,15,Community 2,NA,TRUE,j,j,NA,NA,NA,4,6,"8,11,10,2,6,9,5,3,12,15,1,7,4,13,14"
14463,commdev-image-keyboard-response,467,2374916,learnblock2,556,img/planet5_right.png,5,Community 2,NA,TRUE,j,j,NA,NA,NA,4,6,"8,11,10,2,6,9,5,3,12,15,1,7,4,13,14"
14463,commdev-image-keyboard-response,468,2376167,learnblock2,612.5,img/planet12_right.png,12,Community 2,NA,TRUE,j,j,NA,NA,NA,4,6,"8,11,10,2,6,9,5,3,12,15,1,7,4,13,14"
14463,commdev-image-keyboard-response,469,2377419,learnblock2,479.5,img/planet5_right.png,5,Community 2,NA,TRUE,j,j,NA,NA,NA,4,6,"8,11,10,2,6,9,5,3,12,15,1,7,4,13,14"
14463,commdev-image-keyboard-response,470,2378671,learnblock2,483.09999990463257,img/planet15_right.png,15,Community 2,NA,FALSE,f,j,NA,NA,NA,4,6,"8,11,10,2,6,9,5,3,12,15,1,7,4,13,14"
14463,commdev-image-keyboard-response,471,2379921,learnblock2,620.8999999761581,img/planet12_left.png,12,Community 2,NA,TRUE,f,f,NA,NA,NA,4,6,"8,11,10,2,6,9,5,3,12,15,1,7,4,13,14"
14463,commdev-image-keyboard-response,472,2381173,learnblock2,591.0999999046326,img/planet5_right.png,5,Community 2,NA,TRUE,j,j,NA,NA,NA,4,6,"8,11,10,2,6,9,5,3,12,15,1,7,4,13,14"
14463,commdev-image-keyboard-response,473,2382426,learnblock2,524.2000000476837,img/planet3_right.png,3,Community 2,NA,TRUE,j,j,NA,NA,NA,4,6,"8,11,10,2,6,9,5,3,12,15,1,7,4,13,14"
14463,commdev-image-keyboard-response,474,2383677,learnblock2,614.1000000238419,img/planet7_left.png,7,Community 3,NA,TRUE,f,f,NA,NA,NA,4,6,"8,11,10,2,6,9,5,3,12,15,1,7,4,13,14"
14463,commdev-image-keyboard-response,475,2384930,learnblock2,608.7000000476837,img/planet14_right.png,14,Community 3,NA,TRUE,j,j,NA,NA,NA,4,6,"8,11,10,2,6,9,5,3,12,15,1,7,4,13,14"
14463,commdev-image-keyboard-response,476,2386182,learnblock2,601.0999999046326,img/planet1_right.png,1,Community 3,NA,TRUE,j,j,NA,NA,NA,4,6,"8,11,10,2,6,9,5,3,12,15,1,7,4,13,14"
14463,commdev-image-keyboard-response,477,2387435,learnblock2,511.59999990463257,img/planet14_right.png,14,Community 3,NA,TRUE,j,j,NA,NA,NA,4,6,"8,11,10,2,6,9,5,3,12,15,1,7,4,13,14"
14463,commdev-image-keyboard-response,478,2388687,learnblock2,449.89999997615814,img/planet7_left.png,7,Community 3,NA,TRUE,f,f,NA,NA,NA,4,6,"8,11,10,2,6,9,5,3,12,15,1,7,4,13,14"
14463,commdev-image-keyboard-response,479,2389938,learnblock2,570.8999999761581,img/planet3_left.png,3,Community 2,NA,TRUE,f,f,NA,NA,NA,4,6,"8,11,10,2,6,9,5,3,12,15,1,7,4,13,14"
14463,commdev-image-keyboard-response,480,2391190,learnblock2,812.4000000953674,img/planet7_right.png,7,Community 3,NA,TRUE,j,j,NA,NA,NA,4,6,"8,11,10,2,6,9,5,3,12,15,1,7,4,13,14"
14463,commdev-image-keyboard-response,481,2392441,learnblock2,579.3999999761581,img/planet3_left.png,3,Community 2,NA,FALSE,j,f,NA,NA,NA,4,6,"8,11,10,2,6,9,5,3,12,15,1,7,4,13,14"
14463,commdev-image-keyboard-response,482,2393693,learnblock2,523.3999999761581,img/planet7_right.png,7,Community 3,NA,TRUE,j,j,NA,NA,NA,4,6,"8,11,10,2,6,9,5,3,12,15,1,7,4,13,14"
14463,commdev-image-keyboard-response,483,2394945,learnblock2,564.3999999761581,img/planet4_right.png,4,Community 3,NA,TRUE,j,j,NA,NA,NA,4,6,"8,11,10,2,6,9,5,3,12,15,1,7,4,13,14"
14463,commdev-image-keyboard-response,484,2396197,learnblock2,615.5,img/planet1_right.png,1,Community 3,NA,TRUE,j,j,NA,NA,NA,4,6,"8,11,10,2,6,9,5,3,12,15,1,7,4,13,14"
14463,commdev-image-keyboard-response,485,2397449,learnblock2,639.7000000476837,img/planet13_left.png,13,Community 3,NA,TRUE,f,f,NA,NA,NA,4,6,"8,11,10,2,6,9,5,3,12,15,1,7,4,13,14"
14463,commdev-image-keyboard-response,486,2398701,learnblock2,673.8999999761581,img/planet14_right.png,14,Community 3,NA,TRUE,j,j,NA,NA,NA,4,6,"8,11,10,2,6,9,5,3,12,15,1,7,4,13,14"
14463,commdev-image-keyboard-response,487,2399953,learnblock2,578.2999999523163,img/planet13_left.png,13,Community 3,NA,TRUE,f,f,NA,NA,NA,4,6,"8,11,10,2,6,9,5,3,12,15,1,7,4,13,14"
14463,commdev-image-keyboard-response,488,2401205,learnblock2,805.2000000476837,img/planet7_right.png,7,Community 3,NA,TRUE,j,j,NA,NA,NA,4,6,"8,11,10,2,6,9,5,3,12,15,1,7,4,13,14"
14463,commdev-image-keyboard-response,489,2402457,learnblock2,561,img/planet13_right.png,13,Community 3,NA,FALSE,f,j,NA,NA,NA,4,6,"8,11,10,2,6,9,5,3,12,15,1,7,4,13,14"
14463,commdev-image-keyboard-response,490,2403710,learnblock2,679.6999999284744,img/planet7_right.png,7,Community 3,NA,TRUE,j,j,NA,NA,NA,4,6,"8,11,10,2,6,9,5,3,12,15,1,7,4,13,14"
14463,commdev-image-keyboard-response,491,2404961,learnblock2,564.1000000238419,img/planet13_right.png,13,Community 3,NA,TRUE,j,j,NA,NA,NA,4,6,"8,11,10,2,6,9,5,3,12,15,1,7,4,13,14"
14463,commdev-image-keyboard-response,492,2406213,learnblock2,466.10000002384186,img/planet7_left.png,7,Community 3,NA,FALSE,j,f,NA,NA,NA,4,6,"8,11,10,2,6,9,5,3,12,15,1,7,4,13,14"
14463,commdev-image-keyboard-response,493,2407465,learnblock2,41.5,img/planet14_left.png,14,Community 3,NA,TRUE,f,f,NA,NA,NA,4,6,"8,11,10,2,6,9,5,3,12,15,1,7,4,13,14"
14463,commdev-image-keyboard-response,494,2408716,learnblock2,628.7999999523163,img/planet4_right.png,4,Community 3,NA,TRUE,j,j,NA,NA,NA,4,6,"8,11,10,2,6,9,5,3,12,15,1,7,4,13,14"
14463,commdev-image-keyboard-response,495,2409969,learnblock2,543.3000000715256,img/planet7_left.png,7,Community 3,NA,TRUE,f,f,NA,NA,NA,4,6,"8,11,10,2,6,9,5,3,12,15,1,7,4,13,14"
14463,commdev-image-keyboard-response,496,2411222,learnblock2,756.8999999761581,img/planet4_right.png,4,Community 3,NA,TRUE,j,j,NA,NA,NA,4,6,"8,11,10,2,6,9,5,3,12,15,1,7,4,13,14"
14463,commdev-image-keyboard-response,497,2412473,learnblock2,640.0999999046326,img/planet1_left.png,1,Community 3,NA,TRUE,f,f,NA,NA,NA,4,6,"8,11,10,2,6,9,5,3,12,15,1,7,4,13,14"
14463,commdev-image-keyboard-response,498,2413725,learnblock2,699.7000000476837,img/planet4_right.png,4,Community 3,NA,TRUE,j,j,NA,NA,NA,4,6,"8,11,10,2,6,9,5,3,12,15,1,7,4,13,14"
14463,commdev-image-keyboard-response,499,2414977,learnblock2,614,img/planet1_right.png,1,Community 3,NA,TRUE,j,j,NA,NA,NA,4,6,"8,11,10,2,6,9,5,3,12,15,1,7,4,13,14"
14463,commdev-image-keyboard-response,500,2416230,learnblock2,557.1000000238419,img/planet13_left.png,13,Community 3,NA,TRUE,f,f,NA,NA,NA,4,6,"8,11,10,2,6,9,5,3,12,15,1,7,4,13,14"
14463,commdev-image-keyboard-response,501,2417481,learnblock2,557.8999999761581,img/planet14_left.png,14,Community 3,NA,TRUE,f,f,NA,NA,NA,4,6,"8,11,10,2,6,9,5,3,12,15,1,7,4,13,14"
14463,commdev-image-keyboard-response,502,2418733,learnblock2,410,img/planet13_left.png,13,Community 3,NA,TRUE,f,f,NA,NA,NA,4,6,"8,11,10,2,6,9,5,3,12,15,1,7,4,13,14"
14463,commdev-image-keyboard-response,503,2419985,learnblock2,485.89999997615814,img/planet4_right.png,4,Community 3,NA,TRUE,j,j,NA,NA,NA,4,6,"8,11,10,2,6,9,5,3,12,15,1,7,4,13,14"
14463,commdev-image-keyboard-response,504,2421237,learnblock2,445.1999999284744,img/planet13_left.png,13,Community 3,NA,FALSE,j,f,NA,NA,NA,4,6,"8,11,10,2,6,9,5,3,12,15,1,7,4,13,14"
14463,commdev-image-keyboard-response,505,2422499,learnblock2,533.2999999523163,img/planet7_right.png,7,Community 3,NA,TRUE,j,j,NA,NA,NA,4,6,"8,11,10,2,6,9,5,3,12,15,1,7,4,13,14"
14463,commdev-image-keyboard-response,506,2423750,learnblock2,468.2999999523163,img/planet3_left.png,3,Community 2,NA,FALSE,j,f,NA,NA,NA,4,6,"8,11,10,2,6,9,5,3,12,15,1,7,4,13,14"
14463,commdev-image-keyboard-response,507,2425009,learnblock2,336.1999999284744,img/planet7_right.png,7,Community 3,NA,TRUE,j,j,NA,NA,NA,4,6,"8,11,10,2,6,9,5,3,12,15,1,7,4,13,14"
14463,commdev-image-keyboard-response,508,2426261,learnblock2,429.7999999523163,img/planet3_left.png,3,Community 2,NA,FALSE,j,f,NA,NA,NA,4,6,"8,11,10,2,6,9,5,3,12,15,1,7,4,13,14"
14463,commdev-image-keyboard-response,509,2427513,learnblock2,517.6000000238419,img/planet7_left.png,7,Community 3,NA,TRUE,f,f,NA,NA,NA,4,6,"8,11,10,2,6,9,5,3,12,15,1,7,4,13,14"
14463,commdev-image-keyboard-response,510,2428765,learnblock2,629.5,img/planet13_right.png,13,Community 3,NA,TRUE,j,j,NA,NA,NA,4,6,"8,11,10,2,6,9,5,3,12,15,1,7,4,13,14"
14463,commdev-image-keyboard-response,511,2430017,learnblock2,597.6000000238419,img/planet7_left.png,7,Community 3,NA,TRUE,f,f,NA,NA,NA,4,6,"8,11,10,2,6,9,5,3,12,15,1,7,4,13,14"
14463,commdev-image-keyboard-response,512,2431274,learnblock2,638.6000000238419,img/planet14_right.png,14,Community 3,NA,TRUE,j,j,NA,NA,NA,4,6,"8,11,10,2,6,9,5,3,12,15,1,7,4,13,14"
14463,commdev-image-keyboard-response,513,2432526,learnblock2,475.1999999284744,img/planet4_left.png,4,Community 3,NA,TRUE,f,f,NA,NA,NA,4,6,"8,11,10,2,6,9,5,3,12,15,1,7,4,13,14"
14463,commdev-image-keyboard-response,514,2433778,learnblock2,564.5,img/planet14_left.png,14,Community 3,NA,TRUE,f,f,NA,NA,NA,4,6,"8,11,10,2,6,9,5,3,12,15,1,7,4,13,14"
14463,commdev-image-keyboard-response,515,2435030,learnblock2,372.1999999284744,img/planet1_left.png,1,Community 3,NA,TRUE,f,f,NA,NA,NA,4,6,"8,11,10,2,6,9,5,3,12,15,1,7,4,13,14"
14463,commdev-image-keyboard-response,516,2436281,learnblock2,543,img/planet4_right.png,4,Community 3,NA,TRUE,j,j,NA,NA,NA,4,6,"8,11,10,2,6,9,5,3,12,15,1,7,4,13,14"
14463,commdev-image-keyboard-response,517,2437541,learnblock2,374.89999997615814,img/planet1_left.png,1,Community 3,NA,TRUE,f,f,NA,NA,NA,4,6,"8,11,10,2,6,9,5,3,12,15,1,7,4,13,14"
14463,commdev-image-keyboard-response,518,2438793,learnblock2,292.39999997615814,img/planet4_right.png,4,Community 3,NA,TRUE,j,j,NA,NA,NA,4,6,"8,11,10,2,6,9,5,3,12,15,1,7,4,13,14"
14463,commdev-image-keyboard-response,519,2440045,learnblock2,504.89999997615814,img/planet14_right.png,14,Community 3,NA,TRUE,j,j,NA,NA,NA,4,6,"8,11,10,2,6,9,5,3,12,15,1,7,4,13,14"
14463,commdev-image-keyboard-response,520,2441297,learnblock2,460.09999990463257,img/planet4_left.png,4,Community 3,NA,FALSE,j,f,NA,NA,NA,4,6,"8,11,10,2,6,9,5,3,12,15,1,7,4,13,14"
14463,commdev-image-keyboard-response,521,2442549,learnblock2,569.5,img/planet14_left.png,14,Community 3,NA,TRUE,f,f,NA,NA,NA,4,6,"8,11,10,2,6,9,5,3,12,15,1,7,4,13,14"
14463,commdev-image-keyboard-response,522,2443801,learnblock2,430.09999990463257,img/planet4_left.png,4,Community 3,NA,TRUE,f,f,NA,NA,NA,4,6,"8,11,10,2,6,9,5,3,12,15,1,7,4,13,14"
14463,commdev-image-keyboard-response,523,2445053,learnblock2,574.4000000953674,img/planet7_left.png,7,Community 3,NA,TRUE,f,f,NA,NA,NA,4,6,"8,11,10,2,6,9,5,3,12,15,1,7,4,13,14"
14463,commdev-image-keyboard-response,524,2446305,learnblock2,341.10000002384186,img/planet3_right.png,3,Community 2,NA,TRUE,j,j,NA,NA,NA,4,6,"8,11,10,2,6,9,5,3,12,15,1,7,4,13,14"
14463,commdev-image-keyboard-response,525,2447557,learnblock2,453.7000000476837,img/planet15_right.png,15,Community 2,NA,TRUE,j,j,NA,NA,NA,4,6,"8,11,10,2,6,9,5,3,12,15,1,7,4,13,14"
14463,commdev-image-keyboard-response,526,2448809,learnblock2,667.3999999761581,img/planet5_right.png,5,Community 2,NA,TRUE,j,j,NA,NA,NA,4,6,"8,11,10,2,6,9,5,3,12,15,1,7,4,13,14"
14463,commdev-image-keyboard-response,527,2450061,learnblock2,516.3999999761581,img/planet15_left.png,15,Community 2,NA,TRUE,f,f,NA,NA,NA,4,6,"8,11,10,2,6,9,5,3,12,15,1,7,4,13,14"
14463,commdev-image-keyboard-response,528,2451313,learnblock2,559.0999999046326,img/planet9_left.png,9,Community 2,NA,TRUE,f,f,NA,NA,NA,4,6,"8,11,10,2,6,9,5,3,12,15,1,7,4,13,14"
14463,commdev-image-keyboard-response,529,2452565,learnblock2,549,img/planet15_left.png,15,Community 2,NA,TRUE,f,f,NA,NA,NA,4,6,"8,11,10,2,6,9,5,3,12,15,1,7,4,13,14"
14463,commdev-image-keyboard-response,530,2453817,learnblock2,474.8000000715256,img/planet12_right.png,12,Community 2,NA,TRUE,j,j,NA,NA,NA,4,6,"8,11,10,2,6,9,5,3,12,15,1,7,4,13,14"
14463,commdev-image-keyboard-response,531,2455069,learnblock2,636.2000000476837,img/planet9_right.png,9,Community 2,NA,TRUE,j,j,NA,NA,NA,4,6,"8,11,10,2,6,9,5,3,12,15,1,7,4,13,14"
14463,commdev-image-keyboard-response,532,2456322,learnblock2,564.1999999284744,img/planet15_right.png,15,Community 2,NA,TRUE,j,j,NA,NA,NA,4,6,"8,11,10,2,6,9,5,3,12,15,1,7,4,13,14"
14463,commdev-image-keyboard-response,533,2457574,learnblock2,615.0999999046326,img/planet5_right.png,5,Community 2,NA,TRUE,j,j,NA,NA,NA,4,6,"8,11,10,2,6,9,5,3,12,15,1,7,4,13,14"
14463,commdev-image-keyboard-response,534,2458826,learnblock2,376.89999997615814,img/planet9_left.png,9,Community 2,NA,FALSE,j,f,NA,NA,NA,4,6,"8,11,10,2,6,9,5,3,12,15,1,7,4,13,14"
14463,commdev-image-keyboard-response,535,2460076,learnblock2,574.7999999523163,img/planet2_left.png,2,Community 1,NA,TRUE,f,f,NA,NA,NA,4,6,"8,11,10,2,6,9,5,3,12,15,1,7,4,13,14"
14463,commdev-image-keyboard-response,536,2461329,learnblock2,391.2999999523163,img/planet9_left.png,9,Community 2,NA,TRUE,f,f,NA,NA,NA,4,6,"8,11,10,2,6,9,5,3,12,15,1,7,4,13,14"
14463,commdev-image-keyboard-response,537,2462581,learnblock2,70.79999995231628,img/planet15_left.png,15,Community 2,NA,TRUE,f,f,NA,NA,NA,4,6,"8,11,10,2,6,9,5,3,12,15,1,7,4,13,14"
14463,commdev-image-keyboard-response,538,2463832,learnblock2,738.7000000476837,img/planet3_left.png,3,Community 2,NA,TRUE,f,f,NA,NA,NA,4,6,"8,11,10,2,6,9,5,3,12,15,1,7,4,13,14"
14463,commdev-image-keyboard-response,539,2465084,learnblock2,602.5999999046326,img/planet7_left.png,7,Community 3,NA,TRUE,f,f,NA,NA,NA,4,6,"8,11,10,2,6,9,5,3,12,15,1,7,4,13,14"
14463,commdev-image-keyboard-response,540,2466335,learnblock2,627.1999999284744,img/planet14_left.png,14,Community 3,NA,TRUE,f,f,NA,NA,NA,4,6,"8,11,10,2,6,9,5,3,12,15,1,7,4,13,14"
14463,commdev-image-keyboard-response,541,2467587,learnblock2,439.1999999284744,img/planet7_right.png,7,Community 3,NA,TRUE,j,j,NA,NA,NA,4,6,"8,11,10,2,6,9,5,3,12,15,1,7,4,13,14"
14463,commdev-image-keyboard-response,542,2468839,learnblock2,565,img/planet14_right.png,14,Community 3,NA,TRUE,j,j,NA,NA,NA,4,6,"8,11,10,2,6,9,5,3,12,15,1,7,4,13,14"
14463,commdev-image-keyboard-response,543,2470091,learnblock2,1094,img/planet1_right.png,1,Community 3,NA,TRUE,j,j,NA,NA,NA,4,6,"8,11,10,2,6,9,5,3,12,15,1,7,4,13,14"
14463,commdev-image-keyboard-response,544,2471343,learnblock2,1052,img/planet4_left.png,4,Community 3,NA,TRUE,f,f,NA,NA,NA,4,6,"8,11,10,2,6,9,5,3,12,15,1,7,4,13,14"
14463,commdev-image-keyboard-response,545,2472595,learnblock2,932.5,img/planet7_left.png,7,Community 3,NA,TRUE,f,f,NA,NA,NA,4,6,"8,11,10,2,6,9,5,3,12,15,1,7,4,13,14"
14463,commdev-image-keyboard-response,546,2473847,learnblock2,811.1000000238419,img/planet4_right.png,4,Community 3,NA,TRUE,j,j,NA,NA,NA,4,6,"8,11,10,2,6,9,5,3,12,15,1,7,4,13,14"
14463,commdev-image-keyboard-response,547,2475099,learnblock2,852.1000000238419,img/planet7_right.png,7,Community 3,NA,TRUE,j,j,NA,NA,NA,4,6,"8,11,10,2,6,9,5,3,12,15,1,7,4,13,14"
14463,commdev-image-keyboard-response,548,2476350,learnblock2,580.2999999523163,img/planet3_left.png,3,Community 2,NA,TRUE,f,f,NA,NA,NA,4,6,"8,11,10,2,6,9,5,3,12,15,1,7,4,13,14"
14463,commdev-image-keyboard-response,549,2477602,learnblock2,850.5,img/planet5_right.png,5,Community 2,NA,FALSE,f,j,NA,NA,NA,4,6,"8,11,10,2,6,9,5,3,12,15,1,7,4,13,14"
14463,commdev-image-keyboard-response,550,2478854,learnblock2,597,img/planet3_left.png,3,Community 2,NA,FALSE,j,f,NA,NA,NA,4,6,"8,11,10,2,6,9,5,3,12,15,1,7,4,13,14"
14463,commdev-image-keyboard-response,551,2480105,learnblock2,647.7000000476837,img/planet5_right.png,5,Community 2,NA,TRUE,j,j,NA,NA,NA,4,6,"8,11,10,2,6,9,5,3,12,15,1,7,4,13,14"
14463,commdev-image-keyboard-response,552,2481357,learnblock2,520.0999999046326,img/planet3_right.png,3,Community 2,NA,TRUE,j,j,NA,NA,NA,4,6,"8,11,10,2,6,9,5,3,12,15,1,7,4,13,14"
14463,commdev-image-keyboard-response,553,2482608,learnblock2,586.9000000953674,img/planet5_left.png,5,Community 2,NA,FALSE,j,f,NA,NA,NA,4,6,"8,11,10,2,6,9,5,3,12,15,1,7,4,13,14"
14463,commdev-image-keyboard-response,554,2483859,learnblock2,754.1000000238419,img/planet3_left.png,3,Community 2,NA,TRUE,f,f,NA,NA,NA,4,6,"8,11,10,2,6,9,5,3,12,15,1,7,4,13,14"
14463,commdev-image-keyboard-response,555,2485112,learnblock2,540.3999999761581,img/planet12_left.png,12,Community 2,NA,TRUE,f,f,NA,NA,NA,4,6,"8,11,10,2,6,9,5,3,12,15,1,7,4,13,14"
14463,commdev-image-keyboard-response,556,2486364,learnblock2,405.39999997615814,img/planet15_right.png,15,Community 2,NA,TRUE,j,j,NA,NA,NA,4,6,"8,11,10,2,6,9,5,3,12,15,1,7,4,13,14"
14463,commdev-image-keyboard-response,557,2487615,learnblock2,570.3999999761581,img/planet12_left.png,12,Community 2,NA,TRUE,f,f,NA,NA,NA,4,6,"8,11,10,2,6,9,5,3,12,15,1,7,4,13,14"
14463,commdev-image-keyboard-response,558,2488866,learnblock2,504.7000000476837,img/planet9_right.png,9,Community 2,NA,FALSE,f,j,NA,NA,NA,4,6,"8,11,10,2,6,9,5,3,12,15,1,7,4,13,14"
14463,commdev-image-keyboard-response,559,2490119,learnblock2,844.8999999761581,img/planet12_left.png,12,Community 2,NA,TRUE,f,f,NA,NA,NA,4,6,"8,11,10,2,6,9,5,3,12,15,1,7,4,13,14"
14463,commdev-image-keyboard-response,560,2491371,learnblock2,573,img/planet5_right.png,5,Community 2,NA,TRUE,j,j,NA,NA,NA,4,6,"8,11,10,2,6,9,5,3,12,15,1,7,4,13,14"
14463,commdev-image-keyboard-response,561,2492622,learnblock2,563,img/planet3_right.png,3,Community 2,NA,TRUE,j,j,NA,NA,NA,4,6,"8,11,10,2,6,9,5,3,12,15,1,7,4,13,14"
14463,commdev-image-keyboard-response,562,2493875,learnblock2,586.6000000238419,img/planet5_left.png,5,Community 2,NA,FALSE,j,f,NA,NA,NA,4,6,"8,11,10,2,6,9,5,3,12,15,1,7,4,13,14"
14463,commdev-image-keyboard-response,563,2495126,learnblock2,719.3999999761581,img/planet12_right.png,12,Community 2,NA,FALSE,f,j,NA,NA,NA,4,6,"8,11,10,2,6,9,5,3,12,15,1,7,4,13,14"
14463,commdev-image-keyboard-response,564,2496378,learnblock2,305.10000002384186,img/planet5_right.png,5,Community 2,NA,TRUE,j,j,NA,NA,NA,4,6,"8,11,10,2,6,9,5,3,12,15,1,7,4,13,14"
14463,commdev-image-keyboard-response,565,2497630,learnblock2,669.5,img/planet15_left.png,15,Community 2,NA,TRUE,f,f,NA,NA,NA,4,6,"8,11,10,2,6,9,5,3,12,15,1,7,4,13,14"
14463,commdev-image-keyboard-response,566,2498881,learnblock2,696.6000000238419,img/planet9_right.png,9,Community 2,NA,FALSE,f,j,NA,NA,NA,4,6,"8,11,10,2,6,9,5,3,12,15,1,7,4,13,14"
14463,commdev-image-keyboard-response,567,2500133,learnblock2,737.3999999761581,img/planet5_left.png,5,Community 2,NA,TRUE,f,f,NA,NA,NA,4,6,"8,11,10,2,6,9,5,3,12,15,1,7,4,13,14"
14463,commdev-image-keyboard-response,568,2501385,learnblock2,477.6999999284744,img/planet9_left.png,9,Community 2,NA,TRUE,f,f,NA,NA,NA,4,6,"8,11,10,2,6,9,5,3,12,15,1,7,4,13,14"
14463,commdev-image-keyboard-response,569,2502636,learnblock2,253.60000002384186,img/planet2_left.png,2,Community 1,NA,TRUE,f,f,NA,NA,NA,4,6,"8,11,10,2,6,9,5,3,12,15,1,7,4,13,14"
14463,commdev-image-keyboard-response,570,2503888,learnblock2,350.2999999523163,img/planet8_right.png,8,Community 1,NA,FALSE,f,j,NA,NA,NA,4,6,"8,11,10,2,6,9,5,3,12,15,1,7,4,13,14"
14463,commdev-image-keyboard-response,571,2505151,learnblock2,770.7000000476837,img/planet2_left.png,2,Community 1,NA,TRUE,f,f,NA,NA,NA,4,6,"8,11,10,2,6,9,5,3,12,15,1,7,4,13,14"
14463,commdev-image-keyboard-response,572,2506403,learnblock2,735.1000000238419,img/planet8_left.png,8,Community 1,NA,TRUE,f,f,NA,NA,NA,4,6,"8,11,10,2,6,9,5,3,12,15,1,7,4,13,14"
14463,commdev-image-keyboard-response,573,2507655,learnblock2,788.1000000238419,img/planet6_right.png,6,Community 1,NA,TRUE,j,j,NA,NA,NA,4,6,"8,11,10,2,6,9,5,3,12,15,1,7,4,13,14"
14463,commdev-image-keyboard-response,574,2508906,learnblock2,922.8999999761581,img/planet8_left.png,8,Community 1,NA,FALSE,j,f,NA,NA,NA,4,6,"8,11,10,2,6,9,5,3,12,15,1,7,4,13,14"
14463,commdev-image-keyboard-response,575,2510158,learnblock2,517.5999999046326,img/planet6_right.png,6,Community 1,NA,FALSE,f,j,NA,NA,NA,4,6,"8,11,10,2,6,9,5,3,12,15,1,7,4,13,14"
14463,commdev-image-keyboard-response,576,2511411,learnblock2,758.7000000476837,img/planet10_right.png,10,Community 1,NA,FALSE,f,j,NA,NA,NA,4,6,"8,11,10,2,6,9,5,3,12,15,1,7,4,13,14"
14463,commdev-image-keyboard-response,577,2512676,learnblock2,986,img/planet11_left.png,11,Community 1,NA,TRUE,f,f,NA,NA,NA,4,6,"8,11,10,2,6,9,5,3,12,15,1,7,4,13,14"
14463,commdev-image-keyboard-response,578,2513927,learnblock2,595.2000000476837,img/planet10_right.png,10,Community 1,NA,TRUE,j,j,NA,NA,NA,4,6,"8,11,10,2,6,9,5,3,12,15,1,7,4,13,14"
14463,commdev-image-keyboard-response,579,2515179,learnblock2,683.3999999761581,img/planet6_left.png,6,Community 1,NA,FALSE,j,f,NA,NA,NA,4,6,"8,11,10,2,6,9,5,3,12,15,1,7,4,13,14"
14463,commdev-image-keyboard-response,580,2516431,learnblock2,null,img/planet1_right.png,1,Community 3,NA,FALSE,null,j,NA,NA,NA,4,6,"8,11,10,2,6,9,5,3,12,15,1,7,4,13,14"
14463,commdev-image-keyboard-response,581,2517684,learnblock2,893.6000000238419,img/planet6_right.png,6,Community 1,NA,TRUE,j,j,NA,NA,NA,4,6,"8,11,10,2,6,9,5,3,12,15,1,7,4,13,14"
14463,commdev-image-keyboard-response,582,2518936,learnblock2,602.3999999761581,img/planet8_right.png,8,Community 1,NA,TRUE,j,j,NA,NA,NA,4,6,"8,11,10,2,6,9,5,3,12,15,1,7,4,13,14"
14463,commdev-image-keyboard-response,583,2520188,learnblock2,683.8999999761581,img/planet11_right.png,11,Community 1,NA,TRUE,j,j,NA,NA,NA,4,6,"8,11,10,2,6,9,5,3,12,15,1,7,4,13,14"
14463,commdev-image-keyboard-response,584,2521440,learnblock2,509.2999999523163,img/planet10_right.png,10,Community 1,NA,TRUE,j,j,NA,NA,NA,4,6,"8,11,10,2,6,9,5,3,12,15,1,7,4,13,14"
14463,commdev-image-keyboard-response,585,2522692,learnblock2,489.2000000476837,img/planet11_right.png,11,Community 1,NA,TRUE,j,j,NA,NA,NA,4,6,"8,11,10,2,6,9,5,3,12,15,1,7,4,13,14"
