subject_id,trial_type,trial_index,time_elapsed,block,rt,stimulus,planet,community,response,correct,key_press,learning_correct_response,parse,init_locations,final_locations,browser_interactions,num_comp,planet_map
14827,commdev-instructions,7,53195,NA,1559.199999988079,"<p>In this game, you are a scientist on board a space shuttle. </p><p> On each mission, you will visit planets all across the universe.</p><img src=""img/controlroom.jpg"" width=300vw>",NA,NA,NA,NA,NA,NA,NA,NA,NA,2,6,"15,5,10,11,2,4,9,3,6,14,13,12,8,7,1"
14827,commdev-instructions,8,56499,NA,1230.7999999523163,"<p>Here are a few planets you might see:</p><img src=""img/practice1.png"" width=200vw><img src=""img/practice2.png"" width=200vw><img src=""img/practice3.png"" width=200vw>",NA,NA,NA,NA,NA,NA,NA,NA,NA,2,6,"15,5,10,11,2,4,9,3,6,14,13,12,8,7,1"
14827,commdev-instructions,9,64800,NA,904.6000000238419,"<p>Your job as a scientist is to record which direction the winds are moving on each planet.</p><p>There are two types of wind directions:</p><img src=""img/practice1_left.png"" width=200vw><img src=""img/practice1_right.png"" width=200vw>",NA,NA,NA,NA,NA,NA,NA,NA,NA,2,6,"15,5,10,11,2,4,9,3,6,14,13,12,8,7,1"
14827,commdev-instructions,10,76997,NA,7318.5,"<p>If the winds are moving this way, press the letter <strong>F</strong> on the keyboard as fast as you can.</p><img src=""img/leftwind.png"" width=250vw>",NA,NA,NA,NA,NA,NA,NA,NA,NA,2,6,"15,5,10,11,2,4,9,3,6,14,13,12,8,7,1"
14827,commdev-instructions,11,82911,NA,1420.800000011921,"<p>If the winds are moving this way, press the letter <strong>J</strong> on the keyboard as fast as you can.</p><img src=""img/rightwind.png"" width=350vw>",NA,NA,NA,NA,NA,NA,NA,NA,NA,2,6,"15,5,10,11,2,4,9,3,6,14,13,12,8,7,1"
14827,commdev-instructions,12,88519,NA,1183.1000000238419,<p>You will have 1 second to respond. Try to respond before the time runs out!,NA,NA,NA,NA,NA,NA,NA,NA,NA,2,6,"15,5,10,11,2,4,9,3,6,14,13,12,8,7,1"
14827,commdev-instructions,13,94818,NA,870.3999999761581,<p>The planets you will visit will look different from each other.</p><p>You should respond <strong>only</strong> based on wind direction.,NA,NA,NA,NA,NA,NA,NA,NA,NA,2,6,"15,5,10,11,2,4,9,3,6,14,13,12,8,7,1"
14827,commdev-instructions,14,101660,NA,1673.9000000357628,"<p> Ready to start the practice round? </p><p> Remember, press <strong>F</strong> or <strong>J</strong> depending on the wind direction.<br><img src=""img/categorize_planet_example.png""",NA,NA,NA,NA,NA,NA,NA,NA,NA,2,6,"15,5,10,11,2,4,9,3,6,14,13,12,8,7,1"
14827,commdev-instructions,26,149795,NA,776.9000000357628,"<p>Great, now try a short practice mission. </p><p> This time, you will have 1 second to respond and you won't know whether you pressed the right or wrong key for each planet.</p>",NA,NA,NA,NA,NA,NA,NA,NA,NA,2,6,"15,5,10,11,2,4,9,3,6,14,13,12,8,7,1"
14827,commdev-image-keyboard-response,27,151159,practice,619.3999999761581,img/practice1_left.png,NA,Number not found in mappings,NA,TRUE,f,f,NA,NA,NA,2,6,"15,5,10,11,2,4,9,3,6,14,13,12,8,7,1"
14827,commdev-image-keyboard-response,28,152413,practice,133.9000000357628,img/practice2_right.png,NA,Number not found in mappings,NA,FALSE,f,j,NA,NA,NA,2,6,"15,5,10,11,2,4,9,3,6,14,13,12,8,7,1"
14827,commdev-image-keyboard-response,29,153666,practice,457.5,img/practice1_left.png,NA,Number not found in mappings,NA,TRUE,f,f,NA,NA,NA,2,6,"15,5,10,11,2,4,9,3,6,14,13,12,8,7,1"
14827,commdev-image-keyboard-response,30,154918,practice,517.1000000238419,img/practice4_left.png,NA,Number not found in mappings,NA,TRUE,f,f,NA,NA,NA,2,6,"15,5,10,11,2,4,9,3,6,14,13,12,8,7,1"
14827,commdev-image-keyboard-response,31,156170,practice,171.60000002384186,img/practice3_right.png,NA,Number not found in mappings,NA,FALSE,f,j,NA,NA,NA,2,6,"15,5,10,11,2,4,9,3,6,14,13,12,8,7,1"
14827,commdev-image-keyboard-response,32,157423,practice,541.5,img/practice4_right.png,NA,Number not found in mappings,NA,TRUE,j,j,NA,NA,NA,2,6,"15,5,10,11,2,4,9,3,6,14,13,12,8,7,1"
14827,commdev-image-keyboard-response,33,158675,practice,496.4000000357628,img/practice1_left.png,NA,Number not found in mappings,NA,TRUE,f,f,NA,NA,NA,2,6,"15,5,10,11,2,4,9,3,6,14,13,12,8,7,1"
14827,commdev-image-keyboard-response,34,159928,practice,514.7000000476837,img/practice4_left.png,NA,Number not found in mappings,NA,TRUE,f,f,NA,NA,NA,2,6,"15,5,10,11,2,4,9,3,6,14,13,12,8,7,1"
14827,commdev-instructions,35,170115,NA,634.1999999880791,"<p>Great job with the practice round.</p><p>During real missions, you won't know whether you pressed the right or wrong key for each planet.</p><p>But between missions, we will tell you how you did overall.</p>",NA,NA,NA,NA,NA,NA,NA,NA,NA,2,6,"15,5,10,11,2,4,9,3,6,14,13,12,8,7,1"
14827,commdev-instructions,36,179113,NA,754.8999999761581,<p>Try your best! You will be paid a bonus based on how many correct responses you make!</p><p>Responses that are too slow will not count toward your bonus.</p>,NA,NA,NA,NA,NA,NA,NA,NA,NA,2,6,"15,5,10,11,2,4,9,3,6,14,13,12,8,7,1"
14827,commdev-instructions,37,185981,NA,663.0999999642372,"<p>You are almost ready to start the real game.</p><p> First, we are going to ask you some questions about how the game works.</p>",NA,NA,NA,NA,NA,NA,NA,NA,NA,2,6,"15,5,10,11,2,4,9,3,6,14,13,12,8,7,1"
14827,commdev-instructions,46,263607,NA,2647.399999976158,"<p> Nice work! It is now time to start the real game.<p></p>You will go on two missions to record wind directions of different planets.<p></p>Each one will take about 5 minutes. You will get to take a break between missions.<p><p> Remember, press <strong>F</strong> or <strong>J</strong> depending on the wind direction. Good luck!<br><img src=""img/categorize_planet_example.png""",NA,NA,NA,NA,NA,NA,NA,NA,NA,2,6,"15,5,10,11,2,4,9,3,6,14,13,12,8,7,1"
14827,commdev-image-keyboard-response,48,266761,learnblock1,787.7000000476837,img/planet6_right.png,6,Community 2,NA,TRUE,j,j,NA,NA,NA,2,6,"15,5,10,11,2,4,9,3,6,14,13,12,8,7,1"
14827,commdev-image-keyboard-response,49,268014,learnblock1,752.7999999523163,img/planet3_left.png,3,Community 2,NA,TRUE,f,f,NA,NA,NA,2,6,"15,5,10,11,2,4,9,3,6,14,13,12,8,7,1"
14827,commdev-image-keyboard-response,50,269266,learnblock1,613.6000000238419,img/planet6_left.png,6,Community 2,NA,TRUE,f,f,NA,NA,NA,2,6,"15,5,10,11,2,4,9,3,6,14,13,12,8,7,1"
14827,commdev-image-keyboard-response,51,270520,learnblock1,509.0999999642372,img/planet4_right.png,4,Community 2,NA,TRUE,j,j,NA,NA,NA,2,6,"15,5,10,11,2,4,9,3,6,14,13,12,8,7,1"
14827,commdev-image-keyboard-response,52,271773,learnblock1,629.1000000238419,img/planet14_left.png,14,Community 2,NA,TRUE,f,f,NA,NA,NA,2,6,"15,5,10,11,2,4,9,3,6,14,13,12,8,7,1"
14827,commdev-image-keyboard-response,53,273026,learnblock1,620.0999999642372,img/planet6_left.png,6,Community 2,NA,TRUE,f,f,NA,NA,NA,2,6,"15,5,10,11,2,4,9,3,6,14,13,12,8,7,1"
14827,commdev-image-keyboard-response,54,274278,learnblock1,524.3000000119209,img/planet9_left.png,9,Community 2,NA,TRUE,f,f,NA,NA,NA,2,6,"15,5,10,11,2,4,9,3,6,14,13,12,8,7,1"
14827,commdev-image-keyboard-response,55,275530,learnblock1,577.8999999761581,img/planet6_left.png,6,Community 2,NA,TRUE,f,f,NA,NA,NA,2,6,"15,5,10,11,2,4,9,3,6,14,13,12,8,7,1"
14827,commdev-image-keyboard-response,56,276782,learnblock1,548.8000000119209,img/planet3_right.png,3,Community 2,NA,TRUE,j,j,NA,NA,NA,2,6,"15,5,10,11,2,4,9,3,6,14,13,12,8,7,1"
14827,commdev-image-keyboard-response,57,278036,learnblock1,448.80000001192093,img/planet6_right.png,6,Community 2,NA,TRUE,j,j,NA,NA,NA,2,6,"15,5,10,11,2,4,9,3,6,14,13,12,8,7,1"
14827,commdev-image-keyboard-response,58,279289,learnblock1,607.6999999880791,img/planet14_right.png,14,Community 2,NA,TRUE,j,j,NA,NA,NA,2,6,"15,5,10,11,2,4,9,3,6,14,13,12,8,7,1"
14827,commdev-image-keyboard-response,59,280542,learnblock1,626.3000000119209,img/planet3_right.png,3,Community 2,NA,TRUE,j,j,NA,NA,NA,2,6,"15,5,10,11,2,4,9,3,6,14,13,12,8,7,1"
14827,commdev-image-keyboard-response,60,281793,learnblock1,519.8999999761581,img/planet9_left.png,9,Community 2,NA,TRUE,f,f,NA,NA,NA,2,6,"15,5,10,11,2,4,9,3,6,14,13,12,8,7,1"
14827,commdev-image-keyboard-response,61,283045,learnblock1,575.8999999761581,img/planet6_right.png,6,Community 2,NA,TRUE,j,j,NA,NA,NA,2,6,"15,5,10,11,2,4,9,3,6,14,13,12,8,7,1"
14827,commdev-image-keyboard-response,62,284296,learnblock1,595.8999999761581,img/planet9_right.png,9,Community 2,NA,TRUE,j,j,NA,NA,NA,2,6,"15,5,10,11,2,4,9,3,6,14,13,12,8,7,1"
14827,commdev-image-keyboard-response,63,285548,learnblock1,614.3999999761581,img/planet4_right.png,4,Community 2,NA,TRUE,j,j,NA,NA,NA,2,6,"15,5,10,11,2,4,9,3,6,14,13,12,8,7,1"
14827,commdev-image-keyboard-response,64,286799,learnblock1,560.1000000238419,img/planet14_left.png,14,Community 2,NA,TRUE,f,f,NA,NA,NA,2,6,"15,5,10,11,2,4,9,3,6,14,13,12,8,7,1"
14827,commdev-image-keyboard-response,65,288051,learnblock1,498.30000001192093,img/planet9_right.png,9,Community 2,NA,TRUE,j,j,NA,NA,NA,2,6,"15,5,10,11,2,4,9,3,6,14,13,12,8,7,1"
14827,commdev-image-keyboard-response,66,289303,learnblock1,581.5999999642372,img/planet6_right.png,6,Community 2,NA,TRUE,j,j,NA,NA,NA,2,6,"15,5,10,11,2,4,9,3,6,14,13,12,8,7,1"
14827,commdev-image-keyboard-response,67,290554,learnblock1,478.39999997615814,img/planet4_right.png,4,Community 2,NA,TRUE,j,j,NA,NA,NA,2,6,"15,5,10,11,2,4,9,3,6,14,13,12,8,7,1"
14827,commdev-image-keyboard-response,68,291806,learnblock1,461.5,img/planet9_left.png,9,Community 2,NA,TRUE,f,f,NA,NA,NA,2,6,"15,5,10,11,2,4,9,3,6,14,13,12,8,7,1"
14827,commdev-image-keyboard-response,69,293057,learnblock1,634.0999999642372,img/planet3_left.png,3,Community 2,NA,TRUE,f,f,NA,NA,NA,2,6,"15,5,10,11,2,4,9,3,6,14,13,12,8,7,1"
14827,commdev-image-keyboard-response,70,294309,learnblock1,495.5,img/planet6_right.png,6,Community 2,NA,TRUE,j,j,NA,NA,NA,2,6,"15,5,10,11,2,4,9,3,6,14,13,12,8,7,1"
14827,commdev-image-keyboard-response,71,295561,learnblock1,612,img/planet14_right.png,14,Community 2,NA,TRUE,j,j,NA,NA,NA,2,6,"15,5,10,11,2,4,9,3,6,14,13,12,8,7,1"
14827,commdev-image-keyboard-response,72,296813,learnblock1,538.8000000119209,img/planet4_right.png,4,Community 2,NA,TRUE,j,j,NA,NA,NA,2,6,"15,5,10,11,2,4,9,3,6,14,13,12,8,7,1"
14827,commdev-image-keyboard-response,73,298065,learnblock1,566.7000000476837,img/planet6_right.png,6,Community 2,NA,TRUE,j,j,NA,NA,NA,2,6,"15,5,10,11,2,4,9,3,6,14,13,12,8,7,1"
14827,commdev-image-keyboard-response,74,299317,learnblock1,600.5,img/planet14_right.png,14,Community 2,NA,TRUE,j,j,NA,NA,NA,2,6,"15,5,10,11,2,4,9,3,6,14,13,12,8,7,1"
14827,commdev-image-keyboard-response,75,300569,learnblock1,533.1999999880791,img/planet4_right.png,4,Community 2,NA,TRUE,j,j,NA,NA,NA,2,6,"15,5,10,11,2,4,9,3,6,14,13,12,8,7,1"
14827,commdev-image-keyboard-response,76,301820,learnblock1,551,img/planet6_left.png,6,Community 2,NA,TRUE,f,f,NA,NA,NA,2,6,"15,5,10,11,2,4,9,3,6,14,13,12,8,7,1"
14827,commdev-image-keyboard-response,77,303072,learnblock1,537.5,img/planet4_right.png,4,Community 2,NA,TRUE,j,j,NA,NA,NA,2,6,"15,5,10,11,2,4,9,3,6,14,13,12,8,7,1"
14827,commdev-image-keyboard-response,78,304323,learnblock1,568,img/planet11_left.png,11,Community 1,NA,TRUE,f,f,NA,NA,NA,2,6,"15,5,10,11,2,4,9,3,6,14,13,12,8,7,1"
14827,commdev-image-keyboard-response,79,305574,learnblock1,642.6999999880791,img/planet5_left.png,5,Community 1,NA,TRUE,f,f,NA,NA,NA,2,6,"15,5,10,11,2,4,9,3,6,14,13,12,8,7,1"
14827,commdev-image-keyboard-response,80,306825,learnblock1,669.3000000119209,img/planet2_left.png,2,Community 1,NA,TRUE,f,f,NA,NA,NA,2,6,"15,5,10,11,2,4,9,3,6,14,13,12,8,7,1"
14827,commdev-image-keyboard-response,81,308077,learnblock1,698.5999999642372,img/planet5_right.png,5,Community 1,NA,TRUE,j,j,NA,NA,NA,2,6,"15,5,10,11,2,4,9,3,6,14,13,12,8,7,1"
14827,commdev-image-keyboard-response,82,309329,learnblock1,614,img/planet2_right.png,2,Community 1,NA,TRUE,j,j,NA,NA,NA,2,6,"15,5,10,11,2,4,9,3,6,14,13,12,8,7,1"
14827,commdev-image-keyboard-response,83,310580,learnblock1,634.8000000119209,img/planet15_left.png,15,Community 1,NA,TRUE,f,f,NA,NA,NA,2,6,"15,5,10,11,2,4,9,3,6,14,13,12,8,7,1"
14827,commdev-image-keyboard-response,84,311831,learnblock1,595.7999999523163,img/planet10_right.png,10,Community 1,NA,TRUE,j,j,NA,NA,NA,2,6,"15,5,10,11,2,4,9,3,6,14,13,12,8,7,1"
14827,commdev-image-keyboard-response,85,313082,learnblock1,573.7999999523163,img/planet15_left.png,15,Community 1,NA,TRUE,f,f,NA,NA,NA,2,6,"15,5,10,11,2,4,9,3,6,14,13,12,8,7,1"
14827,commdev-image-keyboard-response,86,314334,learnblock1,518.6999999880791,img/planet2_left.png,2,Community 1,NA,TRUE,f,f,NA,NA,NA,2,6,"15,5,10,11,2,4,9,3,6,14,13,12,8,7,1"
14827,commdev-image-keyboard-response,87,315586,learnblock1,543.1999999880791,img/planet13_left.png,13,Community 3,NA,TRUE,f,f,NA,NA,NA,2,6,"15,5,10,11,2,4,9,3,6,14,13,12,8,7,1"
14827,commdev-image-keyboard-response,88,316837,learnblock1,517.3999999761581,img/planet1_right.png,1,Community 3,NA,TRUE,j,j,NA,NA,NA,2,6,"15,5,10,11,2,4,9,3,6,14,13,12,8,7,1"
14827,commdev-image-keyboard-response,89,318090,learnblock1,592.5,img/planet13_right.png,13,Community 3,NA,TRUE,j,j,NA,NA,NA,2,6,"15,5,10,11,2,4,9,3,6,14,13,12,8,7,1"
14827,commdev-image-keyboard-response,90,319341,learnblock1,493.5999999642372,img/planet1_left.png,1,Community 3,NA,TRUE,f,f,NA,NA,NA,2,6,"15,5,10,11,2,4,9,3,6,14,13,12,8,7,1"
14827,commdev-image-keyboard-response,91,320593,learnblock1,509.30000001192093,img/planet7_left.png,7,Community 3,NA,TRUE,f,f,NA,NA,NA,2,6,"15,5,10,11,2,4,9,3,6,14,13,12,8,7,1"
14827,commdev-image-keyboard-response,92,321844,learnblock1,569.8000000119209,img/planet1_left.png,1,Community 3,NA,TRUE,f,f,NA,NA,NA,2,6,"15,5,10,11,2,4,9,3,6,14,13,12,8,7,1"
14827,commdev-image-keyboard-response,93,323096,learnblock1,562.3999999761581,img/planet7_right.png,7,Community 3,NA,TRUE,j,j,NA,NA,NA,2,6,"15,5,10,11,2,4,9,3,6,14,13,12,8,7,1"
14827,commdev-image-keyboard-response,94,324347,learnblock1,524.3000000119209,img/planet8_left.png,8,Community 3,NA,TRUE,f,f,NA,NA,NA,2,6,"15,5,10,11,2,4,9,3,6,14,13,12,8,7,1"
14827,commdev-image-keyboard-response,95,325599,learnblock1,552.9000000357628,img/planet7_left.png,7,Community 3,NA,TRUE,f,f,NA,NA,NA,2,6,"15,5,10,11,2,4,9,3,6,14,13,12,8,7,1"
14827,commdev-image-keyboard-response,96,326851,learnblock1,517.4000000357628,img/planet1_right.png,1,Community 3,NA,TRUE,j,j,NA,NA,NA,2,6,"15,5,10,11,2,4,9,3,6,14,13,12,8,7,1"
14827,commdev-image-keyboard-response,97,328104,learnblock1,592.5,img/planet7_right.png,7,Community 3,NA,TRUE,j,j,NA,NA,NA,2,6,"15,5,10,11,2,4,9,3,6,14,13,12,8,7,1"
14827,commdev-image-keyboard-response,98,329356,learnblock1,547.4000000357628,img/planet1_right.png,1,Community 3,NA,TRUE,j,j,NA,NA,NA,2,6,"15,5,10,11,2,4,9,3,6,14,13,12,8,7,1"
14827,commdev-image-keyboard-response,99,330608,learnblock1,593.1000000238419,img/planet13_right.png,13,Community 3,NA,TRUE,j,j,NA,NA,NA,2,6,"15,5,10,11,2,4,9,3,6,14,13,12,8,7,1"
14827,commdev-image-keyboard-response,100,331859,learnblock1,547.3000000119209,img/planet7_left.png,7,Community 3,NA,TRUE,f,f,NA,NA,NA,2,6,"15,5,10,11,2,4,9,3,6,14,13,12,8,7,1"
14827,commdev-image-keyboard-response,101,333112,learnblock1,550.3000000119209,img/planet8_left.png,8,Community 3,NA,FALSE,j,f,NA,NA,NA,2,6,"15,5,10,11,2,4,9,3,6,14,13,12,8,7,1"
14827,commdev-image-keyboard-response,102,334363,learnblock1,614.6999999880791,img/planet7_left.png,7,Community 3,NA,TRUE,f,f,NA,NA,NA,2,6,"15,5,10,11,2,4,9,3,6,14,13,12,8,7,1"
14827,commdev-image-keyboard-response,103,335614,learnblock1,611.5999999642372,img/planet8_right.png,8,Community 3,NA,TRUE,j,j,NA,NA,NA,2,6,"15,5,10,11,2,4,9,3,6,14,13,12,8,7,1"
14827,commdev-image-keyboard-response,104,336866,learnblock1,594.1999999880791,img/planet1_right.png,1,Community 3,NA,TRUE,j,j,NA,NA,NA,2,6,"15,5,10,11,2,4,9,3,6,14,13,12,8,7,1"
14827,commdev-image-keyboard-response,105,338118,learnblock1,599.3000000119209,img/planet12_left.png,12,Community 3,NA,TRUE,f,f,NA,NA,NA,2,6,"15,5,10,11,2,4,9,3,6,14,13,12,8,7,1"
14827,commdev-image-keyboard-response,106,339369,learnblock1,554.3999999761581,img/planet7_left.png,7,Community 3,NA,TRUE,f,f,NA,NA,NA,2,6,"15,5,10,11,2,4,9,3,6,14,13,12,8,7,1"
14827,commdev-image-keyboard-response,107,340620,learnblock1,590.3000000119209,img/planet1_left.png,1,Community 3,NA,TRUE,f,f,NA,NA,NA,2,6,"15,5,10,11,2,4,9,3,6,14,13,12,8,7,1"
14827,commdev-image-keyboard-response,108,341871,learnblock1,542.3999999761581,img/planet13_right.png,13,Community 3,NA,TRUE,j,j,NA,NA,NA,2,6,"15,5,10,11,2,4,9,3,6,14,13,12,8,7,1"
14827,commdev-image-keyboard-response,109,343124,learnblock1,540.7999999523163,img/planet7_right.png,7,Community 3,NA,TRUE,j,j,NA,NA,NA,2,6,"15,5,10,11,2,4,9,3,6,14,13,12,8,7,1"
14827,commdev-image-keyboard-response,110,344377,learnblock1,556.2999999523163,img/planet8_left.png,8,Community 3,NA,TRUE,f,f,NA,NA,NA,2,6,"15,5,10,11,2,4,9,3,6,14,13,12,8,7,1"
14827,commdev-image-keyboard-response,111,345629,learnblock1,517.2999999523163,img/planet1_right.png,1,Community 3,NA,TRUE,j,j,NA,NA,NA,2,6,"15,5,10,11,2,4,9,3,6,14,13,12,8,7,1"
14827,commdev-image-keyboard-response,112,346883,learnblock1,520.8000000119209,img/planet12_right.png,12,Community 3,NA,TRUE,j,j,NA,NA,NA,2,6,"15,5,10,11,2,4,9,3,6,14,13,12,8,7,1"
14827,commdev-image-keyboard-response,113,348136,learnblock1,528.7999999523163,img/planet1_left.png,1,Community 3,NA,TRUE,f,f,NA,NA,NA,2,6,"15,5,10,11,2,4,9,3,6,14,13,12,8,7,1"
14827,commdev-image-keyboard-response,114,349389,learnblock1,567.6999999880791,img/planet7_left.png,7,Community 3,NA,TRUE,f,f,NA,NA,NA,2,6,"15,5,10,11,2,4,9,3,6,14,13,12,8,7,1"
14827,commdev-image-keyboard-response,115,350642,learnblock1,579.0999999642372,img/planet1_left.png,1,Community 3,NA,TRUE,f,f,NA,NA,NA,2,6,"15,5,10,11,2,4,9,3,6,14,13,12,8,7,1"
14827,commdev-image-keyboard-response,116,351895,learnblock1,538.2999999523163,img/planet13_left.png,13,Community 3,NA,TRUE,f,f,NA,NA,NA,2,6,"15,5,10,11,2,4,9,3,6,14,13,12,8,7,1"
14827,commdev-image-keyboard-response,117,353148,learnblock1,499.7999999523163,img/planet1_right.png,1,Community 3,NA,TRUE,j,j,NA,NA,NA,2,6,"15,5,10,11,2,4,9,3,6,14,13,12,8,7,1"
14827,commdev-image-keyboard-response,118,354400,learnblock1,549.1000000238419,img/planet13_left.png,13,Community 3,NA,TRUE,f,f,NA,NA,NA,2,6,"15,5,10,11,2,4,9,3,6,14,13,12,8,7,1"
14827,commdev-image-keyboard-response,119,355652,learnblock1,522,img/planet7_left.png,7,Community 3,NA,TRUE,f,f,NA,NA,NA,2,6,"15,5,10,11,2,4,9,3,6,14,13,12,8,7,1"
14827,commdev-image-keyboard-response,120,356904,learnblock1,547.4000000357628,img/planet8_right.png,8,Community 3,NA,TRUE,j,j,NA,NA,NA,2,6,"15,5,10,11,2,4,9,3,6,14,13,12,8,7,1"
14827,commdev-image-keyboard-response,121,358155,learnblock1,525.5,img/planet12_right.png,12,Community 3,NA,TRUE,j,j,NA,NA,NA,2,6,"15,5,10,11,2,4,9,3,6,14,13,12,8,7,1"
14827,commdev-image-keyboard-response,122,359408,learnblock1,545.8000000119209,img/planet8_left.png,8,Community 3,NA,TRUE,f,f,NA,NA,NA,2,6,"15,5,10,11,2,4,9,3,6,14,13,12,8,7,1"
14827,commdev-image-keyboard-response,123,360660,learnblock1,579.8000000119209,img/planet12_left.png,12,Community 3,NA,TRUE,f,f,NA,NA,NA,2,6,"15,5,10,11,2,4,9,3,6,14,13,12,8,7,1"
14827,commdev-image-keyboard-response,124,361913,learnblock1,654.5,img/planet7_left.png,7,Community 3,NA,TRUE,f,f,NA,NA,NA,2,6,"15,5,10,11,2,4,9,3,6,14,13,12,8,7,1"
14827,commdev-image-keyboard-response,125,363165,learnblock1,630.8999999761581,img/planet1_left.png,1,Community 3,NA,TRUE,f,f,NA,NA,NA,2,6,"15,5,10,11,2,4,9,3,6,14,13,12,8,7,1"
14827,commdev-image-keyboard-response,126,364416,learnblock1,662.8000000119209,img/planet13_left.png,13,Community 3,NA,TRUE,f,f,NA,NA,NA,2,6,"15,5,10,11,2,4,9,3,6,14,13,12,8,7,1"
14827,commdev-image-keyboard-response,127,365669,learnblock1,651.2000000476837,img/planet2_right.png,2,Community 1,NA,TRUE,j,j,NA,NA,NA,2,6,"15,5,10,11,2,4,9,3,6,14,13,12,8,7,1"
14827,commdev-image-keyboard-response,128,366922,learnblock1,736.6000000238419,img/planet15_left.png,15,Community 1,NA,TRUE,f,f,NA,NA,NA,2,6,"15,5,10,11,2,4,9,3,6,14,13,12,8,7,1"
14827,commdev-image-keyboard-response,129,368174,learnblock1,666.1000000238419,img/planet11_left.png,11,Community 1,NA,TRUE,f,f,NA,NA,NA,2,6,"15,5,10,11,2,4,9,3,6,14,13,12,8,7,1"
14827,commdev-image-keyboard-response,130,369426,learnblock1,588.8000000119209,img/planet15_left.png,15,Community 1,NA,TRUE,f,f,NA,NA,NA,2,6,"15,5,10,11,2,4,9,3,6,14,13,12,8,7,1"
14827,commdev-image-keyboard-response,131,370678,learnblock1,608.0999999642372,img/planet2_right.png,2,Community 1,NA,TRUE,j,j,NA,NA,NA,2,6,"15,5,10,11,2,4,9,3,6,14,13,12,8,7,1"
14827,commdev-image-keyboard-response,132,371931,learnblock1,537.8000000119209,img/planet10_right.png,10,Community 1,NA,TRUE,j,j,NA,NA,NA,2,6,"15,5,10,11,2,4,9,3,6,14,13,12,8,7,1"
14827,commdev-image-keyboard-response,133,373182,learnblock1,575.6000000238419,img/planet11_left.png,11,Community 1,NA,TRUE,f,f,NA,NA,NA,2,6,"15,5,10,11,2,4,9,3,6,14,13,12,8,7,1"
14827,commdev-image-keyboard-response,134,374437,learnblock1,608.1000000238419,img/planet5_left.png,5,Community 1,NA,TRUE,f,f,NA,NA,NA,2,6,"15,5,10,11,2,4,9,3,6,14,13,12,8,7,1"
14827,commdev-image-keyboard-response,135,375691,learnblock1,584.4000000357628,img/planet11_right.png,11,Community 1,NA,TRUE,j,j,NA,NA,NA,2,6,"15,5,10,11,2,4,9,3,6,14,13,12,8,7,1"
14827,commdev-image-keyboard-response,136,376944,learnblock1,501.69999998807907,img/planet10_right.png,10,Community 1,NA,TRUE,j,j,NA,NA,NA,2,6,"15,5,10,11,2,4,9,3,6,14,13,12,8,7,1"
14827,commdev-image-keyboard-response,137,378197,learnblock1,518.8999999761581,img/planet5_left.png,5,Community 1,NA,TRUE,f,f,NA,NA,NA,2,6,"15,5,10,11,2,4,9,3,6,14,13,12,8,7,1"
14827,commdev-image-keyboard-response,138,379451,learnblock1,503.5,img/planet2_right.png,2,Community 1,NA,TRUE,j,j,NA,NA,NA,2,6,"15,5,10,11,2,4,9,3,6,14,13,12,8,7,1"
14827,commdev-image-keyboard-response,139,380703,learnblock1,507,img/planet5_right.png,5,Community 1,NA,TRUE,j,j,NA,NA,NA,2,6,"15,5,10,11,2,4,9,3,6,14,13,12,8,7,1"
14827,commdev-image-keyboard-response,140,381955,learnblock1,512.5,img/planet11_right.png,11,Community 1,NA,FALSE,f,j,NA,NA,NA,2,6,"15,5,10,11,2,4,9,3,6,14,13,12,8,7,1"
14827,commdev-image-keyboard-response,141,383209,learnblock1,533.3000000119209,img/planet15_right.png,15,Community 1,NA,TRUE,j,j,NA,NA,NA,2,6,"15,5,10,11,2,4,9,3,6,14,13,12,8,7,1"
14827,commdev-image-keyboard-response,142,384461,learnblock1,566.8999999761581,img/planet11_right.png,11,Community 1,NA,TRUE,j,j,NA,NA,NA,2,6,"15,5,10,11,2,4,9,3,6,14,13,12,8,7,1"
14827,commdev-image-keyboard-response,143,385714,learnblock1,603.6000000238419,img/planet5_right.png,5,Community 1,NA,TRUE,j,j,NA,NA,NA,2,6,"15,5,10,11,2,4,9,3,6,14,13,12,8,7,1"
14827,commdev-image-keyboard-response,144,386967,learnblock1,572.5,img/planet11_left.png,11,Community 1,NA,TRUE,f,f,NA,NA,NA,2,6,"15,5,10,11,2,4,9,3,6,14,13,12,8,7,1"
14827,commdev-image-keyboard-response,145,388220,learnblock1,609.6000000238419,img/planet5_left.png,5,Community 1,NA,TRUE,f,f,NA,NA,NA,2,6,"15,5,10,11,2,4,9,3,6,14,13,12,8,7,1"
14827,commdev-image-keyboard-response,146,389473,learnblock1,584.1000000238419,img/planet10_right.png,10,Community 1,NA,TRUE,j,j,NA,NA,NA,2,6,"15,5,10,11,2,4,9,3,6,14,13,12,8,7,1"
14827,commdev-image-keyboard-response,147,390726,learnblock1,558.5,img/planet11_right.png,11,Community 1,NA,TRUE,j,j,NA,NA,NA,2,6,"15,5,10,11,2,4,9,3,6,14,13,12,8,7,1"
14827,commdev-image-keyboard-response,148,391977,learnblock1,530.9000000357628,img/planet15_right.png,15,Community 1,NA,TRUE,j,j,NA,NA,NA,2,6,"15,5,10,11,2,4,9,3,6,14,13,12,8,7,1"
14827,commdev-image-keyboard-response,149,393230,learnblock1,523.8000000119209,img/planet2_right.png,2,Community 1,NA,TRUE,j,j,NA,NA,NA,2,6,"15,5,10,11,2,4,9,3,6,14,13,12,8,7,1"
14827,commdev-image-keyboard-response,150,394482,learnblock1,597.6000000238419,img/planet10_right.png,10,Community 1,NA,TRUE,j,j,NA,NA,NA,2,6,"15,5,10,11,2,4,9,3,6,14,13,12,8,7,1"
14827,commdev-image-keyboard-response,151,395734,learnblock1,597,img/planet2_left.png,2,Community 1,NA,TRUE,f,f,NA,NA,NA,2,6,"15,5,10,11,2,4,9,3,6,14,13,12,8,7,1"
14827,commdev-image-keyboard-response,152,396987,learnblock1,646.0999999642372,img/planet5_left.png,5,Community 1,NA,TRUE,f,f,NA,NA,NA,2,6,"15,5,10,11,2,4,9,3,6,14,13,12,8,7,1"
14827,commdev-image-keyboard-response,153,398238,learnblock1,547.8000000119209,img/planet2_left.png,2,Community 1,NA,TRUE,f,f,NA,NA,NA,2,6,"15,5,10,11,2,4,9,3,6,14,13,12,8,7,1"
14827,commdev-image-keyboard-response,154,399491,learnblock1,446.80000001192093,img/planet5_right.png,5,Community 1,NA,TRUE,j,j,NA,NA,NA,2,6,"15,5,10,11,2,4,9,3,6,14,13,12,8,7,1"
14827,commdev-image-keyboard-response,155,400743,learnblock1,455.10000002384186,img/planet15_left.png,15,Community 1,NA,TRUE,f,f,NA,NA,NA,2,6,"15,5,10,11,2,4,9,3,6,14,13,12,8,7,1"
14827,commdev-image-keyboard-response,156,401996,learnblock1,494.5,img/planet10_left.png,10,Community 1,NA,TRUE,f,f,NA,NA,NA,2,6,"15,5,10,11,2,4,9,3,6,14,13,12,8,7,1"
14827,commdev-image-keyboard-response,157,403248,learnblock1,534.0999999642372,img/planet2_right.png,2,Community 1,NA,TRUE,j,j,NA,NA,NA,2,6,"15,5,10,11,2,4,9,3,6,14,13,12,8,7,1"
14827,commdev-image-keyboard-response,158,404501,learnblock1,517.6999999880791,img/planet10_left.png,10,Community 1,NA,TRUE,f,f,NA,NA,NA,2,6,"15,5,10,11,2,4,9,3,6,14,13,12,8,7,1"
14827,commdev-image-keyboard-response,159,405752,learnblock1,550.9000000357628,img/planet11_left.png,11,Community 1,NA,TRUE,f,f,NA,NA,NA,2,6,"15,5,10,11,2,4,9,3,6,14,13,12,8,7,1"
14827,commdev-image-keyboard-response,160,407005,learnblock1,504.39999997615814,img/planet5_left.png,5,Community 1,NA,TRUE,f,f,NA,NA,NA,2,6,"15,5,10,11,2,4,9,3,6,14,13,12,8,7,1"
14827,commdev-image-keyboard-response,161,408260,learnblock1,496,img/planet10_left.png,10,Community 1,NA,TRUE,f,f,NA,NA,NA,2,6,"15,5,10,11,2,4,9,3,6,14,13,12,8,7,1"
14827,commdev-image-keyboard-response,162,409513,learnblock1,505.69999998807907,img/planet15_right.png,15,Community 1,NA,TRUE,j,j,NA,NA,NA,2,6,"15,5,10,11,2,4,9,3,6,14,13,12,8,7,1"
14827,commdev-image-keyboard-response,163,410765,learnblock1,443.5,img/planet2_right.png,2,Community 1,NA,TRUE,j,j,NA,NA,NA,2,6,"15,5,10,11,2,4,9,3,6,14,13,12,8,7,1"
14827,commdev-image-keyboard-response,164,412018,learnblock1,498.30000001192093,img/planet15_left.png,15,Community 1,NA,TRUE,f,f,NA,NA,NA,2,6,"15,5,10,11,2,4,9,3,6,14,13,12,8,7,1"
14827,commdev-image-keyboard-response,165,413270,learnblock1,428.5,img/planet2_right.png,2,Community 1,NA,TRUE,j,j,NA,NA,NA,2,6,"15,5,10,11,2,4,9,3,6,14,13,12,8,7,1"
14827,commdev-image-keyboard-response,166,414523,learnblock1,584.5,img/planet5_right.png,5,Community 1,NA,TRUE,j,j,NA,NA,NA,2,6,"15,5,10,11,2,4,9,3,6,14,13,12,8,7,1"
14827,commdev-image-keyboard-response,167,415775,learnblock1,624,img/planet11_left.png,11,Community 1,NA,TRUE,f,f,NA,NA,NA,2,6,"15,5,10,11,2,4,9,3,6,14,13,12,8,7,1"
14827,commdev-image-keyboard-response,168,417028,learnblock1,684.3000000119209,img/planet4_left.png,4,Community 2,NA,TRUE,f,f,NA,NA,NA,2,6,"15,5,10,11,2,4,9,3,6,14,13,12,8,7,1"
14827,commdev-image-keyboard-response,169,418282,learnblock1,573.3000000119209,img/planet11_right.png,11,Community 1,NA,TRUE,j,j,NA,NA,NA,2,6,"15,5,10,11,2,4,9,3,6,14,13,12,8,7,1"
14827,commdev-image-keyboard-response,170,419534,learnblock1,504.7000000476837,img/planet4_right.png,4,Community 2,NA,TRUE,j,j,NA,NA,NA,2,6,"15,5,10,11,2,4,9,3,6,14,13,12,8,7,1"
14827,commdev-image-keyboard-response,171,420786,learnblock1,534.3000000119209,img/planet6_left.png,6,Community 2,NA,TRUE,f,f,NA,NA,NA,2,6,"15,5,10,11,2,4,9,3,6,14,13,12,8,7,1"
14827,commdev-image-keyboard-response,172,422039,learnblock1,541.5,img/planet14_right.png,14,Community 2,NA,TRUE,j,j,NA,NA,NA,2,6,"15,5,10,11,2,4,9,3,6,14,13,12,8,7,1"
14827,commdev-image-keyboard-response,173,423292,learnblock1,560.8000000119209,img/planet3_left.png,3,Community 2,NA,TRUE,f,f,NA,NA,NA,2,6,"15,5,10,11,2,4,9,3,6,14,13,12,8,7,1"
14827,commdev-image-keyboard-response,174,424545,learnblock1,517.5,img/planet14_left.png,14,Community 2,NA,TRUE,f,f,NA,NA,NA,2,6,"15,5,10,11,2,4,9,3,6,14,13,12,8,7,1"
14827,commdev-image-keyboard-response,175,425797,learnblock1,586.7999999523163,img/planet6_left.png,6,Community 2,NA,TRUE,f,f,NA,NA,NA,2,6,"15,5,10,11,2,4,9,3,6,14,13,12,8,7,1"
14827,commdev-image-keyboard-response,176,427049,learnblock1,543.2999999523163,img/planet4_left.png,4,Community 2,NA,TRUE,f,f,NA,NA,NA,2,6,"15,5,10,11,2,4,9,3,6,14,13,12,8,7,1"
14827,commdev-image-keyboard-response,177,428302,learnblock1,563.1000000238419,img/planet6_right.png,6,Community 2,NA,TRUE,j,j,NA,NA,NA,2,6,"15,5,10,11,2,4,9,3,6,14,13,12,8,7,1"
14827,commdev-image-keyboard-response,178,429554,learnblock1,662.5,img/planet3_right.png,3,Community 2,NA,TRUE,j,j,NA,NA,NA,2,6,"15,5,10,11,2,4,9,3,6,14,13,12,8,7,1"
14827,commdev-image-keyboard-response,179,430805,learnblock1,550,img/planet6_left.png,6,Community 2,NA,TRUE,f,f,NA,NA,NA,2,6,"15,5,10,11,2,4,9,3,6,14,13,12,8,7,1"
14827,commdev-image-keyboard-response,180,432058,learnblock1,489.0999999642372,img/planet4_left.png,4,Community 2,NA,TRUE,f,f,NA,NA,NA,2,6,"15,5,10,11,2,4,9,3,6,14,13,12,8,7,1"
14827,commdev-image-keyboard-response,181,433311,learnblock1,473.7999999523163,img/planet14_right.png,14,Community 2,NA,TRUE,j,j,NA,NA,NA,2,6,"15,5,10,11,2,4,9,3,6,14,13,12,8,7,1"
14827,commdev-image-keyboard-response,182,434563,learnblock1,485.19999998807907,img/planet3_left.png,3,Community 2,NA,TRUE,f,f,NA,NA,NA,2,6,"15,5,10,11,2,4,9,3,6,14,13,12,8,7,1"
14827,commdev-image-keyboard-response,183,435816,learnblock1,494.89999997615814,img/planet14_left.png,14,Community 2,NA,FALSE,j,f,NA,NA,NA,2,6,"15,5,10,11,2,4,9,3,6,14,13,12,8,7,1"
14827,commdev-image-keyboard-response,184,437069,learnblock1,488.2999999523163,img/planet6_right.png,6,Community 2,NA,TRUE,j,j,NA,NA,NA,2,6,"15,5,10,11,2,4,9,3,6,14,13,12,8,7,1"
14827,commdev-image-keyboard-response,185,438322,learnblock1,592.0999999642372,img/planet3_left.png,3,Community 2,NA,TRUE,f,f,NA,NA,NA,2,6,"15,5,10,11,2,4,9,3,6,14,13,12,8,7,1"
14827,commdev-image-keyboard-response,186,439575,learnblock1,646.1000000238419,img/planet6_left.png,6,Community 2,NA,TRUE,f,f,NA,NA,NA,2,6,"15,5,10,11,2,4,9,3,6,14,13,12,8,7,1"
14827,commdev-image-keyboard-response,187,440827,learnblock1,516.8000000119209,img/planet4_right.png,4,Community 2,NA,TRUE,j,j,NA,NA,NA,2,6,"15,5,10,11,2,4,9,3,6,14,13,12,8,7,1"
14827,commdev-image-keyboard-response,188,442080,learnblock1,533.8999999761581,img/planet14_left.png,14,Community 2,NA,TRUE,f,f,NA,NA,NA,2,6,"15,5,10,11,2,4,9,3,6,14,13,12,8,7,1"
14827,commdev-image-keyboard-response,189,443332,learnblock1,490.4000000357628,img/planet6_right.png,6,Community 2,NA,TRUE,j,j,NA,NA,NA,2,6,"15,5,10,11,2,4,9,3,6,14,13,12,8,7,1"
14827,commdev-image-keyboard-response,190,444585,learnblock1,500.69999998807907,img/planet9_right.png,9,Community 2,NA,TRUE,j,j,NA,NA,NA,2,6,"15,5,10,11,2,4,9,3,6,14,13,12,8,7,1"
14827,commdev-image-keyboard-response,191,445837,learnblock1,640.6999999880791,img/planet14_left.png,14,Community 2,NA,TRUE,f,f,NA,NA,NA,2,6,"15,5,10,11,2,4,9,3,6,14,13,12,8,7,1"
14827,commdev-image-keyboard-response,192,447089,learnblock1,569.1999999880791,img/planet6_right.png,6,Community 2,NA,TRUE,j,j,NA,NA,NA,2,6,"15,5,10,11,2,4,9,3,6,14,13,12,8,7,1"
14827,commdev-image-keyboard-response,193,448341,learnblock1,580.8999999761581,img/planet14_right.png,14,Community 2,NA,TRUE,j,j,NA,NA,NA,2,6,"15,5,10,11,2,4,9,3,6,14,13,12,8,7,1"
14827,commdev-image-keyboard-response,194,449592,learnblock1,570.3000000119209,img/planet9_left.png,9,Community 2,NA,TRUE,f,f,NA,NA,NA,2,6,"15,5,10,11,2,4,9,3,6,14,13,12,8,7,1"
14827,commdev-image-keyboard-response,195,450845,learnblock1,472.0999999642372,img/planet14_right.png,14,Community 2,NA,TRUE,j,j,NA,NA,NA,2,6,"15,5,10,11,2,4,9,3,6,14,13,12,8,7,1"
14827,commdev-image-keyboard-response,196,452097,learnblock1,458.5,img/planet4_left.png,4,Community 2,NA,TRUE,f,f,NA,NA,NA,2,6,"15,5,10,11,2,4,9,3,6,14,13,12,8,7,1"
14827,commdev-image-keyboard-response,197,453349,learnblock1,529.3000000119209,img/planet14_left.png,14,Community 2,NA,TRUE,f,f,NA,NA,NA,2,6,"15,5,10,11,2,4,9,3,6,14,13,12,8,7,1"
14827,commdev-image-keyboard-response,198,454601,learnblock1,573.3999999761581,img/planet4_left.png,4,Community 2,NA,TRUE,f,f,NA,NA,NA,2,6,"15,5,10,11,2,4,9,3,6,14,13,12,8,7,1"
14827,commdev-image-keyboard-response,199,455854,learnblock1,565,img/planet9_left.png,9,Community 2,NA,TRUE,f,f,NA,NA,NA,2,6,"15,5,10,11,2,4,9,3,6,14,13,12,8,7,1"
14827,commdev-image-keyboard-response,200,457107,learnblock1,524,img/planet6_right.png,6,Community 2,NA,TRUE,j,j,NA,NA,NA,2,6,"15,5,10,11,2,4,9,3,6,14,13,12,8,7,1"
14827,commdev-image-keyboard-response,201,458360,learnblock1,506.9000000357628,img/planet3_left.png,3,Community 2,NA,TRUE,f,f,NA,NA,NA,2,6,"15,5,10,11,2,4,9,3,6,14,13,12,8,7,1"
14827,commdev-image-keyboard-response,202,459611,learnblock1,512.7999999523163,img/planet6_right.png,6,Community 2,NA,TRUE,j,j,NA,NA,NA,2,6,"15,5,10,11,2,4,9,3,6,14,13,12,8,7,1"
14827,commdev-image-keyboard-response,203,460864,learnblock1,468.10000002384186,img/planet4_left.png,4,Community 2,NA,TRUE,f,f,NA,NA,NA,2,6,"15,5,10,11,2,4,9,3,6,14,13,12,8,7,1"
14827,commdev-image-keyboard-response,204,462117,learnblock1,474.5,img/planet6_left.png,6,Community 2,NA,TRUE,f,f,NA,NA,NA,2,6,"15,5,10,11,2,4,9,3,6,14,13,12,8,7,1"
14827,commdev-image-keyboard-response,205,463371,learnblock1,441.69999998807907,img/planet4_right.png,4,Community 2,NA,TRUE,j,j,NA,NA,NA,2,6,"15,5,10,11,2,4,9,3,6,14,13,12,8,7,1"
14827,commdev-image-keyboard-response,206,464623,learnblock1,491.39999997615814,img/planet9_right.png,9,Community 2,NA,TRUE,j,j,NA,NA,NA,2,6,"15,5,10,11,2,4,9,3,6,14,13,12,8,7,1"
14827,commdev-image-keyboard-response,207,465876,learnblock1,464.89999997615814,img/planet14_left.png,14,Community 2,NA,TRUE,f,f,NA,NA,NA,2,6,"15,5,10,11,2,4,9,3,6,14,13,12,8,7,1"
14827,commdev-image-keyboard-response,208,467129,learnblock1,646.7000000476837,img/planet3_left.png,3,Community 2,NA,TRUE,f,f,NA,NA,NA,2,6,"15,5,10,11,2,4,9,3,6,14,13,12,8,7,1"
14827,commdev-image-keyboard-response,209,468383,learnblock1,602.1999999880791,img/planet14_left.png,14,Community 2,NA,TRUE,f,f,NA,NA,NA,2,6,"15,5,10,11,2,4,9,3,6,14,13,12,8,7,1"
14827,commdev-image-keyboard-response,210,469636,learnblock1,548.2999999523163,img/planet3_right.png,3,Community 2,NA,TRUE,j,j,NA,NA,NA,2,6,"15,5,10,11,2,4,9,3,6,14,13,12,8,7,1"
14827,commdev-image-keyboard-response,211,470888,learnblock1,521.3000000119209,img/planet14_right.png,14,Community 2,NA,TRUE,j,j,NA,NA,NA,2,6,"15,5,10,11,2,4,9,3,6,14,13,12,8,7,1"
14827,commdev-image-keyboard-response,212,472140,learnblock1,484,img/planet6_left.png,6,Community 2,NA,TRUE,f,f,NA,NA,NA,2,6,"15,5,10,11,2,4,9,3,6,14,13,12,8,7,1"
14827,commdev-image-keyboard-response,213,473393,learnblock1,557.6999999880791,img/planet3_left.png,3,Community 2,NA,TRUE,f,f,NA,NA,NA,2,6,"15,5,10,11,2,4,9,3,6,14,13,12,8,7,1"
14827,commdev-image-keyboard-response,214,474646,learnblock1,531,img/planet9_right.png,9,Community 2,NA,TRUE,j,j,NA,NA,NA,2,6,"15,5,10,11,2,4,9,3,6,14,13,12,8,7,1"
14827,commdev-image-keyboard-response,215,475898,learnblock1,557.3000000119209,img/planet3_right.png,3,Community 2,NA,TRUE,j,j,NA,NA,NA,2,6,"15,5,10,11,2,4,9,3,6,14,13,12,8,7,1"
14827,commdev-image-keyboard-response,216,477150,learnblock1,449.19999998807907,img/planet6_right.png,6,Community 2,NA,TRUE,j,j,NA,NA,NA,2,6,"15,5,10,11,2,4,9,3,6,14,13,12,8,7,1"
14827,commdev-image-keyboard-response,217,478402,learnblock1,396.60000002384186,img/planet4_right.png,4,Community 2,NA,TRUE,j,j,NA,NA,NA,2,6,"15,5,10,11,2,4,9,3,6,14,13,12,8,7,1"
14827,commdev-image-keyboard-response,218,479656,learnblock1,362.5,img/planet11_left.png,11,Community 1,NA,TRUE,f,f,NA,NA,NA,2,6,"15,5,10,11,2,4,9,3,6,14,13,12,8,7,1"
14827,commdev-image-keyboard-response,219,480909,learnblock1,421.19999998807907,img/planet10_right.png,10,Community 1,NA,TRUE,j,j,NA,NA,NA,2,6,"15,5,10,11,2,4,9,3,6,14,13,12,8,7,1"
14827,commdev-image-keyboard-response,220,482162,learnblock1,537.4000000357628,img/planet5_right.png,5,Community 1,NA,TRUE,j,j,NA,NA,NA,2,6,"15,5,10,11,2,4,9,3,6,14,13,12,8,7,1"
14827,commdev-image-keyboard-response,221,483414,learnblock1,644.1999999880791,img/planet11_left.png,11,Community 1,NA,TRUE,f,f,NA,NA,NA,2,6,"15,5,10,11,2,4,9,3,6,14,13,12,8,7,1"
14827,commdev-image-keyboard-response,222,484667,learnblock1,591.8999999761581,img/planet10_right.png,10,Community 1,NA,TRUE,j,j,NA,NA,NA,2,6,"15,5,10,11,2,4,9,3,6,14,13,12,8,7,1"
14827,commdev-image-keyboard-response,223,485920,learnblock1,439.69999998807907,img/planet2_left.png,2,Community 1,NA,TRUE,f,f,NA,NA,NA,2,6,"15,5,10,11,2,4,9,3,6,14,13,12,8,7,1"
14827,commdev-image-keyboard-response,224,487172,learnblock1,504.4000000357628,img/planet15_left.png,15,Community 1,NA,TRUE,f,f,NA,NA,NA,2,6,"15,5,10,11,2,4,9,3,6,14,13,12,8,7,1"
14827,commdev-image-keyboard-response,225,488424,learnblock1,466.39999997615814,img/planet11_right.png,11,Community 1,NA,TRUE,j,j,NA,NA,NA,2,6,"15,5,10,11,2,4,9,3,6,14,13,12,8,7,1"
14827,commdev-image-keyboard-response,226,489676,learnblock1,516.3000000119209,img/planet5_right.png,5,Community 1,NA,TRUE,j,j,NA,NA,NA,2,6,"15,5,10,11,2,4,9,3,6,14,13,12,8,7,1"
14827,commdev-image-keyboard-response,227,490930,learnblock1,492.5,img/planet15_left.png,15,Community 1,NA,TRUE,f,f,NA,NA,NA,2,6,"15,5,10,11,2,4,9,3,6,14,13,12,8,7,1"
14827,commdev-image-keyboard-response,228,492181,learnblock1,529.3999999761581,img/planet11_left.png,11,Community 1,NA,TRUE,f,f,NA,NA,NA,2,6,"15,5,10,11,2,4,9,3,6,14,13,12,8,7,1"
14827,commdev-image-keyboard-response,229,493433,learnblock1,587.1999999880791,img/planet4_left.png,4,Community 2,NA,TRUE,f,f,NA,NA,NA,2,6,"15,5,10,11,2,4,9,3,6,14,13,12,8,7,1"
14827,commdev-image-keyboard-response,230,494687,learnblock1,535.5,img/planet14_left.png,14,Community 2,NA,TRUE,f,f,NA,NA,NA,2,6,"15,5,10,11,2,4,9,3,6,14,13,12,8,7,1"
14827,commdev-image-keyboard-response,231,495940,learnblock1,635.1999999880791,img/planet3_left.png,3,Community 2,NA,TRUE,f,f,NA,NA,NA,2,6,"15,5,10,11,2,4,9,3,6,14,13,12,8,7,1"
14827,commdev-image-keyboard-response,232,497193,learnblock1,525.5,img/planet14_right.png,14,Community 2,NA,TRUE,j,j,NA,NA,NA,2,6,"15,5,10,11,2,4,9,3,6,14,13,12,8,7,1"
14827,commdev-image-keyboard-response,233,498445,learnblock1,515.4000000357628,img/planet9_left.png,9,Community 2,NA,TRUE,f,f,NA,NA,NA,2,6,"15,5,10,11,2,4,9,3,6,14,13,12,8,7,1"
14827,commdev-image-keyboard-response,234,499697,learnblock1,656.3999999761581,img/planet3_left.png,3,Community 2,NA,TRUE,f,f,NA,NA,NA,2,6,"15,5,10,11,2,4,9,3,6,14,13,12,8,7,1"
14827,commdev-image-keyboard-response,235,500949,learnblock1,735.6999999880791,img/planet14_right.png,14,Community 2,NA,TRUE,j,j,NA,NA,NA,2,6,"15,5,10,11,2,4,9,3,6,14,13,12,8,7,1"
14827,commdev-image-keyboard-response,236,502202,learnblock1,659.1999999880791,img/planet3_right.png,3,Community 2,NA,TRUE,j,j,NA,NA,NA,2,6,"15,5,10,11,2,4,9,3,6,14,13,12,8,7,1"
14827,commdev-image-keyboard-response,237,503454,learnblock1,517.8999999761581,img/planet12_left.png,12,Community 3,NA,TRUE,f,f,NA,NA,NA,2,6,"15,5,10,11,2,4,9,3,6,14,13,12,8,7,1"
14827,commdev-image-keyboard-response,238,504707,learnblock1,523.8000000119209,img/planet7_left.png,7,Community 3,NA,TRUE,f,f,NA,NA,NA,2,6,"15,5,10,11,2,4,9,3,6,14,13,12,8,7,1"
14827,commdev-image-keyboard-response,239,505960,learnblock1,547.6000000238419,img/planet8_right.png,8,Community 3,NA,TRUE,j,j,NA,NA,NA,2,6,"15,5,10,11,2,4,9,3,6,14,13,12,8,7,1"
14827,commdev-image-keyboard-response,240,507212,learnblock1,515.3000000119209,img/planet1_right.png,1,Community 3,NA,TRUE,j,j,NA,NA,NA,2,6,"15,5,10,11,2,4,9,3,6,14,13,12,8,7,1"
14827,commdev-image-keyboard-response,241,508463,learnblock1,485.39999997615814,img/planet8_left.png,8,Community 3,NA,TRUE,f,f,NA,NA,NA,2,6,"15,5,10,11,2,4,9,3,6,14,13,12,8,7,1"
14827,commdev-image-keyboard-response,242,509715,learnblock1,512.3000000119209,img/planet1_right.png,1,Community 3,NA,TRUE,j,j,NA,NA,NA,2,6,"15,5,10,11,2,4,9,3,6,14,13,12,8,7,1"
14827,commdev-image-keyboard-response,243,510967,learnblock1,558.8999999761581,img/planet8_right.png,8,Community 3,NA,TRUE,j,j,NA,NA,NA,2,6,"15,5,10,11,2,4,9,3,6,14,13,12,8,7,1"
14827,commdev-image-keyboard-response,244,512219,learnblock1,527.7000000476837,img/planet7_right.png,7,Community 3,NA,TRUE,j,j,NA,NA,NA,2,6,"15,5,10,11,2,4,9,3,6,14,13,12,8,7,1"
14827,commdev-image-keyboard-response,245,513472,learnblock1,576.3999999761581,img/planet13_left.png,13,Community 3,NA,TRUE,f,f,NA,NA,NA,2,6,"15,5,10,11,2,4,9,3,6,14,13,12,8,7,1"
14827,commdev-image-keyboard-response,246,514725,learnblock1,458.9000000357628,img/planet1_left.png,1,Community 3,NA,TRUE,f,f,NA,NA,NA,2,6,"15,5,10,11,2,4,9,3,6,14,13,12,8,7,1"
14827,commdev-image-keyboard-response,247,515976,learnblock1,518.6000000238419,img/planet8_right.png,8,Community 3,NA,TRUE,j,j,NA,NA,NA,2,6,"15,5,10,11,2,4,9,3,6,14,13,12,8,7,1"
14827,commdev-image-keyboard-response,248,517228,learnblock1,552,img/planet7_right.png,7,Community 3,NA,TRUE,j,j,NA,NA,NA,2,6,"15,5,10,11,2,4,9,3,6,14,13,12,8,7,1"
14827,commdev-image-keyboard-response,249,518480,learnblock1,504.80000001192093,img/planet13_right.png,13,Community 3,NA,TRUE,j,j,NA,NA,NA,2,6,"15,5,10,11,2,4,9,3,6,14,13,12,8,7,1"
14827,commdev-image-keyboard-response,250,519732,learnblock1,524.7999999523163,img/planet1_right.png,1,Community 3,NA,TRUE,j,j,NA,NA,NA,2,6,"15,5,10,11,2,4,9,3,6,14,13,12,8,7,1"
14827,commdev-image-keyboard-response,251,520984,learnblock1,564.6999999880791,img/planet7_left.png,7,Community 3,NA,TRUE,f,f,NA,NA,NA,2,6,"15,5,10,11,2,4,9,3,6,14,13,12,8,7,1"
14827,commdev-image-keyboard-response,252,522237,learnblock1,633.5,img/planet13_left.png,13,Community 3,NA,TRUE,f,f,NA,NA,NA,2,6,"15,5,10,11,2,4,9,3,6,14,13,12,8,7,1"
14827,commdev-image-keyboard-response,253,523488,learnblock1,608.5,img/planet8_left.png,8,Community 3,NA,TRUE,f,f,NA,NA,NA,2,6,"15,5,10,11,2,4,9,3,6,14,13,12,8,7,1"
14827,commdev-image-keyboard-response,254,524741,learnblock1,564,img/planet7_left.png,7,Community 3,NA,TRUE,f,f,NA,NA,NA,2,6,"15,5,10,11,2,4,9,3,6,14,13,12,8,7,1"
14827,commdev-image-keyboard-response,255,525993,learnblock1,560.6000000238419,img/planet13_left.png,13,Community 3,NA,TRUE,f,f,NA,NA,NA,2,6,"15,5,10,11,2,4,9,3,6,14,13,12,8,7,1"
14827,commdev-image-keyboard-response,256,527247,learnblock1,556.0999999642372,img/planet8_right.png,8,Community 3,NA,TRUE,j,j,NA,NA,NA,2,6,"15,5,10,11,2,4,9,3,6,14,13,12,8,7,1"
14827,commdev-image-keyboard-response,257,528500,learnblock1,645.6999999880791,img/planet7_left.png,7,Community 3,NA,TRUE,f,f,NA,NA,NA,2,6,"15,5,10,11,2,4,9,3,6,14,13,12,8,7,1"
14827,commdev-image-keyboard-response,258,529752,learnblock1,596.5,img/planet8_left.png,8,Community 3,NA,TRUE,f,f,NA,NA,NA,2,6,"15,5,10,11,2,4,9,3,6,14,13,12,8,7,1"
14827,commdev-image-keyboard-response,259,531004,learnblock1,534.6999999880791,img/planet13_left.png,13,Community 3,NA,TRUE,f,f,NA,NA,NA,2,6,"15,5,10,11,2,4,9,3,6,14,13,12,8,7,1"
14827,commdev-image-keyboard-response,260,532256,learnblock1,536.5,img/planet2_left.png,2,Community 1,NA,TRUE,f,f,NA,NA,NA,2,6,"15,5,10,11,2,4,9,3,6,14,13,12,8,7,1"
14827,commdev-image-keyboard-response,261,533509,learnblock1,545.6999999880791,img/planet13_right.png,13,Community 3,NA,TRUE,j,j,NA,NA,NA,2,6,"15,5,10,11,2,4,9,3,6,14,13,12,8,7,1"
14827,commdev-image-keyboard-response,262,534762,learnblock1,560.3000000119209,img/planet7_right.png,7,Community 3,NA,TRUE,j,j,NA,NA,NA,2,6,"15,5,10,11,2,4,9,3,6,14,13,12,8,7,1"
14827,commdev-image-keyboard-response,263,536014,learnblock1,568.2000000476837,img/planet12_left.png,12,Community 3,NA,TRUE,f,f,NA,NA,NA,2,6,"15,5,10,11,2,4,9,3,6,14,13,12,8,7,1"
14827,commdev-image-keyboard-response,264,537272,learnblock1,556,img/planet1_left.png,1,Community 3,NA,TRUE,f,f,NA,NA,NA,2,6,"15,5,10,11,2,4,9,3,6,14,13,12,8,7,1"
14827,commdev-image-keyboard-response,265,538525,learnblock1,557.6999999880791,img/planet13_left.png,13,Community 3,NA,TRUE,f,f,NA,NA,NA,2,6,"15,5,10,11,2,4,9,3,6,14,13,12,8,7,1"
14827,commdev-image-keyboard-response,266,539778,learnblock1,504.2999999523163,img/planet7_left.png,7,Community 3,NA,TRUE,f,f,NA,NA,NA,2,6,"15,5,10,11,2,4,9,3,6,14,13,12,8,7,1"
14827,commdev-image-keyboard-response,267,541030,learnblock1,450,img/planet1_right.png,1,Community 3,NA,TRUE,j,j,NA,NA,NA,2,6,"15,5,10,11,2,4,9,3,6,14,13,12,8,7,1"
14827,commdev-image-keyboard-response,268,542283,learnblock1,492.69999998807907,img/planet8_left.png,8,Community 3,NA,TRUE,f,f,NA,NA,NA,2,6,"15,5,10,11,2,4,9,3,6,14,13,12,8,7,1"
14827,commdev-image-keyboard-response,269,543535,learnblock1,509.39999997615814,img/planet12_right.png,12,Community 3,NA,TRUE,j,j,NA,NA,NA,2,6,"15,5,10,11,2,4,9,3,6,14,13,12,8,7,1"
14827,commdev-image-keyboard-response,270,544788,learnblock1,564.8000000119209,img/planet3_left.png,3,Community 2,NA,TRUE,f,f,NA,NA,NA,2,6,"15,5,10,11,2,4,9,3,6,14,13,12,8,7,1"
14827,commdev-image-keyboard-response,271,546039,learnblock1,580.6999999880791,img/planet12_left.png,12,Community 3,NA,TRUE,f,f,NA,NA,NA,2,6,"15,5,10,11,2,4,9,3,6,14,13,12,8,7,1"
14827,commdev-image-keyboard-response,272,547291,learnblock1,473.7999999523163,img/planet7_right.png,7,Community 3,NA,TRUE,j,j,NA,NA,NA,2,6,"15,5,10,11,2,4,9,3,6,14,13,12,8,7,1"
14827,commdev-image-keyboard-response,273,548544,learnblock1,468.89999997615814,img/planet8_left.png,8,Community 3,NA,TRUE,f,f,NA,NA,NA,2,6,"15,5,10,11,2,4,9,3,6,14,13,12,8,7,1"
14827,commdev-image-keyboard-response,274,549796,learnblock1,541.1999999880791,img/planet12_left.png,12,Community 3,NA,TRUE,f,f,NA,NA,NA,2,6,"15,5,10,11,2,4,9,3,6,14,13,12,8,7,1"
14827,commdev-image-keyboard-response,275,551048,learnblock1,501.80000001192093,img/planet1_right.png,1,Community 3,NA,TRUE,j,j,NA,NA,NA,2,6,"15,5,10,11,2,4,9,3,6,14,13,12,8,7,1"
14827,commdev-image-keyboard-response,276,552301,learnblock1,580.3000000119209,img/planet13_right.png,13,Community 3,NA,TRUE,j,j,NA,NA,NA,2,6,"15,5,10,11,2,4,9,3,6,14,13,12,8,7,1"
14827,commdev-image-keyboard-response,277,553553,learnblock1,533.8999999761581,img/planet8_left.png,8,Community 3,NA,TRUE,f,f,NA,NA,NA,2,6,"15,5,10,11,2,4,9,3,6,14,13,12,8,7,1"
14827,commdev-image-keyboard-response,278,554806,learnblock1,425.5,img/planet7_right.png,7,Community 3,NA,TRUE,j,j,NA,NA,NA,2,6,"15,5,10,11,2,4,9,3,6,14,13,12,8,7,1"
14827,commdev-image-keyboard-response,279,556058,learnblock1,513.0999999642372,img/planet1_right.png,1,Community 3,NA,TRUE,j,j,NA,NA,NA,2,6,"15,5,10,11,2,4,9,3,6,14,13,12,8,7,1"
14827,commdev-image-keyboard-response,280,557311,learnblock1,461.5,img/planet8_right.png,8,Community 3,NA,TRUE,j,j,NA,NA,NA,2,6,"15,5,10,11,2,4,9,3,6,14,13,12,8,7,1"
14827,commdev-image-keyboard-response,281,558563,learnblock1,482.10000002384186,img/planet13_left.png,13,Community 3,NA,TRUE,f,f,NA,NA,NA,2,6,"15,5,10,11,2,4,9,3,6,14,13,12,8,7,1"
14827,commdev-image-keyboard-response,282,559815,learnblock1,372,img/planet2_right.png,2,Community 1,NA,TRUE,j,j,NA,NA,NA,2,6,"15,5,10,11,2,4,9,3,6,14,13,12,8,7,1"
14827,commdev-image-keyboard-response,283,561068,learnblock1,431.39999997615814,img/planet5_left.png,5,Community 1,NA,TRUE,f,f,NA,NA,NA,2,6,"15,5,10,11,2,4,9,3,6,14,13,12,8,7,1"
14827,commdev-image-keyboard-response,284,562320,learnblock1,443.60000002384186,img/planet2_left.png,2,Community 1,NA,TRUE,f,f,NA,NA,NA,2,6,"15,5,10,11,2,4,9,3,6,14,13,12,8,7,1"
14827,commdev-image-keyboard-response,285,563573,learnblock1,458.5,img/planet10_right.png,10,Community 1,NA,TRUE,j,j,NA,NA,NA,2,6,"15,5,10,11,2,4,9,3,6,14,13,12,8,7,1"
14827,commdev-image-keyboard-response,286,564825,learnblock1,481.60000002384186,img/planet11_left.png,11,Community 1,NA,TRUE,f,f,NA,NA,NA,2,6,"15,5,10,11,2,4,9,3,6,14,13,12,8,7,1"
14827,commdev-image-keyboard-response,287,566078,learnblock1,437.80000001192093,img/planet15_right.png,15,Community 1,NA,TRUE,j,j,NA,NA,NA,2,6,"15,5,10,11,2,4,9,3,6,14,13,12,8,7,1"
14827,commdev-image-keyboard-response,288,567330,learnblock1,498.5,img/planet5_left.png,5,Community 1,NA,TRUE,f,f,NA,NA,NA,2,6,"15,5,10,11,2,4,9,3,6,14,13,12,8,7,1"
14827,commdev-image-keyboard-response,289,568583,learnblock1,576.8999999761581,img/planet15_left.png,15,Community 1,NA,TRUE,f,f,NA,NA,NA,2,6,"15,5,10,11,2,4,9,3,6,14,13,12,8,7,1"
14827,commdev-image-keyboard-response,290,569835,learnblock1,508.60000002384186,img/planet10_left.png,10,Community 1,NA,TRUE,f,f,NA,NA,NA,2,6,"15,5,10,11,2,4,9,3,6,14,13,12,8,7,1"
14827,commdev-image-keyboard-response,291,571088,learnblock1,516.3999999761581,img/planet5_right.png,5,Community 1,NA,TRUE,j,j,NA,NA,NA,2,6,"15,5,10,11,2,4,9,3,6,14,13,12,8,7,1"
14827,commdev-image-keyboard-response,292,572340,learnblock1,664.1000000238419,img/planet10_right.png,10,Community 1,NA,TRUE,j,j,NA,NA,NA,2,6,"15,5,10,11,2,4,9,3,6,14,13,12,8,7,1"
14827,commdev-image-keyboard-response,293,573594,learnblock1,537.1999999880791,img/planet2_left.png,2,Community 1,NA,TRUE,f,f,NA,NA,NA,2,6,"15,5,10,11,2,4,9,3,6,14,13,12,8,7,1"
14827,commdev-image-keyboard-response,294,574846,learnblock1,489.89999997615814,img/planet10_left.png,10,Community 1,NA,TRUE,f,f,NA,NA,NA,2,6,"15,5,10,11,2,4,9,3,6,14,13,12,8,7,1"
14827,commdev-image-keyboard-response,295,576097,learnblock1,458.30000001192093,img/planet15_left.png,15,Community 1,NA,TRUE,f,f,NA,NA,NA,2,6,"15,5,10,11,2,4,9,3,6,14,13,12,8,7,1"
14827,commdev-image-keyboard-response,296,577349,learnblock1,435.4000000357628,img/planet11_right.png,11,Community 1,NA,TRUE,j,j,NA,NA,NA,2,6,"15,5,10,11,2,4,9,3,6,14,13,12,8,7,1"
14827,commdev-image-keyboard-response,297,578603,learnblock1,437.60000002384186,img/planet4_right.png,4,Community 2,NA,TRUE,j,j,NA,NA,NA,2,6,"15,5,10,11,2,4,9,3,6,14,13,12,8,7,1"
14827,commdev-image-keyboard-response,298,579855,learnblock1,450.30000001192093,img/planet6_right.png,6,Community 2,NA,TRUE,j,j,NA,NA,NA,2,6,"15,5,10,11,2,4,9,3,6,14,13,12,8,7,1"
14827,commdev-image-keyboard-response,299,581107,learnblock1,456.69999998807907,img/planet14_right.png,14,Community 2,NA,TRUE,j,j,NA,NA,NA,2,6,"15,5,10,11,2,4,9,3,6,14,13,12,8,7,1"
14827,commdev-image-keyboard-response,300,582360,learnblock1,389,img/planet6_right.png,6,Community 2,NA,TRUE,j,j,NA,NA,NA,2,6,"15,5,10,11,2,4,9,3,6,14,13,12,8,7,1"
14827,commdev-image-keyboard-response,301,583612,learnblock1,562.3000000119209,img/planet14_left.png,14,Community 2,NA,TRUE,f,f,NA,NA,NA,2,6,"15,5,10,11,2,4,9,3,6,14,13,12,8,7,1"
14827,commdev-image-keyboard-response,302,584865,learnblock1,633.5999999642372,img/planet3_left.png,3,Community 2,NA,TRUE,f,f,NA,NA,NA,2,6,"15,5,10,11,2,4,9,3,6,14,13,12,8,7,1"
14827,commdev-image-keyboard-response,303,586117,learnblock1,582.6000000238419,img/planet6_left.png,6,Community 2,NA,TRUE,f,f,NA,NA,NA,2,6,"15,5,10,11,2,4,9,3,6,14,13,12,8,7,1"
14827,commdev-image-keyboard-response,304,587369,learnblock1,483.30000001192093,img/planet3_right.png,3,Community 2,NA,TRUE,j,j,NA,NA,NA,2,6,"15,5,10,11,2,4,9,3,6,14,13,12,8,7,1"
14827,commdev-image-keyboard-response,305,588621,learnblock1,475.5999999642372,img/planet6_right.png,6,Community 2,NA,TRUE,j,j,NA,NA,NA,2,6,"15,5,10,11,2,4,9,3,6,14,13,12,8,7,1"
14827,commdev-image-keyboard-response,306,589873,learnblock1,577.8000000119209,img/planet14_left.png,14,Community 2,NA,TRUE,f,f,NA,NA,NA,2,6,"15,5,10,11,2,4,9,3,6,14,13,12,8,7,1"
14827,commdev-image-keyboard-response,307,591127,learnblock1,556.2000000476837,img/planet3_left.png,3,Community 2,NA,TRUE,f,f,NA,NA,NA,2,6,"15,5,10,11,2,4,9,3,6,14,13,12,8,7,1"
14827,commdev-image-keyboard-response,308,592379,learnblock1,489.10000002384186,img/planet6_left.png,6,Community 2,NA,TRUE,f,f,NA,NA,NA,2,6,"15,5,10,11,2,4,9,3,6,14,13,12,8,7,1"
14827,commdev-image-keyboard-response,309,593631,learnblock1,394.80000001192093,img/planet4_left.png,4,Community 2,NA,TRUE,f,f,NA,NA,NA,2,6,"15,5,10,11,2,4,9,3,6,14,13,12,8,7,1"
14827,commdev-image-keyboard-response,310,594884,learnblock1,480.4000000357628,img/planet6_left.png,6,Community 2,NA,TRUE,f,f,NA,NA,NA,2,6,"15,5,10,11,2,4,9,3,6,14,13,12,8,7,1"
14827,commdev-image-keyboard-response,311,596137,learnblock1,536.4000000357628,img/planet3_right.png,3,Community 2,NA,TRUE,j,j,NA,NA,NA,2,6,"15,5,10,11,2,4,9,3,6,14,13,12,8,7,1"
14827,commdev-image-keyboard-response,312,597389,learnblock1,405.30000001192093,img/planet6_right.png,6,Community 2,NA,TRUE,j,j,NA,NA,NA,2,6,"15,5,10,11,2,4,9,3,6,14,13,12,8,7,1"
14827,commdev-image-keyboard-response,313,598642,learnblock1,422.7000000476837,img/planet3_left.png,3,Community 2,NA,FALSE,j,f,NA,NA,NA,2,6,"15,5,10,11,2,4,9,3,6,14,13,12,8,7,1"
14827,commdev-image-keyboard-response,314,599894,learnblock1,482.4000000357628,img/planet9_right.png,9,Community 2,NA,TRUE,j,j,NA,NA,NA,2,6,"15,5,10,11,2,4,9,3,6,14,13,12,8,7,1"
14827,commdev-image-keyboard-response,315,601147,learnblock1,540,img/planet14_right.png,14,Community 2,NA,TRUE,j,j,NA,NA,NA,2,6,"15,5,10,11,2,4,9,3,6,14,13,12,8,7,1"
14827,commdev-image-keyboard-response,316,602399,learnblock1,458.9000000357628,img/planet9_right.png,9,Community 2,NA,TRUE,j,j,NA,NA,NA,2,6,"15,5,10,11,2,4,9,3,6,14,13,12,8,7,1"
14827,commdev-image-keyboard-response,317,603653,learnblock1,481.69999998807907,img/planet6_right.png,6,Community 2,NA,TRUE,j,j,NA,NA,NA,2,6,"15,5,10,11,2,4,9,3,6,14,13,12,8,7,1"
14827,commdev-image-keyboard-response,318,604906,learnblock1,396.5999999642372,img/planet9_right.png,9,Community 2,NA,TRUE,j,j,NA,NA,NA,2,6,"15,5,10,11,2,4,9,3,6,14,13,12,8,7,1"
14827,commdev-image-keyboard-response,319,606158,learnblock1,465.19999998807907,img/planet14_right.png,14,Community 2,NA,TRUE,j,j,NA,NA,NA,2,6,"15,5,10,11,2,4,9,3,6,14,13,12,8,7,1"
14827,commdev-image-keyboard-response,320,607411,learnblock1,410.60000002384186,img/planet4_right.png,4,Community 2,NA,TRUE,j,j,NA,NA,NA,2,6,"15,5,10,11,2,4,9,3,6,14,13,12,8,7,1"
14827,commdev-image-keyboard-response,321,608664,learnblock1,494.30000001192093,img/planet11_right.png,11,Community 1,NA,TRUE,j,j,NA,NA,NA,2,6,"15,5,10,11,2,4,9,3,6,14,13,12,8,7,1"
14827,commdev-image-keyboard-response,322,609916,learnblock1,405,img/planet10_right.png,10,Community 1,NA,TRUE,j,j,NA,NA,NA,2,6,"15,5,10,11,2,4,9,3,6,14,13,12,8,7,1"
14827,commdev-image-keyboard-response,323,611168,learnblock1,391.0999999642372,img/planet2_right.png,2,Community 1,NA,TRUE,j,j,NA,NA,NA,2,6,"15,5,10,11,2,4,9,3,6,14,13,12,8,7,1"
14827,commdev-image-keyboard-response,324,612420,learnblock1,720.5,img/planet15_right.png,15,Community 1,NA,FALSE,f,j,NA,NA,NA,2,6,"15,5,10,11,2,4,9,3,6,14,13,12,8,7,1"
14827,commdev-image-keyboard-response,325,613673,learnblock1,563.9000000357628,img/planet11_left.png,11,Community 1,NA,TRUE,f,f,NA,NA,NA,2,6,"15,5,10,11,2,4,9,3,6,14,13,12,8,7,1"
14827,commdev-image-keyboard-response,326,614925,learnblock1,502,img/planet10_right.png,10,Community 1,NA,TRUE,j,j,NA,NA,NA,2,6,"15,5,10,11,2,4,9,3,6,14,13,12,8,7,1"
14827,commdev-image-keyboard-response,327,616177,learnblock1,737.1000000238419,img/planet15_right.png,15,Community 1,NA,TRUE,j,j,NA,NA,NA,2,6,"15,5,10,11,2,4,9,3,6,14,13,12,8,7,1"
14827,commdev-image-keyboard-response,328,617429,learnblock1,667.8999999761581,img/planet5_left.png,5,Community 1,NA,TRUE,f,f,NA,NA,NA,2,6,"15,5,10,11,2,4,9,3,6,14,13,12,8,7,1"
14827,commdev-image-keyboard-response,329,618681,learnblock1,541.8000000119209,img/planet10_left.png,10,Community 1,NA,TRUE,f,f,NA,NA,NA,2,6,"15,5,10,11,2,4,9,3,6,14,13,12,8,7,1"
14827,commdev-image-keyboard-response,330,619933,learnblock1,511.60000002384186,img/planet15_right.png,15,Community 1,NA,TRUE,j,j,NA,NA,NA,2,6,"15,5,10,11,2,4,9,3,6,14,13,12,8,7,1"
14827,commdev-image-keyboard-response,331,621184,learnblock1,554.9000000357628,img/planet5_right.png,5,Community 1,NA,TRUE,j,j,NA,NA,NA,2,6,"15,5,10,11,2,4,9,3,6,14,13,12,8,7,1"
14827,commdev-image-keyboard-response,332,622435,learnblock1,536.5,img/planet11_left.png,11,Community 1,NA,TRUE,f,f,NA,NA,NA,2,6,"15,5,10,11,2,4,9,3,6,14,13,12,8,7,1"
14827,commdev-image-keyboard-response,333,623686,learnblock1,457.89999997615814,img/planet15_right.png,15,Community 1,NA,TRUE,j,j,NA,NA,NA,2,6,"15,5,10,11,2,4,9,3,6,14,13,12,8,7,1"
14827,commdev-image-keyboard-response,334,624938,learnblock1,660.2000000476837,img/planet5_left.png,5,Community 1,NA,TRUE,f,f,NA,NA,NA,2,6,"15,5,10,11,2,4,9,3,6,14,13,12,8,7,1"
14827,commdev-image-keyboard-response,335,626190,learnblock1,504.5999999642372,img/planet15_left.png,15,Community 1,NA,TRUE,f,f,NA,NA,NA,2,6,"15,5,10,11,2,4,9,3,6,14,13,12,8,7,1"
14827,commdev-image-keyboard-response,336,627441,learnblock1,483.10000002384186,img/planet11_right.png,11,Community 1,NA,TRUE,j,j,NA,NA,NA,2,6,"15,5,10,11,2,4,9,3,6,14,13,12,8,7,1"
14827,commdev-image-keyboard-response,337,628694,learnblock1,491.30000001192093,img/planet5_right.png,5,Community 1,NA,TRUE,j,j,NA,NA,NA,2,6,"15,5,10,11,2,4,9,3,6,14,13,12,8,7,1"
14827,commdev-image-keyboard-response,338,629946,learnblock1,645.1999999880791,img/planet11_right.png,11,Community 1,NA,TRUE,j,j,NA,NA,NA,2,6,"15,5,10,11,2,4,9,3,6,14,13,12,8,7,1"
14827,commdev-image-keyboard-response,339,631199,learnblock1,568.5999999642372,img/planet15_right.png,15,Community 1,NA,TRUE,j,j,NA,NA,NA,2,6,"15,5,10,11,2,4,9,3,6,14,13,12,8,7,1"
14827,commdev-image-keyboard-response,340,632452,learnblock1,476,img/planet10_right.png,10,Community 1,NA,TRUE,j,j,NA,NA,NA,2,6,"15,5,10,11,2,4,9,3,6,14,13,12,8,7,1"
14827,commdev-image-keyboard-response,341,633704,learnblock1,454.60000002384186,img/planet5_right.png,5,Community 1,NA,TRUE,j,j,NA,NA,NA,2,6,"15,5,10,11,2,4,9,3,6,14,13,12,8,7,1"
14827,commdev-image-keyboard-response,342,634957,learnblock1,374.7999999523163,img/planet15_left.png,15,Community 1,NA,FALSE,j,f,NA,NA,NA,2,6,"15,5,10,11,2,4,9,3,6,14,13,12,8,7,1"
14827,commdev-image-keyboard-response,343,636209,learnblock1,525.5999999642372,img/planet11_left.png,11,Community 1,NA,TRUE,f,f,NA,NA,NA,2,6,"15,5,10,11,2,4,9,3,6,14,13,12,8,7,1"
14827,commdev-image-keyboard-response,344,637462,learnblock1,608.3999999761581,img/planet15_right.png,15,Community 1,NA,TRUE,j,j,NA,NA,NA,2,6,"15,5,10,11,2,4,9,3,6,14,13,12,8,7,1"
14827,commdev-image-keyboard-response,345,638713,learnblock1,465.5,img/planet10_left.png,10,Community 1,NA,TRUE,f,f,NA,NA,NA,2,6,"15,5,10,11,2,4,9,3,6,14,13,12,8,7,1"
14827,commdev-image-keyboard-response,346,639966,learnblock1,410.5,img/planet2_right.png,2,Community 1,NA,TRUE,j,j,NA,NA,NA,2,6,"15,5,10,11,2,4,9,3,6,14,13,12,8,7,1"
14827,commdev-image-keyboard-response,347,641218,learnblock1,524.6000000238419,img/planet15_right.png,15,Community 1,NA,TRUE,j,j,NA,NA,NA,2,6,"15,5,10,11,2,4,9,3,6,14,13,12,8,7,1"
14827,commdev-image-keyboard-response,351,844657,learnblock2,769.5,img/planet2_left.png,2,Community 1,NA,TRUE,f,f,NA,NA,NA,2,6,"15,5,10,11,2,4,9,3,6,14,13,12,8,7,1"
14827,commdev-image-keyboard-response,352,845909,learnblock2,508.39999997615814,img/planet5_right.png,5,Community 1,NA,TRUE,j,j,NA,NA,NA,2,6,"15,5,10,11,2,4,9,3,6,14,13,12,8,7,1"
14827,commdev-image-keyboard-response,353,847162,learnblock2,624.1000000238419,img/planet15_right.png,15,Community 1,NA,TRUE,j,j,NA,NA,NA,2,6,"15,5,10,11,2,4,9,3,6,14,13,12,8,7,1"
14827,commdev-image-keyboard-response,354,848415,learnblock2,566.0999999642372,img/planet5_right.png,5,Community 1,NA,TRUE,j,j,NA,NA,NA,2,6,"15,5,10,11,2,4,9,3,6,14,13,12,8,7,1"
14827,commdev-image-keyboard-response,355,849668,learnblock2,588,img/planet15_left.png,15,Community 1,NA,TRUE,f,f,NA,NA,NA,2,6,"15,5,10,11,2,4,9,3,6,14,13,12,8,7,1"
14827,commdev-image-keyboard-response,356,850921,learnblock2,574.1000000238419,img/planet11_right.png,11,Community 1,NA,TRUE,j,j,NA,NA,NA,2,6,"15,5,10,11,2,4,9,3,6,14,13,12,8,7,1"
14827,commdev-image-keyboard-response,357,852173,learnblock2,611.6000000238419,img/planet4_left.png,4,Community 2,NA,TRUE,f,f,NA,NA,NA,2,6,"15,5,10,11,2,4,9,3,6,14,13,12,8,7,1"
14827,commdev-image-keyboard-response,358,853425,learnblock2,631.9000000357628,img/planet14_left.png,14,Community 2,NA,TRUE,f,f,NA,NA,NA,2,6,"15,5,10,11,2,4,9,3,6,14,13,12,8,7,1"
14827,commdev-image-keyboard-response,359,854678,learnblock2,566.5,img/planet6_right.png,6,Community 2,NA,TRUE,j,j,NA,NA,NA,2,6,"15,5,10,11,2,4,9,3,6,14,13,12,8,7,1"
14827,commdev-image-keyboard-response,360,855930,learnblock2,608,img/planet14_left.png,14,Community 2,NA,TRUE,f,f,NA,NA,NA,2,6,"15,5,10,11,2,4,9,3,6,14,13,12,8,7,1"
14827,commdev-image-keyboard-response,361,857182,learnblock2,678.8000000119209,img/planet6_left.png,6,Community 2,NA,TRUE,f,f,NA,NA,NA,2,6,"15,5,10,11,2,4,9,3,6,14,13,12,8,7,1"
14827,commdev-image-keyboard-response,362,858433,learnblock2,605.1999999880791,img/planet4_right.png,4,Community 2,NA,TRUE,j,j,NA,NA,NA,2,6,"15,5,10,11,2,4,9,3,6,14,13,12,8,7,1"
14827,commdev-image-keyboard-response,363,859686,learnblock2,772.3000000119209,img/planet9_right.png,9,Community 2,NA,TRUE,j,j,NA,NA,NA,2,6,"15,5,10,11,2,4,9,3,6,14,13,12,8,7,1"
14827,commdev-image-keyboard-response,364,860938,learnblock2,700.6999999880791,img/planet3_left.png,3,Community 2,NA,TRUE,f,f,NA,NA,NA,2,6,"15,5,10,11,2,4,9,3,6,14,13,12,8,7,1"
14827,commdev-image-keyboard-response,365,862188,learnblock2,603.3999999761581,img/planet12_left.png,12,Community 3,NA,TRUE,f,f,NA,NA,NA,2,6,"15,5,10,11,2,4,9,3,6,14,13,12,8,7,1"
14827,commdev-image-keyboard-response,366,863440,learnblock2,521.7000000476837,img/planet7_right.png,7,Community 3,NA,TRUE,j,j,NA,NA,NA,2,6,"15,5,10,11,2,4,9,3,6,14,13,12,8,7,1"
14827,commdev-image-keyboard-response,367,864692,learnblock2,513.1999999880791,img/planet12_left.png,12,Community 3,NA,TRUE,f,f,NA,NA,NA,2,6,"15,5,10,11,2,4,9,3,6,14,13,12,8,7,1"
14827,commdev-image-keyboard-response,368,865943,learnblock2,507.19999998807907,img/planet1_right.png,1,Community 3,NA,TRUE,j,j,NA,NA,NA,2,6,"15,5,10,11,2,4,9,3,6,14,13,12,8,7,1"
14827,commdev-image-keyboard-response,369,867196,learnblock2,493.5,img/planet13_left.png,13,Community 3,NA,TRUE,f,f,NA,NA,NA,2,6,"15,5,10,11,2,4,9,3,6,14,13,12,8,7,1"
14827,commdev-image-keyboard-response,370,868449,learnblock2,448.60000002384186,img/planet7_left.png,7,Community 3,NA,TRUE,f,f,NA,NA,NA,2,6,"15,5,10,11,2,4,9,3,6,14,13,12,8,7,1"
14827,commdev-image-keyboard-response,371,869701,learnblock2,472.9000000357628,img/planet13_right.png,13,Community 3,NA,TRUE,j,j,NA,NA,NA,2,6,"15,5,10,11,2,4,9,3,6,14,13,12,8,7,1"
14827,commdev-image-keyboard-response,372,870955,learnblock2,414.30000001192093,img/planet7_left.png,7,Community 3,NA,TRUE,f,f,NA,NA,NA,2,6,"15,5,10,11,2,4,9,3,6,14,13,12,8,7,1"
14827,commdev-image-keyboard-response,373,872206,learnblock2,575,img/planet13_left.png,13,Community 3,NA,TRUE,f,f,NA,NA,NA,2,6,"15,5,10,11,2,4,9,3,6,14,13,12,8,7,1"
14827,commdev-image-keyboard-response,374,873458,learnblock2,537.8000000119209,img/planet2_right.png,2,Community 1,NA,TRUE,j,j,NA,NA,NA,2,6,"15,5,10,11,2,4,9,3,6,14,13,12,8,7,1"
14827,commdev-image-keyboard-response,375,874710,learnblock2,569.5999999642372,img/planet15_right.png,15,Community 1,NA,TRUE,j,j,NA,NA,NA,2,6,"15,5,10,11,2,4,9,3,6,14,13,12,8,7,1"
14827,commdev-image-keyboard-response,376,875961,learnblock2,510.39999997615814,img/planet10_left.png,10,Community 1,NA,TRUE,f,f,NA,NA,NA,2,6,"15,5,10,11,2,4,9,3,6,14,13,12,8,7,1"
14827,commdev-image-keyboard-response,377,877214,learnblock2,479.5,img/planet2_right.png,2,Community 1,NA,TRUE,j,j,NA,NA,NA,2,6,"15,5,10,11,2,4,9,3,6,14,13,12,8,7,1"
14827,commdev-image-keyboard-response,378,878466,learnblock2,486.69999998807907,img/planet5_left.png,5,Community 1,NA,TRUE,f,f,NA,NA,NA,2,6,"15,5,10,11,2,4,9,3,6,14,13,12,8,7,1"
14827,commdev-image-keyboard-response,379,879719,learnblock2,419.5,img/planet11_right.png,11,Community 1,NA,TRUE,j,j,NA,NA,NA,2,6,"15,5,10,11,2,4,9,3,6,14,13,12,8,7,1"
14827,commdev-image-keyboard-response,380,880970,learnblock2,528.5,img/planet5_right.png,5,Community 1,NA,TRUE,j,j,NA,NA,NA,2,6,"15,5,10,11,2,4,9,3,6,14,13,12,8,7,1"
14827,commdev-image-keyboard-response,381,882223,learnblock2,535.1999999880791,img/planet10_right.png,10,Community 1,NA,TRUE,j,j,NA,NA,NA,2,6,"15,5,10,11,2,4,9,3,6,14,13,12,8,7,1"
14827,commdev-image-keyboard-response,382,883475,learnblock2,464.5999999642372,img/planet2_right.png,2,Community 1,NA,TRUE,j,j,NA,NA,NA,2,6,"15,5,10,11,2,4,9,3,6,14,13,12,8,7,1"
14827,commdev-image-keyboard-response,383,884727,learnblock2,514.8999999761581,img/planet10_left.png,10,Community 1,NA,TRUE,f,f,NA,NA,NA,2,6,"15,5,10,11,2,4,9,3,6,14,13,12,8,7,1"
14827,commdev-image-keyboard-response,384,885979,learnblock2,459.5999999642372,img/planet15_right.png,15,Community 1,NA,TRUE,j,j,NA,NA,NA,2,6,"15,5,10,11,2,4,9,3,6,14,13,12,8,7,1"
14827,commdev-image-keyboard-response,385,887231,learnblock2,573.5,img/planet11_right.png,11,Community 1,NA,TRUE,j,j,NA,NA,NA,2,6,"15,5,10,11,2,4,9,3,6,14,13,12,8,7,1"
14827,commdev-image-keyboard-response,386,888484,learnblock2,838.3999999761581,img/planet4_left.png,4,Community 2,NA,TRUE,f,f,NA,NA,NA,2,6,"15,5,10,11,2,4,9,3,6,14,13,12,8,7,1"
14827,commdev-image-keyboard-response,387,889735,learnblock2,747.1999999880791,img/planet14_left.png,14,Community 2,NA,TRUE,f,f,NA,NA,NA,2,6,"15,5,10,11,2,4,9,3,6,14,13,12,8,7,1"
14827,commdev-image-keyboard-response,388,890987,learnblock2,798.8000000119209,img/planet6_left.png,6,Community 2,NA,TRUE,f,f,NA,NA,NA,2,6,"15,5,10,11,2,4,9,3,6,14,13,12,8,7,1"
14827,commdev-image-keyboard-response,389,892238,learnblock2,560,img/planet9_right.png,9,Community 2,NA,TRUE,j,j,NA,NA,NA,2,6,"15,5,10,11,2,4,9,3,6,14,13,12,8,7,1"
14827,commdev-image-keyboard-response,390,893490,learnblock2,585.2999999523163,img/planet4_left.png,4,Community 2,NA,TRUE,f,f,NA,NA,NA,2,6,"15,5,10,11,2,4,9,3,6,14,13,12,8,7,1"
14827,commdev-image-keyboard-response,391,894742,learnblock2,605.4000000357628,img/planet14_right.png,14,Community 2,NA,TRUE,j,j,NA,NA,NA,2,6,"15,5,10,11,2,4,9,3,6,14,13,12,8,7,1"
14827,commdev-image-keyboard-response,392,895993,learnblock2,553.6000000238419,img/planet9_right.png,9,Community 2,NA,TRUE,j,j,NA,NA,NA,2,6,"15,5,10,11,2,4,9,3,6,14,13,12,8,7,1"
14827,commdev-image-keyboard-response,393,897245,learnblock2,526,img/planet14_left.png,14,Community 2,NA,TRUE,f,f,NA,NA,NA,2,6,"15,5,10,11,2,4,9,3,6,14,13,12,8,7,1"
14827,commdev-image-keyboard-response,394,898497,learnblock2,513.7000000476837,img/planet6_left.png,6,Community 2,NA,TRUE,f,f,NA,NA,NA,2,6,"15,5,10,11,2,4,9,3,6,14,13,12,8,7,1"
14827,commdev-image-keyboard-response,395,899748,learnblock2,482.19999998807907,img/planet9_left.png,9,Community 2,NA,TRUE,f,f,NA,NA,NA,2,6,"15,5,10,11,2,4,9,3,6,14,13,12,8,7,1"
14827,commdev-image-keyboard-response,396,900999,learnblock2,594.9000000357628,img/planet3_left.png,3,Community 2,NA,TRUE,f,f,NA,NA,NA,2,6,"15,5,10,11,2,4,9,3,6,14,13,12,8,7,1"
14827,commdev-image-keyboard-response,397,902251,learnblock2,522.3999999761581,img/planet6_left.png,6,Community 2,NA,TRUE,f,f,NA,NA,NA,2,6,"15,5,10,11,2,4,9,3,6,14,13,12,8,7,1"
14827,commdev-image-keyboard-response,398,903503,learnblock2,461.19999998807907,img/planet9_right.png,9,Community 2,NA,TRUE,j,j,NA,NA,NA,2,6,"15,5,10,11,2,4,9,3,6,14,13,12,8,7,1"
14827,commdev-image-keyboard-response,399,904756,learnblock2,487.10000002384186,img/planet4_right.png,4,Community 2,NA,TRUE,j,j,NA,NA,NA,2,6,"15,5,10,11,2,4,9,3,6,14,13,12,8,7,1"
14827,commdev-image-keyboard-response,400,906009,learnblock2,487.39999997615814,img/planet11_left.png,11,Community 1,NA,TRUE,f,f,NA,NA,NA,2,6,"15,5,10,11,2,4,9,3,6,14,13,12,8,7,1"
14827,commdev-image-keyboard-response,401,907262,learnblock2,473.60000002384186,img/planet15_left.png,15,Community 1,NA,TRUE,f,f,NA,NA,NA,2,6,"15,5,10,11,2,4,9,3,6,14,13,12,8,7,1"
14827,commdev-image-keyboard-response,402,908515,learnblock2,433.10000002384186,img/planet2_left.png,2,Community 1,NA,TRUE,f,f,NA,NA,NA,2,6,"15,5,10,11,2,4,9,3,6,14,13,12,8,7,1"
14827,commdev-image-keyboard-response,403,909767,learnblock2,564,img/planet10_right.png,10,Community 1,NA,TRUE,j,j,NA,NA,NA,2,6,"15,5,10,11,2,4,9,3,6,14,13,12,8,7,1"
14827,commdev-image-keyboard-response,404,911020,learnblock2,492.69999998807907,img/planet5_left.png,5,Community 1,NA,TRUE,f,f,NA,NA,NA,2,6,"15,5,10,11,2,4,9,3,6,14,13,12,8,7,1"
14827,commdev-image-keyboard-response,405,912273,learnblock2,693.6000000238419,img/planet10_right.png,10,Community 1,NA,TRUE,j,j,NA,NA,NA,2,6,"15,5,10,11,2,4,9,3,6,14,13,12,8,7,1"
14827,commdev-image-keyboard-response,406,913525,learnblock2,562,img/planet11_left.png,11,Community 1,NA,TRUE,f,f,NA,NA,NA,2,6,"15,5,10,11,2,4,9,3,6,14,13,12,8,7,1"
14827,commdev-image-keyboard-response,407,914777,learnblock2,524.7000000476837,img/planet4_right.png,4,Community 2,NA,TRUE,j,j,NA,NA,NA,2,6,"15,5,10,11,2,4,9,3,6,14,13,12,8,7,1"
14827,commdev-image-keyboard-response,408,916030,learnblock2,501.0999999642372,img/planet14_left.png,14,Community 2,NA,TRUE,f,f,NA,NA,NA,2,6,"15,5,10,11,2,4,9,3,6,14,13,12,8,7,1"
14827,commdev-image-keyboard-response,409,917283,learnblock2,465.80000001192093,img/planet9_right.png,9,Community 2,NA,TRUE,j,j,NA,NA,NA,2,6,"15,5,10,11,2,4,9,3,6,14,13,12,8,7,1"
14827,commdev-image-keyboard-response,410,918537,learnblock2,503.60000002384186,img/planet6_right.png,6,Community 2,NA,TRUE,j,j,NA,NA,NA,2,6,"15,5,10,11,2,4,9,3,6,14,13,12,8,7,1"
14827,commdev-image-keyboard-response,411,919790,learnblock2,506.4000000357628,img/planet4_left.png,4,Community 2,NA,TRUE,f,f,NA,NA,NA,2,6,"15,5,10,11,2,4,9,3,6,14,13,12,8,7,1"
14827,commdev-image-keyboard-response,412,921042,learnblock2,547.5999999642372,img/planet6_left.png,6,Community 2,NA,TRUE,f,f,NA,NA,NA,2,6,"15,5,10,11,2,4,9,3,6,14,13,12,8,7,1"
14827,commdev-image-keyboard-response,413,922294,learnblock2,528.7999999523163,img/planet3_right.png,3,Community 2,NA,TRUE,j,j,NA,NA,NA,2,6,"15,5,10,11,2,4,9,3,6,14,13,12,8,7,1"
14827,commdev-image-keyboard-response,414,923547,learnblock2,479.5999999642372,img/planet9_left.png,9,Community 2,NA,TRUE,f,f,NA,NA,NA,2,6,"15,5,10,11,2,4,9,3,6,14,13,12,8,7,1"
14827,commdev-image-keyboard-response,415,924800,learnblock2,464.80000001192093,img/planet6_right.png,6,Community 2,NA,TRUE,j,j,NA,NA,NA,2,6,"15,5,10,11,2,4,9,3,6,14,13,12,8,7,1"
14827,commdev-image-keyboard-response,416,926053,learnblock2,508.7000000476837,img/planet4_right.png,4,Community 2,NA,TRUE,j,j,NA,NA,NA,2,6,"15,5,10,11,2,4,9,3,6,14,13,12,8,7,1"
14827,commdev-image-keyboard-response,417,927305,learnblock2,507.60000002384186,img/planet11_right.png,11,Community 1,NA,TRUE,j,j,NA,NA,NA,2,6,"15,5,10,11,2,4,9,3,6,14,13,12,8,7,1"
14827,commdev-image-keyboard-response,418,928557,learnblock2,441.39999997615814,img/planet4_right.png,4,Community 2,NA,TRUE,j,j,NA,NA,NA,2,6,"15,5,10,11,2,4,9,3,6,14,13,12,8,7,1"
14827,commdev-image-keyboard-response,419,929809,learnblock2,485,img/planet11_left.png,11,Community 1,NA,TRUE,f,f,NA,NA,NA,2,6,"15,5,10,11,2,4,9,3,6,14,13,12,8,7,1"
14827,commdev-image-keyboard-response,420,931062,learnblock2,446.60000002384186,img/planet15_right.png,15,Community 1,NA,TRUE,j,j,NA,NA,NA,2,6,"15,5,10,11,2,4,9,3,6,14,13,12,8,7,1"
14827,commdev-image-keyboard-response,421,932315,learnblock2,432.10000002384186,img/planet10_left.png,10,Community 1,NA,TRUE,f,f,NA,NA,NA,2,6,"15,5,10,11,2,4,9,3,6,14,13,12,8,7,1"
14827,commdev-image-keyboard-response,422,933568,learnblock2,427.5,img/planet15_right.png,15,Community 1,NA,TRUE,j,j,NA,NA,NA,2,6,"15,5,10,11,2,4,9,3,6,14,13,12,8,7,1"
14827,commdev-image-keyboard-response,423,934820,learnblock2,473.69999998807907,img/planet2_left.png,2,Community 1,NA,TRUE,f,f,NA,NA,NA,2,6,"15,5,10,11,2,4,9,3,6,14,13,12,8,7,1"
14827,commdev-image-keyboard-response,424,936073,learnblock2,567.0999999642372,img/planet5_left.png,5,Community 1,NA,TRUE,f,f,NA,NA,NA,2,6,"15,5,10,11,2,4,9,3,6,14,13,12,8,7,1"
14827,commdev-image-keyboard-response,425,937324,learnblock2,457.80000001192093,img/planet10_left.png,10,Community 1,NA,TRUE,f,f,NA,NA,NA,2,6,"15,5,10,11,2,4,9,3,6,14,13,12,8,7,1"
14827,commdev-image-keyboard-response,426,938577,learnblock2,506.19999998807907,img/planet5_left.png,5,Community 1,NA,TRUE,f,f,NA,NA,NA,2,6,"15,5,10,11,2,4,9,3,6,14,13,12,8,7,1"
14827,commdev-image-keyboard-response,427,939829,learnblock2,443.10000002384186,img/planet2_left.png,2,Community 1,NA,TRUE,f,f,NA,NA,NA,2,6,"15,5,10,11,2,4,9,3,6,14,13,12,8,7,1"
14827,commdev-image-keyboard-response,428,941084,learnblock2,431.5,img/planet15_left.png,15,Community 1,NA,TRUE,f,f,NA,NA,NA,2,6,"15,5,10,11,2,4,9,3,6,14,13,12,8,7,1"
14827,commdev-image-keyboard-response,429,942337,learnblock2,488,img/planet2_right.png,2,Community 1,NA,TRUE,j,j,NA,NA,NA,2,6,"15,5,10,11,2,4,9,3,6,14,13,12,8,7,1"
14827,commdev-image-keyboard-response,430,943589,learnblock2,492.69999998807907,img/planet10_right.png,10,Community 1,NA,TRUE,j,j,NA,NA,NA,2,6,"15,5,10,11,2,4,9,3,6,14,13,12,8,7,1"
14827,commdev-image-keyboard-response,431,944841,learnblock2,493.30000001192093,img/planet2_left.png,2,Community 1,NA,TRUE,f,f,NA,NA,NA,2,6,"15,5,10,11,2,4,9,3,6,14,13,12,8,7,1"
14827,commdev-image-keyboard-response,432,946094,learnblock2,527.1999999880791,img/planet13_left.png,13,Community 3,NA,TRUE,f,f,NA,NA,NA,2,6,"15,5,10,11,2,4,9,3,6,14,13,12,8,7,1"
14827,commdev-image-keyboard-response,433,947346,learnblock2,533.1999999880791,img/planet8_left.png,8,Community 3,NA,TRUE,f,f,NA,NA,NA,2,6,"15,5,10,11,2,4,9,3,6,14,13,12,8,7,1"
14827,commdev-image-keyboard-response,434,948598,learnblock2,420,img/planet7_left.png,7,Community 3,NA,TRUE,f,f,NA,NA,NA,2,6,"15,5,10,11,2,4,9,3,6,14,13,12,8,7,1"
14827,commdev-image-keyboard-response,435,949850,learnblock2,485.19999998807907,img/planet8_left.png,8,Community 3,NA,TRUE,f,f,NA,NA,NA,2,6,"15,5,10,11,2,4,9,3,6,14,13,12,8,7,1"
14827,commdev-image-keyboard-response,436,951103,learnblock2,550.2000000476837,img/planet13_right.png,13,Community 3,NA,TRUE,j,j,NA,NA,NA,2,6,"15,5,10,11,2,4,9,3,6,14,13,12,8,7,1"
14827,commdev-image-keyboard-response,437,952355,learnblock2,468,img/planet1_right.png,1,Community 3,NA,TRUE,j,j,NA,NA,NA,2,6,"15,5,10,11,2,4,9,3,6,14,13,12,8,7,1"
14827,commdev-image-keyboard-response,438,953608,learnblock2,642,img/planet7_left.png,7,Community 3,NA,TRUE,f,f,NA,NA,NA,2,6,"15,5,10,11,2,4,9,3,6,14,13,12,8,7,1"
14827,commdev-image-keyboard-response,439,954860,learnblock2,503.60000002384186,img/planet12_left.png,12,Community 3,NA,TRUE,f,f,NA,NA,NA,2,6,"15,5,10,11,2,4,9,3,6,14,13,12,8,7,1"
14827,commdev-image-keyboard-response,440,956112,learnblock2,512.1000000238419,img/planet8_left.png,8,Community 3,NA,TRUE,f,f,NA,NA,NA,2,6,"15,5,10,11,2,4,9,3,6,14,13,12,8,7,1"
14827,commdev-image-keyboard-response,441,957364,learnblock2,480.89999997615814,img/planet13_right.png,13,Community 3,NA,FALSE,f,j,NA,NA,NA,2,6,"15,5,10,11,2,4,9,3,6,14,13,12,8,7,1"
14827,commdev-image-keyboard-response,442,958616,learnblock2,516.2999999523163,img/planet7_right.png,7,Community 3,NA,TRUE,j,j,NA,NA,NA,2,6,"15,5,10,11,2,4,9,3,6,14,13,12,8,7,1"
14827,commdev-image-keyboard-response,443,959868,learnblock2,465.89999997615814,img/planet1_right.png,1,Community 3,NA,TRUE,j,j,NA,NA,NA,2,6,"15,5,10,11,2,4,9,3,6,14,13,12,8,7,1"
14827,commdev-image-keyboard-response,444,961119,learnblock2,612.6000000238419,img/planet13_left.png,13,Community 3,NA,TRUE,f,f,NA,NA,NA,2,6,"15,5,10,11,2,4,9,3,6,14,13,12,8,7,1"
14827,commdev-image-keyboard-response,445,962371,learnblock2,609.3000000119209,img/planet2_left.png,2,Community 1,NA,TRUE,f,f,NA,NA,NA,2,6,"15,5,10,11,2,4,9,3,6,14,13,12,8,7,1"
14827,commdev-image-keyboard-response,446,963623,learnblock2,null,img/planet13_left.png,13,Community 3,NA,FALSE,null,f,NA,NA,NA,2,6,"15,5,10,11,2,4,9,3,6,14,13,12,8,7,1"
14827,commdev-image-keyboard-response,447,964874,learnblock2,602.3000000119209,img/planet2_right.png,2,Community 1,NA,TRUE,j,j,NA,NA,NA,2,6,"15,5,10,11,2,4,9,3,6,14,13,12,8,7,1"
14827,commdev-image-keyboard-response,448,966126,learnblock2,501.39999997615814,img/planet13_right.png,13,Community 3,NA,TRUE,j,j,NA,NA,NA,2,6,"15,5,10,11,2,4,9,3,6,14,13,12,8,7,1"
14827,commdev-image-keyboard-response,449,967378,learnblock2,520.8999999761581,img/planet1_right.png,1,Community 3,NA,TRUE,j,j,NA,NA,NA,2,6,"15,5,10,11,2,4,9,3,6,14,13,12,8,7,1"
14827,commdev-image-keyboard-response,450,968629,learnblock2,658.2999999523163,img/planet13_right.png,13,Community 3,NA,TRUE,j,j,NA,NA,NA,2,6,"15,5,10,11,2,4,9,3,6,14,13,12,8,7,1"
14827,commdev-image-keyboard-response,451,969881,learnblock2,552.6999999880791,img/planet7_left.png,7,Community 3,NA,TRUE,f,f,NA,NA,NA,2,6,"15,5,10,11,2,4,9,3,6,14,13,12,8,7,1"
14827,commdev-image-keyboard-response,452,971133,learnblock2,506.2999999523163,img/planet12_left.png,12,Community 3,NA,TRUE,f,f,NA,NA,NA,2,6,"15,5,10,11,2,4,9,3,6,14,13,12,8,7,1"
14827,commdev-image-keyboard-response,453,972386,learnblock2,453.80000001192093,img/planet7_left.png,7,Community 3,NA,TRUE,f,f,NA,NA,NA,2,6,"15,5,10,11,2,4,9,3,6,14,13,12,8,7,1"
14827,commdev-image-keyboard-response,454,973639,learnblock2,793.1000000238419,img/planet8_left.png,8,Community 3,NA,FALSE,j,f,NA,NA,NA,2,6,"15,5,10,11,2,4,9,3,6,14,13,12,8,7,1"
14827,commdev-image-keyboard-response,455,974891,learnblock2,943.8999999761581,img/planet7_left.png,7,Community 3,NA,TRUE,f,f,NA,NA,NA,2,6,"15,5,10,11,2,4,9,3,6,14,13,12,8,7,1"
14827,commdev-image-keyboard-response,456,976143,learnblock2,945.1000000238419,img/planet12_left.png,12,Community 3,NA,TRUE,f,f,NA,NA,NA,2,6,"15,5,10,11,2,4,9,3,6,14,13,12,8,7,1"
14827,commdev-image-keyboard-response,457,977396,learnblock2,663.5,img/planet3_left.png,3,Community 2,NA,TRUE,f,f,NA,NA,NA,2,6,"15,5,10,11,2,4,9,3,6,14,13,12,8,7,1"
14827,commdev-image-keyboard-response,458,978648,learnblock2,674.6000000238419,img/planet14_right.png,14,Community 2,NA,TRUE,j,j,NA,NA,NA,2,6,"15,5,10,11,2,4,9,3,6,14,13,12,8,7,1"
14827,commdev-image-keyboard-response,459,979901,learnblock2,840.3000000119209,img/planet6_right.png,6,Community 2,NA,TRUE,j,j,NA,NA,NA,2,6,"15,5,10,11,2,4,9,3,6,14,13,12,8,7,1"
14827,commdev-image-keyboard-response,460,981154,learnblock2,753.8000000119209,img/planet14_right.png,14,Community 2,NA,TRUE,j,j,NA,NA,NA,2,6,"15,5,10,11,2,4,9,3,6,14,13,12,8,7,1"
14827,commdev-image-keyboard-response,461,982405,learnblock2,749,img/planet9_left.png,9,Community 2,NA,TRUE,f,f,NA,NA,NA,2,6,"15,5,10,11,2,4,9,3,6,14,13,12,8,7,1"
14827,commdev-image-keyboard-response,462,983657,learnblock2,558.8999999761581,img/planet3_left.png,3,Community 2,NA,TRUE,f,f,NA,NA,NA,2,6,"15,5,10,11,2,4,9,3,6,14,13,12,8,7,1"
14827,commdev-image-keyboard-response,463,984909,learnblock2,712.6999999880791,img/planet14_right.png,14,Community 2,NA,TRUE,j,j,NA,NA,NA,2,6,"15,5,10,11,2,4,9,3,6,14,13,12,8,7,1"
14827,commdev-image-keyboard-response,464,986162,learnblock2,711.0999999642372,img/planet3_left.png,3,Community 2,NA,TRUE,f,f,NA,NA,NA,2,6,"15,5,10,11,2,4,9,3,6,14,13,12,8,7,1"
14827,commdev-image-keyboard-response,465,987414,learnblock2,612.8000000119209,img/planet12_right.png,12,Community 3,NA,TRUE,j,j,NA,NA,NA,2,6,"15,5,10,11,2,4,9,3,6,14,13,12,8,7,1"
14827,commdev-image-keyboard-response,466,988666,learnblock2,631.5,img/planet3_right.png,3,Community 2,NA,TRUE,j,j,NA,NA,NA,2,6,"15,5,10,11,2,4,9,3,6,14,13,12,8,7,1"
14827,commdev-image-keyboard-response,467,989918,learnblock2,613.7999999523163,img/planet9_left.png,9,Community 2,NA,TRUE,f,f,NA,NA,NA,2,6,"15,5,10,11,2,4,9,3,6,14,13,12,8,7,1"
14827,commdev-image-keyboard-response,468,991171,learnblock2,508.30000001192093,img/planet6_right.png,6,Community 2,NA,TRUE,j,j,NA,NA,NA,2,6,"15,5,10,11,2,4,9,3,6,14,13,12,8,7,1"
14827,commdev-image-keyboard-response,469,992422,learnblock2,498.19999998807907,img/planet14_right.png,14,Community 2,NA,TRUE,j,j,NA,NA,NA,2,6,"15,5,10,11,2,4,9,3,6,14,13,12,8,7,1"
14827,commdev-image-keyboard-response,470,993674,learnblock2,581,img/planet4_right.png,4,Community 2,NA,TRUE,j,j,NA,NA,NA,2,6,"15,5,10,11,2,4,9,3,6,14,13,12,8,7,1"
14827,commdev-image-keyboard-response,471,994927,learnblock2,559.8000000119209,img/planet14_left.png,14,Community 2,NA,FALSE,j,f,NA,NA,NA,2,6,"15,5,10,11,2,4,9,3,6,14,13,12,8,7,1"
14827,commdev-image-keyboard-response,472,996180,learnblock2,437.69999998807907,img/planet6_right.png,6,Community 2,NA,TRUE,j,j,NA,NA,NA,2,6,"15,5,10,11,2,4,9,3,6,14,13,12,8,7,1"
14827,commdev-image-keyboard-response,473,997432,learnblock2,498.80000001192093,img/planet14_right.png,14,Community 2,NA,TRUE,j,j,NA,NA,NA,2,6,"15,5,10,11,2,4,9,3,6,14,13,12,8,7,1"
14827,commdev-image-keyboard-response,474,998685,learnblock2,493.69999998807907,img/planet9_left.png,9,Community 2,NA,TRUE,f,f,NA,NA,NA,2,6,"15,5,10,11,2,4,9,3,6,14,13,12,8,7,1"
14827,commdev-image-keyboard-response,475,999937,learnblock2,538.0999999642372,img/planet3_left.png,3,Community 2,NA,TRUE,f,f,NA,NA,NA,2,6,"15,5,10,11,2,4,9,3,6,14,13,12,8,7,1"
14827,commdev-image-keyboard-response,476,1001190,learnblock2,839.1000000238419,img/planet14_right.png,14,Community 2,NA,TRUE,j,j,NA,NA,NA,2,6,"15,5,10,11,2,4,9,3,6,14,13,12,8,7,1"
14827,commdev-image-keyboard-response,477,1002442,learnblock2,589.2999999523163,img/planet3_left.png,3,Community 2,NA,TRUE,f,f,NA,NA,NA,2,6,"15,5,10,11,2,4,9,3,6,14,13,12,8,7,1"
14827,commdev-image-keyboard-response,478,1003694,learnblock2,576.0999999642372,img/planet6_left.png,6,Community 2,NA,TRUE,f,f,NA,NA,NA,2,6,"15,5,10,11,2,4,9,3,6,14,13,12,8,7,1"
14827,commdev-image-keyboard-response,479,1004947,learnblock2,569.8999999761581,img/planet9_left.png,9,Community 2,NA,TRUE,f,f,NA,NA,NA,2,6,"15,5,10,11,2,4,9,3,6,14,13,12,8,7,1"
14827,commdev-image-keyboard-response,480,1006198,learnblock2,521,img/planet3_right.png,3,Community 2,NA,TRUE,j,j,NA,NA,NA,2,6,"15,5,10,11,2,4,9,3,6,14,13,12,8,7,1"
14827,commdev-image-keyboard-response,481,1007450,learnblock2,429.5999999642372,img/planet6_right.png,6,Community 2,NA,TRUE,j,j,NA,NA,NA,2,6,"15,5,10,11,2,4,9,3,6,14,13,12,8,7,1"
14827,commdev-image-keyboard-response,482,1008702,learnblock2,543.3999999761581,img/planet3_right.png,3,Community 2,NA,TRUE,j,j,NA,NA,NA,2,6,"15,5,10,11,2,4,9,3,6,14,13,12,8,7,1"
14827,commdev-image-keyboard-response,483,1009954,learnblock2,443.5,img/planet9_right.png,9,Community 2,NA,TRUE,j,j,NA,NA,NA,2,6,"15,5,10,11,2,4,9,3,6,14,13,12,8,7,1"
14827,commdev-image-keyboard-response,484,1011206,learnblock2,505.2000000476837,img/planet3_right.png,3,Community 2,NA,TRUE,j,j,NA,NA,NA,2,6,"15,5,10,11,2,4,9,3,6,14,13,12,8,7,1"
14827,commdev-image-keyboard-response,485,1012458,learnblock2,556.6999999880791,img/planet12_left.png,12,Community 3,NA,TRUE,f,f,NA,NA,NA,2,6,"15,5,10,11,2,4,9,3,6,14,13,12,8,7,1"
14827,commdev-image-keyboard-response,486,1013711,learnblock2,556,img/planet8_left.png,8,Community 3,NA,FALSE,j,f,NA,NA,NA,2,6,"15,5,10,11,2,4,9,3,6,14,13,12,8,7,1"
14827,commdev-image-keyboard-response,487,1014964,learnblock2,523.8000000119209,img/planet12_left.png,12,Community 3,NA,TRUE,f,f,NA,NA,NA,2,6,"15,5,10,11,2,4,9,3,6,14,13,12,8,7,1"
14827,commdev-image-keyboard-response,488,1016217,learnblock2,504.80000001192093,img/planet8_right.png,8,Community 3,NA,TRUE,j,j,NA,NA,NA,2,6,"15,5,10,11,2,4,9,3,6,14,13,12,8,7,1"
14827,commdev-image-keyboard-response,489,1017468,learnblock2,479.10000002384186,img/planet13_right.png,13,Community 3,NA,TRUE,j,j,NA,NA,NA,2,6,"15,5,10,11,2,4,9,3,6,14,13,12,8,7,1"
14827,commdev-image-keyboard-response,490,1018721,learnblock2,667.8999999761581,img/planet2_left.png,2,Community 1,NA,TRUE,f,f,NA,NA,NA,2,6,"15,5,10,11,2,4,9,3,6,14,13,12,8,7,1"
14827,commdev-image-keyboard-response,491,1019972,learnblock2,502.69999998807907,img/planet10_right.png,10,Community 1,NA,TRUE,j,j,NA,NA,NA,2,6,"15,5,10,11,2,4,9,3,6,14,13,12,8,7,1"
14827,commdev-image-keyboard-response,492,1021225,learnblock2,520.1000000238419,img/planet11_left.png,11,Community 1,NA,TRUE,f,f,NA,NA,NA,2,6,"15,5,10,11,2,4,9,3,6,14,13,12,8,7,1"
14827,commdev-image-keyboard-response,493,1022478,learnblock2,433,img/planet15_right.png,15,Community 1,NA,TRUE,j,j,NA,NA,NA,2,6,"15,5,10,11,2,4,9,3,6,14,13,12,8,7,1"
14827,commdev-image-keyboard-response,494,1023731,learnblock2,520.9000000357628,img/planet5_left.png,5,Community 1,NA,TRUE,f,f,NA,NA,NA,2,6,"15,5,10,11,2,4,9,3,6,14,13,12,8,7,1"
14827,commdev-image-keyboard-response,495,1024984,learnblock2,507.5,img/planet2_left.png,2,Community 1,NA,TRUE,f,f,NA,NA,NA,2,6,"15,5,10,11,2,4,9,3,6,14,13,12,8,7,1"
14827,commdev-image-keyboard-response,496,1026236,learnblock2,753.5,img/planet15_right.png,15,Community 1,NA,TRUE,j,j,NA,NA,NA,2,6,"15,5,10,11,2,4,9,3,6,14,13,12,8,7,1"
14827,commdev-image-keyboard-response,497,1027488,learnblock2,651.8999999761581,img/planet11_right.png,11,Community 1,NA,TRUE,j,j,NA,NA,NA,2,6,"15,5,10,11,2,4,9,3,6,14,13,12,8,7,1"
14827,commdev-image-keyboard-response,498,1028739,learnblock2,603.0999999642372,img/planet4_left.png,4,Community 2,NA,TRUE,f,f,NA,NA,NA,2,6,"15,5,10,11,2,4,9,3,6,14,13,12,8,7,1"
14827,commdev-image-keyboard-response,499,1029991,learnblock2,920.3000000119209,img/planet9_right.png,9,Community 2,NA,TRUE,j,j,NA,NA,NA,2,6,"15,5,10,11,2,4,9,3,6,14,13,12,8,7,1"
14827,commdev-image-keyboard-response,500,1031244,learnblock2,640.0999999642372,img/planet6_left.png,6,Community 2,NA,TRUE,f,f,NA,NA,NA,2,6,"15,5,10,11,2,4,9,3,6,14,13,12,8,7,1"
14827,commdev-image-keyboard-response,501,1032496,learnblock2,681.5,img/planet9_left.png,9,Community 2,NA,TRUE,f,f,NA,NA,NA,2,6,"15,5,10,11,2,4,9,3,6,14,13,12,8,7,1"
14827,commdev-image-keyboard-response,502,1033749,learnblock2,874.0999999642372,img/planet3_right.png,3,Community 2,NA,TRUE,j,j,NA,NA,NA,2,6,"15,5,10,11,2,4,9,3,6,14,13,12,8,7,1"
14827,commdev-image-keyboard-response,503,1035002,learnblock2,806.1999999880791,img/planet14_left.png,14,Community 2,NA,TRUE,f,f,NA,NA,NA,2,6,"15,5,10,11,2,4,9,3,6,14,13,12,8,7,1"
14827,commdev-image-keyboard-response,504,1036254,learnblock2,759.1999999880791,img/planet3_right.png,3,Community 2,NA,TRUE,j,j,NA,NA,NA,2,6,"15,5,10,11,2,4,9,3,6,14,13,12,8,7,1"
14827,commdev-image-keyboard-response,505,1037507,learnblock2,544.6000000238419,img/planet12_right.png,12,Community 3,NA,TRUE,j,j,NA,NA,NA,2,6,"15,5,10,11,2,4,9,3,6,14,13,12,8,7,1"
14827,commdev-image-keyboard-response,506,1038759,learnblock2,547.6000000238419,img/planet1_right.png,1,Community 3,NA,TRUE,j,j,NA,NA,NA,2,6,"15,5,10,11,2,4,9,3,6,14,13,12,8,7,1"
14827,commdev-image-keyboard-response,507,1040015,learnblock2,567.3000000119209,img/planet8_left.png,8,Community 3,NA,TRUE,f,f,NA,NA,NA,2,6,"15,5,10,11,2,4,9,3,6,14,13,12,8,7,1"
14827,commdev-image-keyboard-response,508,1041268,learnblock2,559.3000000119209,img/planet12_left.png,12,Community 3,NA,TRUE,f,f,NA,NA,NA,2,6,"15,5,10,11,2,4,9,3,6,14,13,12,8,7,1"
14827,commdev-image-keyboard-response,509,1042521,learnblock2,491.19999998807907,img/planet7_right.png,7,Community 3,NA,TRUE,j,j,NA,NA,NA,2,6,"15,5,10,11,2,4,9,3,6,14,13,12,8,7,1"
14827,commdev-image-keyboard-response,510,1043774,learnblock2,730.3000000119209,img/planet13_left.png,13,Community 3,NA,TRUE,f,f,NA,NA,NA,2,6,"15,5,10,11,2,4,9,3,6,14,13,12,8,7,1"
14827,commdev-image-keyboard-response,511,1045025,learnblock2,677.8000000119209,img/planet7_right.png,7,Community 3,NA,TRUE,j,j,NA,NA,NA,2,6,"15,5,10,11,2,4,9,3,6,14,13,12,8,7,1"
14827,commdev-image-keyboard-response,512,1046277,learnblock2,812,img/planet13_left.png,13,Community 3,NA,TRUE,f,f,NA,NA,NA,2,6,"15,5,10,11,2,4,9,3,6,14,13,12,8,7,1"
14827,commdev-image-keyboard-response,513,1047528,learnblock2,711.4000000357628,img/planet2_left.png,2,Community 1,NA,TRUE,f,f,NA,NA,NA,2,6,"15,5,10,11,2,4,9,3,6,14,13,12,8,7,1"
14827,commdev-image-keyboard-response,514,1048780,learnblock2,652.3999999761581,img/planet5_right.png,5,Community 1,NA,TRUE,j,j,NA,NA,NA,2,6,"15,5,10,11,2,4,9,3,6,14,13,12,8,7,1"
14827,commdev-image-keyboard-response,515,1050031,learnblock2,472.30000001192093,img/planet11_right.png,11,Community 1,NA,TRUE,j,j,NA,NA,NA,2,6,"15,5,10,11,2,4,9,3,6,14,13,12,8,7,1"
14827,commdev-image-keyboard-response,516,1051283,learnblock2,452.5,img/planet5_left.png,5,Community 1,NA,FALSE,j,f,NA,NA,NA,2,6,"15,5,10,11,2,4,9,3,6,14,13,12,8,7,1"
14827,commdev-image-keyboard-response,517,1052536,learnblock2,528,img/planet2_right.png,2,Community 1,NA,TRUE,j,j,NA,NA,NA,2,6,"15,5,10,11,2,4,9,3,6,14,13,12,8,7,1"
14827,commdev-image-keyboard-response,518,1053789,learnblock2,507.80000001192093,img/planet13_right.png,13,Community 3,NA,TRUE,j,j,NA,NA,NA,2,6,"15,5,10,11,2,4,9,3,6,14,13,12,8,7,1"
14827,commdev-image-keyboard-response,519,1055042,learnblock2,670.1000000238419,img/planet7_right.png,7,Community 3,NA,TRUE,j,j,NA,NA,NA,2,6,"15,5,10,11,2,4,9,3,6,14,13,12,8,7,1"
14827,commdev-image-keyboard-response,520,1056294,learnblock2,668,img/planet12_left.png,12,Community 3,NA,TRUE,f,f,NA,NA,NA,2,6,"15,5,10,11,2,4,9,3,6,14,13,12,8,7,1"
14827,commdev-image-keyboard-response,521,1057545,learnblock2,592.1999999880791,img/planet3_right.png,3,Community 2,NA,TRUE,j,j,NA,NA,NA,2,6,"15,5,10,11,2,4,9,3,6,14,13,12,8,7,1"
14827,commdev-image-keyboard-response,522,1058798,learnblock2,486.5,img/planet6_right.png,6,Community 2,NA,TRUE,j,j,NA,NA,NA,2,6,"15,5,10,11,2,4,9,3,6,14,13,12,8,7,1"
14827,commdev-image-keyboard-response,523,1060051,learnblock2,648.6999999880791,img/planet4_left.png,4,Community 2,NA,TRUE,f,f,NA,NA,NA,2,6,"15,5,10,11,2,4,9,3,6,14,13,12,8,7,1"
14827,commdev-image-keyboard-response,524,1061303,learnblock2,625.8999999761581,img/planet11_right.png,11,Community 1,NA,TRUE,j,j,NA,NA,NA,2,6,"15,5,10,11,2,4,9,3,6,14,13,12,8,7,1"
14827,commdev-image-keyboard-response,525,1062555,learnblock2,1039.699999988079,img/planet10_right.png,10,Community 1,NA,TRUE,j,j,NA,NA,NA,2,6,"15,5,10,11,2,4,9,3,6,14,13,12,8,7,1"
14827,commdev-image-keyboard-response,526,1063807,learnblock2,817.0999999642372,img/planet11_right.png,11,Community 1,NA,TRUE,j,j,NA,NA,NA,2,6,"15,5,10,11,2,4,9,3,6,14,13,12,8,7,1"
14827,commdev-image-keyboard-response,527,1065059,learnblock2,611.9000000357628,img/planet10_right.png,10,Community 1,NA,TRUE,j,j,NA,NA,NA,2,6,"15,5,10,11,2,4,9,3,6,14,13,12,8,7,1"
14827,commdev-image-keyboard-response,528,1066312,learnblock2,503.39999997615814,img/planet15_right.png,15,Community 1,NA,TRUE,j,j,NA,NA,NA,2,6,"15,5,10,11,2,4,9,3,6,14,13,12,8,7,1"
14827,commdev-image-keyboard-response,529,1067564,learnblock2,560.3000000119209,img/planet10_right.png,10,Community 1,NA,TRUE,j,j,NA,NA,NA,2,6,"15,5,10,11,2,4,9,3,6,14,13,12,8,7,1"
14827,commdev-image-keyboard-response,530,1068817,learnblock2,534.8999999761581,img/planet15_right.png,15,Community 1,NA,TRUE,j,j,NA,NA,NA,2,6,"15,5,10,11,2,4,9,3,6,14,13,12,8,7,1"
14827,commdev-image-keyboard-response,531,1070069,learnblock2,412.5,img/planet2_left.png,2,Community 1,NA,FALSE,j,f,NA,NA,NA,2,6,"15,5,10,11,2,4,9,3,6,14,13,12,8,7,1"
14827,commdev-image-keyboard-response,532,1071322,learnblock2,633.5999999642372,img/planet5_left.png,5,Community 1,NA,TRUE,f,f,NA,NA,NA,2,6,"15,5,10,11,2,4,9,3,6,14,13,12,8,7,1"
14827,commdev-image-keyboard-response,533,1072574,learnblock2,461.9000000357628,img/planet2_right.png,2,Community 1,NA,TRUE,j,j,NA,NA,NA,2,6,"15,5,10,11,2,4,9,3,6,14,13,12,8,7,1"
14827,commdev-image-keyboard-response,534,1073827,learnblock2,486.2999999523163,img/planet13_right.png,13,Community 3,NA,TRUE,j,j,NA,NA,NA,2,6,"15,5,10,11,2,4,9,3,6,14,13,12,8,7,1"
14827,commdev-image-keyboard-response,535,1075078,learnblock2,429.69999998807907,img/planet2_right.png,2,Community 1,NA,TRUE,j,j,NA,NA,NA,2,6,"15,5,10,11,2,4,9,3,6,14,13,12,8,7,1"
14827,commdev-image-keyboard-response,536,1076330,learnblock2,411.19999998807907,img/planet10_right.png,10,Community 1,NA,TRUE,j,j,NA,NA,NA,2,6,"15,5,10,11,2,4,9,3,6,14,13,12,8,7,1"
14827,commdev-image-keyboard-response,537,1077583,learnblock2,516.6000000238419,img/planet15_right.png,15,Community 1,NA,TRUE,j,j,NA,NA,NA,2,6,"15,5,10,11,2,4,9,3,6,14,13,12,8,7,1"
14827,commdev-image-keyboard-response,538,1078835,learnblock2,439.10000002384186,img/planet11_right.png,11,Community 1,NA,TRUE,j,j,NA,NA,NA,2,6,"15,5,10,11,2,4,9,3,6,14,13,12,8,7,1"
14827,commdev-image-keyboard-response,539,1080086,learnblock2,612.8000000119209,img/planet5_left.png,5,Community 1,NA,TRUE,f,f,NA,NA,NA,2,6,"15,5,10,11,2,4,9,3,6,14,13,12,8,7,1"
14827,commdev-image-keyboard-response,540,1081337,learnblock2,553,img/planet15_right.png,15,Community 1,NA,TRUE,j,j,NA,NA,NA,2,6,"15,5,10,11,2,4,9,3,6,14,13,12,8,7,1"
14827,commdev-image-keyboard-response,541,1082589,learnblock2,662.6999999880791,img/planet11_right.png,11,Community 1,NA,TRUE,j,j,NA,NA,NA,2,6,"15,5,10,11,2,4,9,3,6,14,13,12,8,7,1"
14827,commdev-image-keyboard-response,542,1083841,learnblock2,812.7000000476837,img/planet15_left.png,15,Community 1,NA,TRUE,f,f,NA,NA,NA,2,6,"15,5,10,11,2,4,9,3,6,14,13,12,8,7,1"
14827,commdev-image-keyboard-response,543,1085094,learnblock2,675.6000000238419,img/planet11_right.png,11,Community 1,NA,TRUE,j,j,NA,NA,NA,2,6,"15,5,10,11,2,4,9,3,6,14,13,12,8,7,1"
14827,commdev-image-keyboard-response,544,1086346,learnblock2,604.6000000238419,img/planet10_right.png,10,Community 1,NA,TRUE,j,j,NA,NA,NA,2,6,"15,5,10,11,2,4,9,3,6,14,13,12,8,7,1"
14827,commdev-image-keyboard-response,545,1087598,learnblock2,534.4000000357628,img/planet11_left.png,11,Community 1,NA,TRUE,f,f,NA,NA,NA,2,6,"15,5,10,11,2,4,9,3,6,14,13,12,8,7,1"
14827,commdev-image-keyboard-response,546,1088850,learnblock2,500.2000000476837,img/planet10_left.png,10,Community 1,NA,TRUE,f,f,NA,NA,NA,2,6,"15,5,10,11,2,4,9,3,6,14,13,12,8,7,1"
14827,commdev-image-keyboard-response,547,1090101,learnblock2,null,img/planet11_right.png,11,Community 1,NA,FALSE,null,j,NA,NA,NA,2,6,"15,5,10,11,2,4,9,3,6,14,13,12,8,7,1"
14827,commdev-image-keyboard-response,548,1091353,learnblock2,247.4000000357628,img/planet5_left.png,5,Community 1,NA,FALSE,j,f,NA,NA,NA,2,6,"15,5,10,11,2,4,9,3,6,14,13,12,8,7,1"
14827,commdev-image-keyboard-response,549,1092604,learnblock2,477.7000000476837,img/planet10_left.png,10,Community 1,NA,TRUE,f,f,NA,NA,NA,2,6,"15,5,10,11,2,4,9,3,6,14,13,12,8,7,1"
14827,commdev-image-keyboard-response,550,1093855,learnblock2,398.30000001192093,img/planet11_right.png,11,Community 1,NA,FALSE,f,j,NA,NA,NA,2,6,"15,5,10,11,2,4,9,3,6,14,13,12,8,7,1"
14827,commdev-image-keyboard-response,551,1095107,learnblock2,445.69999998807907,img/planet4_right.png,4,Community 2,NA,TRUE,j,j,NA,NA,NA,2,6,"15,5,10,11,2,4,9,3,6,14,13,12,8,7,1"
14827,commdev-image-keyboard-response,552,1096358,learnblock2,422.5,img/planet9_right.png,9,Community 2,NA,TRUE,j,j,NA,NA,NA,2,6,"15,5,10,11,2,4,9,3,6,14,13,12,8,7,1"
14827,commdev-image-keyboard-response,553,1097611,learnblock2,408.69999998807907,img/planet6_right.png,6,Community 2,NA,TRUE,j,j,NA,NA,NA,2,6,"15,5,10,11,2,4,9,3,6,14,13,12,8,7,1"
14827,commdev-image-keyboard-response,554,1098863,learnblock2,500.30000001192093,img/planet9_left.png,9,Community 2,NA,TRUE,f,f,NA,NA,NA,2,6,"15,5,10,11,2,4,9,3,6,14,13,12,8,7,1"
14827,commdev-image-keyboard-response,555,1100116,learnblock2,486.7999999523163,img/planet3_left.png,3,Community 2,NA,TRUE,f,f,NA,NA,NA,2,6,"15,5,10,11,2,4,9,3,6,14,13,12,8,7,1"
14827,commdev-image-keyboard-response,556,1101367,learnblock2,393.69999998807907,img/planet12_left.png,12,Community 3,NA,TRUE,f,f,NA,NA,NA,2,6,"15,5,10,11,2,4,9,3,6,14,13,12,8,7,1"
14827,commdev-image-keyboard-response,557,1102619,learnblock2,455.69999998807907,img/planet1_left.png,1,Community 3,NA,TRUE,f,f,NA,NA,NA,2,6,"15,5,10,11,2,4,9,3,6,14,13,12,8,7,1"
14827,commdev-image-keyboard-response,558,1103872,learnblock2,473.39999997615814,img/planet12_left.png,12,Community 3,NA,TRUE,f,f,NA,NA,NA,2,6,"15,5,10,11,2,4,9,3,6,14,13,12,8,7,1"
14827,commdev-image-keyboard-response,559,1105123,learnblock2,613.5,img/planet8_left.png,8,Community 3,NA,TRUE,f,f,NA,NA,NA,2,6,"15,5,10,11,2,4,9,3,6,14,13,12,8,7,1"
14827,commdev-image-keyboard-response,560,1106376,learnblock2,675.5,img/planet13_right.png,13,Community 3,NA,TRUE,j,j,NA,NA,NA,2,6,"15,5,10,11,2,4,9,3,6,14,13,12,8,7,1"
14827,commdev-image-keyboard-response,561,1107629,learnblock2,492.5,img/planet7_right.png,7,Community 3,NA,TRUE,j,j,NA,NA,NA,2,6,"15,5,10,11,2,4,9,3,6,14,13,12,8,7,1"
14827,commdev-image-keyboard-response,562,1108881,learnblock2,446,img/planet8_right.png,8,Community 3,NA,TRUE,j,j,NA,NA,NA,2,6,"15,5,10,11,2,4,9,3,6,14,13,12,8,7,1"
14827,commdev-image-keyboard-response,563,1110133,learnblock2,835.8000000119209,img/planet1_left.png,1,Community 3,NA,TRUE,f,f,NA,NA,NA,2,6,"15,5,10,11,2,4,9,3,6,14,13,12,8,7,1"
14827,commdev-image-keyboard-response,564,1111384,learnblock2,473,img/planet13_right.png,13,Community 3,NA,TRUE,j,j,NA,NA,NA,2,6,"15,5,10,11,2,4,9,3,6,14,13,12,8,7,1"
14827,commdev-image-keyboard-response,565,1112637,learnblock2,680.6000000238419,img/planet7_left.png,7,Community 3,NA,TRUE,f,f,NA,NA,NA,2,6,"15,5,10,11,2,4,9,3,6,14,13,12,8,7,1"
14827,commdev-image-keyboard-response,566,1113889,learnblock2,563.1999999880791,img/planet1_left.png,1,Community 3,NA,TRUE,f,f,NA,NA,NA,2,6,"15,5,10,11,2,4,9,3,6,14,13,12,8,7,1"
14827,commdev-image-keyboard-response,567,1115142,learnblock2,535.1999999880791,img/planet12_left.png,12,Community 3,NA,TRUE,f,f,NA,NA,NA,2,6,"15,5,10,11,2,4,9,3,6,14,13,12,8,7,1"
14827,commdev-image-keyboard-response,568,1116394,learnblock2,509.19999998807907,img/planet3_left.png,3,Community 2,NA,TRUE,f,f,NA,NA,NA,2,6,"15,5,10,11,2,4,9,3,6,14,13,12,8,7,1"
14827,commdev-image-keyboard-response,569,1117646,learnblock2,539.7000000476837,img/planet6_right.png,6,Community 2,NA,TRUE,j,j,NA,NA,NA,2,6,"15,5,10,11,2,4,9,3,6,14,13,12,8,7,1"
14827,commdev-image-keyboard-response,570,1118898,learnblock2,502.39999997615814,img/planet3_left.png,3,Community 2,NA,TRUE,f,f,NA,NA,NA,2,6,"15,5,10,11,2,4,9,3,6,14,13,12,8,7,1"
14827,commdev-image-keyboard-response,571,1120150,learnblock2,465.19999998807907,img/planet14_right.png,14,Community 2,NA,TRUE,j,j,NA,NA,NA,2,6,"15,5,10,11,2,4,9,3,6,14,13,12,8,7,1"
14827,commdev-image-keyboard-response,572,1121402,learnblock2,469,img/planet4_right.png,4,Community 2,NA,TRUE,j,j,NA,NA,NA,2,6,"15,5,10,11,2,4,9,3,6,14,13,12,8,7,1"
14827,commdev-image-keyboard-response,573,1122654,learnblock2,464.30000001192093,img/planet14_right.png,14,Community 2,NA,TRUE,j,j,NA,NA,NA,2,6,"15,5,10,11,2,4,9,3,6,14,13,12,8,7,1"
14827,commdev-image-keyboard-response,574,1123907,learnblock2,606.3999999761581,img/planet9_left.png,9,Community 2,NA,TRUE,f,f,NA,NA,NA,2,6,"15,5,10,11,2,4,9,3,6,14,13,12,8,7,1"
14827,commdev-image-keyboard-response,575,1125159,learnblock2,576.7000000476837,img/planet14_left.png,14,Community 2,NA,TRUE,f,f,NA,NA,NA,2,6,"15,5,10,11,2,4,9,3,6,14,13,12,8,7,1"
14827,commdev-image-keyboard-response,576,1126410,learnblock2,575.1999999880791,img/planet4_right.png,4,Community 2,NA,TRUE,j,j,NA,NA,NA,2,6,"15,5,10,11,2,4,9,3,6,14,13,12,8,7,1"
14827,commdev-image-keyboard-response,577,1127662,learnblock2,503.19999998807907,img/planet11_right.png,11,Community 1,NA,TRUE,j,j,NA,NA,NA,2,6,"15,5,10,11,2,4,9,3,6,14,13,12,8,7,1"
14827,commdev-image-keyboard-response,578,1128914,learnblock2,497.60000002384186,img/planet4_right.png,4,Community 2,NA,TRUE,j,j,NA,NA,NA,2,6,"15,5,10,11,2,4,9,3,6,14,13,12,8,7,1"
14827,commdev-image-keyboard-response,579,1130165,learnblock2,467.69999998807907,img/planet9_left.png,9,Community 2,NA,TRUE,f,f,NA,NA,NA,2,6,"15,5,10,11,2,4,9,3,6,14,13,12,8,7,1"
14827,commdev-image-keyboard-response,580,1131417,learnblock2,401.10000002384186,img/planet3_right.png,3,Community 2,NA,TRUE,j,j,NA,NA,NA,2,6,"15,5,10,11,2,4,9,3,6,14,13,12,8,7,1"
14827,commdev-image-keyboard-response,581,1132669,learnblock2,476.60000002384186,img/planet12_left.png,12,Community 3,NA,TRUE,f,f,NA,NA,NA,2,6,"15,5,10,11,2,4,9,3,6,14,13,12,8,7,1"
14827,commdev-image-keyboard-response,582,1133922,learnblock2,438.39999997615814,img/planet8_left.png,8,Community 3,NA,FALSE,j,f,NA,NA,NA,2,6,"15,5,10,11,2,4,9,3,6,14,13,12,8,7,1"
14827,commdev-image-keyboard-response,583,1135174,learnblock2,500.5999999642372,img/planet7_left.png,7,Community 3,NA,TRUE,f,f,NA,NA,NA,2,6,"15,5,10,11,2,4,9,3,6,14,13,12,8,7,1"
14827,commdev-image-keyboard-response,584,1136426,learnblock2,429.39999997615814,img/planet1_left.png,1,Community 3,NA,TRUE,f,f,NA,NA,NA,2,6,"15,5,10,11,2,4,9,3,6,14,13,12,8,7,1"
14827,commdev-image-keyboard-response,585,1137677,learnblock2,468.69999998807907,img/planet8_left.png,8,Community 3,NA,TRUE,f,f,NA,NA,NA,2,6,"15,5,10,11,2,4,9,3,6,14,13,12,8,7,1"
