subject_id,trial_type,trial_index,time_elapsed,block,rt,stimulus,planet,community,response,correct,key_press,learning_correct_response,parse,init_locations,final_locations,browser_interactions,num_comp,planet_map
14812,commdev-instructions,7,30382,NA,3418,"<p>In this game, you are a scientist on board a space shuttle. </p><p> On each mission, you will visit planets all across the universe.</p><img src=""img/controlroom.jpg"" width=300vw>",NA,NA,NA,NA,NA,NA,NA,NA,NA,1,6,"2,1,5,13,10,8,12,11,4,15,3,9,6,7,14"
14812,commdev-instructions,8,34726,NA,2257.7999999523163,"<p>Here are a few planets you might see:</p><img src=""img/practice1.png"" width=200vw><img src=""img/practice2.png"" width=200vw><img src=""img/practice3.png"" width=200vw>",NA,NA,NA,NA,NA,NA,NA,NA,NA,1,6,"2,1,5,13,10,8,12,11,4,15,3,9,6,7,14"
14812,commdev-instructions,9,44330,NA,2188.2999999523163,"<p>Your job as a scientist is to record which direction the winds are moving on each planet.</p><p>There are two types of wind directions:</p><img src=""img/practice1_left.png"" width=200vw><img src=""img/practice1_right.png"" width=200vw>",NA,NA,NA,NA,NA,NA,NA,NA,NA,1,6,"2,1,5,13,10,8,12,11,4,15,3,9,6,7,14"
14812,commdev-instructions,10,51198,NA,1973.7000000476837,"<p>If the winds are moving this way, press the letter <strong>F</strong> on the keyboard as fast as you can.</p><img src=""img/leftwind.png"" width=250vw>",NA,NA,NA,NA,NA,NA,NA,NA,NA,1,6,"2,1,5,13,10,8,12,11,4,15,3,9,6,7,14"
14812,commdev-instructions,11,57699,NA,1996.8999999761581,"<p>If the winds are moving this way, press the letter <strong>J</strong> on the keyboard as fast as you can.</p><img src=""img/rightwind.png"" width=350vw>",NA,NA,NA,NA,NA,NA,NA,NA,NA,1,6,"2,1,5,13,10,8,12,11,4,15,3,9,6,7,14"
14812,commdev-instructions,12,63823,NA,1689,<p>You will have 1 second to respond. Try to respond before the time runs out!,NA,NA,NA,NA,NA,NA,NA,NA,NA,1,6,"2,1,5,13,10,8,12,11,4,15,3,9,6,7,14"
14812,commdev-instructions,13,72362,NA,3082.5,<p>The planets you will visit will look different from each other.</p><p>You should respond <strong>only</strong> based on wind direction.,NA,NA,NA,NA,NA,NA,NA,NA,NA,1,6,"2,1,5,13,10,8,12,11,4,15,3,9,6,7,14"
14812,commdev-instructions,14,79303,NA,1765.5,"<p> Ready to start the practice round? </p><p> Remember, press <strong>F</strong> or <strong>J</strong> depending on the wind direction.<br><img src=""img/categorize_planet_example.png""",NA,NA,NA,NA,NA,NA,NA,NA,NA,1,6,"2,1,5,13,10,8,12,11,4,15,3,9,6,7,14"
14812,commdev-instructions,26,141583,NA,4005.100000023842,"<p>Great, now try a short practice mission. </p><p> This time, you will have 1 second to respond and you won't know whether you pressed the right or wrong key for each planet.</p>",NA,NA,NA,NA,NA,NA,NA,NA,NA,1,6,"2,1,5,13,10,8,12,11,4,15,3,9,6,7,14"
14812,commdev-image-keyboard-response,27,142957,practice,915.7999999523163,img/practice2_right.png,NA,Number not found in mappings,NA,TRUE,j,j,NA,NA,NA,1,6,"2,1,5,13,10,8,12,11,4,15,3,9,6,7,14"
14812,commdev-image-keyboard-response,28,144220,practice,null,img/practice1_left.png,NA,Number not found in mappings,NA,FALSE,null,f,NA,NA,NA,1,6,"2,1,5,13,10,8,12,11,4,15,3,9,6,7,14"
14812,commdev-image-keyboard-response,29,145478,practice,177,img/practice2_right.png,NA,Number not found in mappings,NA,FALSE,f,j,NA,NA,NA,1,6,"2,1,5,13,10,8,12,11,4,15,3,9,6,7,14"
14812,commdev-image-keyboard-response,30,146745,practice,60,img/practice1_right.png,NA,Number not found in mappings,NA,TRUE,j,j,NA,NA,NA,1,6,"2,1,5,13,10,8,12,11,4,15,3,9,6,7,14"
14812,commdev-image-keyboard-response,31,148011,practice,1033.1999999284744,img/practice2_left.png,NA,Number not found in mappings,NA,TRUE,f,f,NA,NA,NA,1,6,"2,1,5,13,10,8,12,11,4,15,3,9,6,7,14"
14812,commdev-image-keyboard-response,32,149276,practice,945.8999999761581,img/practice1_left.png,NA,Number not found in mappings,NA,TRUE,f,f,NA,NA,NA,1,6,"2,1,5,13,10,8,12,11,4,15,3,9,6,7,14"
14812,commdev-image-keyboard-response,33,150544,practice,967.3999999761581,img/practice3_left.png,NA,Number not found in mappings,NA,TRUE,f,f,NA,NA,NA,1,6,"2,1,5,13,10,8,12,11,4,15,3,9,6,7,14"
14812,commdev-image-keyboard-response,34,151813,practice,1230.5,img/practice2_left.png,NA,Number not found in mappings,NA,TRUE,f,f,NA,NA,NA,1,6,"2,1,5,13,10,8,12,11,4,15,3,9,6,7,14"
14812,commdev-instructions,35,169587,NA,8216.700000047684,"<p>Great job with the practice round.</p><p>During real missions, you won't know whether you pressed the right or wrong key for each planet.</p><p>But between missions, we will tell you how you did overall.</p>",NA,NA,NA,NA,NA,NA,NA,NA,NA,1,6,"2,1,5,13,10,8,12,11,4,15,3,9,6,7,14"
14812,commdev-instructions,36,180336,NA,2487.2999999523163,<p>Try your best! You will be paid a bonus based on how many correct responses you make!</p><p>Responses that are too slow will not count toward your bonus.</p>,NA,NA,NA,NA,NA,NA,NA,NA,NA,1,6,"2,1,5,13,10,8,12,11,4,15,3,9,6,7,14"
14812,commdev-instructions,37,188329,NA,1778.8999999761581,"<p>You are almost ready to start the real game.</p><p> First, we are going to ask you some questions about how the game works.</p>",NA,NA,NA,NA,NA,NA,NA,NA,NA,1,6,"2,1,5,13,10,8,12,11,4,15,3,9,6,7,14"
14812,commdev-instructions,46,283288,NA,2540.7000000476837,"<p> Nice work! It is now time to start the real game.<p></p>You will go on two missions to record wind directions of different planets.<p></p>Each one will take about 5 minutes. You will get to take a break between missions.<p><p> Remember, press <strong>F</strong> or <strong>J</strong> depending on the wind direction. Good luck!<br><img src=""img/categorize_planet_example.png""",NA,NA,NA,NA,NA,NA,NA,NA,NA,1,6,"2,1,5,13,10,8,12,11,4,15,3,9,6,7,14"
14812,commdev-image-keyboard-response,48,287649,learnblock1,8.599999904632568,img/planet9_left.png,9,Community 3,NA,TRUE,f,f,NA,NA,NA,1,6,"2,1,5,13,10,8,12,11,4,15,3,9,6,7,14"
14812,commdev-image-keyboard-response,49,288911,learnblock1,null,img/planet11_left.png,11,Community 2,NA,FALSE,null,f,NA,NA,NA,1,6,"2,1,5,13,10,8,12,11,4,15,3,9,6,7,14"
14812,commdev-image-keyboard-response,50,290174,learnblock1,6.5,img/planet15_left.png,15,Community 2,NA,TRUE,f,f,NA,NA,NA,1,6,"2,1,5,13,10,8,12,11,4,15,3,9,6,7,14"
14812,commdev-image-keyboard-response,51,291443,learnblock1,1014,img/planet4_left.png,4,Community 2,NA,TRUE,f,f,NA,NA,NA,1,6,"2,1,5,13,10,8,12,11,4,15,3,9,6,7,14"
14812,commdev-image-keyboard-response,52,292702,learnblock1,900.6999999284744,img/planet12_left.png,12,Community 2,NA,TRUE,f,f,NA,NA,NA,1,6,"2,1,5,13,10,8,12,11,4,15,3,9,6,7,14"
14812,commdev-image-keyboard-response,53,293960,learnblock1,800,img/planet15_left.png,15,Community 2,NA,TRUE,f,f,NA,NA,NA,1,6,"2,1,5,13,10,8,12,11,4,15,3,9,6,7,14"
14812,commdev-image-keyboard-response,54,295219,learnblock1,1166.8999999761581,img/planet12_left.png,12,Community 2,NA,TRUE,f,f,NA,NA,NA,1,6,"2,1,5,13,10,8,12,11,4,15,3,9,6,7,14"
14812,commdev-image-keyboard-response,55,296479,learnblock1,null,img/planet4_right.png,4,Community 2,NA,FALSE,null,j,NA,NA,NA,1,6,"2,1,5,13,10,8,12,11,4,15,3,9,6,7,14"
14812,commdev-image-keyboard-response,56,297737,learnblock1,125.20000004768372,img/planet11_right.png,11,Community 2,NA,TRUE,j,j,NA,NA,NA,1,6,"2,1,5,13,10,8,12,11,4,15,3,9,6,7,14"
14812,commdev-image-keyboard-response,57,298996,learnblock1,840.7000000476837,img/planet15_left.png,15,Community 2,NA,TRUE,f,f,NA,NA,NA,1,6,"2,1,5,13,10,8,12,11,4,15,3,9,6,7,14"
14812,commdev-image-keyboard-response,58,300259,learnblock1,979.4000000953674,img/planet4_left.png,4,Community 2,NA,TRUE,f,f,NA,NA,NA,1,6,"2,1,5,13,10,8,12,11,4,15,3,9,6,7,14"
14812,commdev-image-keyboard-response,59,301517,learnblock1,1198.3000000715256,img/planet11_right.png,11,Community 2,NA,TRUE,j,j,NA,NA,NA,1,6,"2,1,5,13,10,8,12,11,4,15,3,9,6,7,14"
14812,commdev-image-keyboard-response,60,302781,learnblock1,1043.3999999761581,img/planet15_right.png,15,Community 2,NA,TRUE,j,j,NA,NA,NA,1,6,"2,1,5,13,10,8,12,11,4,15,3,9,6,7,14"
14812,commdev-image-keyboard-response,61,304037,learnblock1,1135.7999999523163,img/planet12_right.png,12,Community 2,NA,TRUE,j,j,NA,NA,NA,1,6,"2,1,5,13,10,8,12,11,4,15,3,9,6,7,14"
14812,commdev-image-keyboard-response,62,305300,learnblock1,null,img/planet8_right.png,8,Community 2,NA,FALSE,null,j,NA,NA,NA,1,6,"2,1,5,13,10,8,12,11,4,15,3,9,6,7,14"
14812,commdev-image-keyboard-response,63,306558,learnblock1,18.5,img/planet12_left.png,12,Community 2,NA,FALSE,j,f,NA,NA,NA,1,6,"2,1,5,13,10,8,12,11,4,15,3,9,6,7,14"
14812,commdev-image-keyboard-response,64,307817,learnblock1,969.3999999761581,img/planet8_left.png,8,Community 2,NA,TRUE,f,f,NA,NA,NA,1,6,"2,1,5,13,10,8,12,11,4,15,3,9,6,7,14"
14812,commdev-image-keyboard-response,65,309084,learnblock1,935.8999999761581,img/planet12_right.png,12,Community 2,NA,TRUE,j,j,NA,NA,NA,1,6,"2,1,5,13,10,8,12,11,4,15,3,9,6,7,14"
14812,commdev-image-keyboard-response,66,310350,learnblock1,992.7000000476837,img/planet4_right.png,4,Community 2,NA,TRUE,j,j,NA,NA,NA,1,6,"2,1,5,13,10,8,12,11,4,15,3,9,6,7,14"
14812,commdev-image-keyboard-response,67,311612,learnblock1,890.7999999523163,img/planet15_right.png,15,Community 2,NA,TRUE,j,j,NA,NA,NA,1,6,"2,1,5,13,10,8,12,11,4,15,3,9,6,7,14"
14812,commdev-image-keyboard-response,68,312876,learnblock1,null,img/planet12_right.png,12,Community 2,NA,FALSE,null,j,NA,NA,NA,1,6,"2,1,5,13,10,8,12,11,4,15,3,9,6,7,14"
14812,commdev-image-keyboard-response,69,314139,learnblock1,null,img/planet11_left.png,11,Community 2,NA,FALSE,null,f,NA,NA,NA,1,6,"2,1,5,13,10,8,12,11,4,15,3,9,6,7,14"
14812,commdev-image-keyboard-response,70,315395,learnblock1,1070,img/planet9_left.png,9,Community 3,NA,TRUE,f,f,NA,NA,NA,1,6,"2,1,5,13,10,8,12,11,4,15,3,9,6,7,14"
14812,commdev-image-keyboard-response,71,316662,learnblock1,null,img/planet6_left.png,6,Community 3,NA,FALSE,null,f,NA,NA,NA,1,6,"2,1,5,13,10,8,12,11,4,15,3,9,6,7,14"
14812,commdev-image-keyboard-response,72,317931,learnblock1,null,img/planet7_right.png,7,Community 3,NA,FALSE,null,j,NA,NA,NA,1,6,"2,1,5,13,10,8,12,11,4,15,3,9,6,7,14"
14812,commdev-image-keyboard-response,73,319189,learnblock1,276.8000000715256,img/planet3_left.png,3,Community 3,NA,FALSE,j,f,NA,NA,NA,1,6,"2,1,5,13,10,8,12,11,4,15,3,9,6,7,14"
14812,commdev-image-keyboard-response,74,320450,learnblock1,null,img/planet14_left.png,14,Community 3,NA,FALSE,null,f,NA,NA,NA,1,6,"2,1,5,13,10,8,12,11,4,15,3,9,6,7,14"
14812,commdev-image-keyboard-response,75,321718,learnblock1,131.89999997615814,img/planet7_left.png,7,Community 3,NA,TRUE,f,f,NA,NA,NA,1,6,"2,1,5,13,10,8,12,11,4,15,3,9,6,7,14"
14812,commdev-image-keyboard-response,76,322974,learnblock1,null,img/planet3_left.png,3,Community 3,NA,FALSE,null,f,NA,NA,NA,1,6,"2,1,5,13,10,8,12,11,4,15,3,9,6,7,14"
14812,commdev-image-keyboard-response,77,324248,learnblock1,null,img/planet14_left.png,14,Community 3,NA,FALSE,null,f,NA,NA,NA,1,6,"2,1,5,13,10,8,12,11,4,15,3,9,6,7,14"
14812,commdev-image-keyboard-response,78,325503,learnblock1,1169.0999999046326,img/planet3_right.png,3,Community 3,NA,FALSE,f,j,NA,NA,NA,1,6,"2,1,5,13,10,8,12,11,4,15,3,9,6,7,14"
14812,commdev-image-keyboard-response,79,326757,learnblock1,251.5,img/planet14_right.png,14,Community 3,NA,TRUE,j,j,NA,NA,NA,1,6,"2,1,5,13,10,8,12,11,4,15,3,9,6,7,14"
14812,commdev-image-keyboard-response,80,328019,learnblock1,394.5,img/planet6_left.png,6,Community 3,NA,FALSE,j,f,NA,NA,NA,1,6,"2,1,5,13,10,8,12,11,4,15,3,9,6,7,14"
14812,commdev-image-keyboard-response,81,329276,learnblock1,1038.7000000476837,img/planet3_right.png,3,Community 3,NA,TRUE,j,j,NA,NA,NA,1,6,"2,1,5,13,10,8,12,11,4,15,3,9,6,7,14"
14812,commdev-image-keyboard-response,82,330538,learnblock1,816.6000000238419,img/planet10_left.png,10,Community 1,NA,TRUE,f,f,NA,NA,NA,1,6,"2,1,5,13,10,8,12,11,4,15,3,9,6,7,14"
14812,commdev-image-keyboard-response,83,331800,learnblock1,994.6000000238419,img/planet1_left.png,1,Community 1,NA,TRUE,f,f,NA,NA,NA,1,6,"2,1,5,13,10,8,12,11,4,15,3,9,6,7,14"
14812,commdev-image-keyboard-response,84,333055,learnblock1,994.6000000238419,img/planet10_right.png,10,Community 1,NA,TRUE,j,j,NA,NA,NA,1,6,"2,1,5,13,10,8,12,11,4,15,3,9,6,7,14"
14812,commdev-image-keyboard-response,85,334309,learnblock1,977.1000000238419,img/planet1_right.png,1,Community 1,NA,TRUE,j,j,NA,NA,NA,1,6,"2,1,5,13,10,8,12,11,4,15,3,9,6,7,14"
14812,commdev-image-keyboard-response,86,335573,learnblock1,898.5,img/planet13_right.png,13,Community 1,NA,TRUE,j,j,NA,NA,NA,1,6,"2,1,5,13,10,8,12,11,4,15,3,9,6,7,14"
14812,commdev-image-keyboard-response,87,336832,learnblock1,880.6999999284744,img/planet5_right.png,5,Community 1,NA,TRUE,j,j,NA,NA,NA,1,6,"2,1,5,13,10,8,12,11,4,15,3,9,6,7,14"
14812,commdev-image-keyboard-response,88,338086,learnblock1,1048.2999999523163,img/planet10_right.png,10,Community 1,NA,TRUE,j,j,NA,NA,NA,1,6,"2,1,5,13,10,8,12,11,4,15,3,9,6,7,14"
14812,commdev-image-keyboard-response,89,339342,learnblock1,1187.5,img/planet1_left.png,1,Community 1,NA,TRUE,f,f,NA,NA,NA,1,6,"2,1,5,13,10,8,12,11,4,15,3,9,6,7,14"
14812,commdev-image-keyboard-response,90,340603,learnblock1,null,img/planet13_left.png,13,Community 1,NA,FALSE,null,f,NA,NA,NA,1,6,"2,1,5,13,10,8,12,11,4,15,3,9,6,7,14"
14812,commdev-image-keyboard-response,91,341859,learnblock1,165.80000007152557,img/planet8_right.png,8,Community 2,NA,FALSE,f,j,NA,NA,NA,1,6,"2,1,5,13,10,8,12,11,4,15,3,9,6,7,14"
14812,commdev-image-keyboard-response,92,343114,learnblock1,null,img/planet15_right.png,15,Community 2,NA,FALSE,null,j,NA,NA,NA,1,6,"2,1,5,13,10,8,12,11,4,15,3,9,6,7,14"
14812,commdev-image-keyboard-response,93,344382,learnblock1,null,img/planet4_right.png,4,Community 2,NA,FALSE,null,j,NA,NA,NA,1,6,"2,1,5,13,10,8,12,11,4,15,3,9,6,7,14"
14812,commdev-image-keyboard-response,94,345640,learnblock1,103,img/planet8_left.png,8,Community 2,NA,FALSE,j,f,NA,NA,NA,1,6,"2,1,5,13,10,8,12,11,4,15,3,9,6,7,14"
14812,commdev-image-keyboard-response,95,346903,learnblock1,1012.3000000715256,img/planet4_right.png,4,Community 2,NA,TRUE,j,j,NA,NA,NA,1,6,"2,1,5,13,10,8,12,11,4,15,3,9,6,7,14"
14812,commdev-image-keyboard-response,96,348163,learnblock1,null,img/planet15_left.png,15,Community 2,NA,FALSE,null,f,NA,NA,NA,1,6,"2,1,5,13,10,8,12,11,4,15,3,9,6,7,14"
14812,commdev-image-keyboard-response,97,349433,learnblock1,905.8999999761581,img/planet4_left.png,4,Community 2,NA,TRUE,f,f,NA,NA,NA,1,6,"2,1,5,13,10,8,12,11,4,15,3,9,6,7,14"
14812,commdev-image-keyboard-response,98,350692,learnblock1,1089.3000000715256,img/planet11_left.png,11,Community 2,NA,TRUE,f,f,NA,NA,NA,1,6,"2,1,5,13,10,8,12,11,4,15,3,9,6,7,14"
14812,commdev-image-keyboard-response,99,351959,learnblock1,936.1999999284744,img/planet9_right.png,9,Community 3,NA,TRUE,j,j,NA,NA,NA,1,6,"2,1,5,13,10,8,12,11,4,15,3,9,6,7,14"
14812,commdev-image-keyboard-response,100,353213,learnblock1,null,img/planet6_left.png,6,Community 3,NA,FALSE,null,f,NA,NA,NA,1,6,"2,1,5,13,10,8,12,11,4,15,3,9,6,7,14"
14812,commdev-image-keyboard-response,101,354467,learnblock1,226.90000009536743,img/planet3_right.png,3,Community 3,NA,FALSE,f,j,NA,NA,NA,1,6,"2,1,5,13,10,8,12,11,4,15,3,9,6,7,14"
14812,commdev-image-keyboard-response,102,355721,learnblock1,null,img/planet10_right.png,10,Community 1,NA,FALSE,null,j,NA,NA,NA,1,6,"2,1,5,13,10,8,12,11,4,15,3,9,6,7,14"
14812,commdev-image-keyboard-response,103,356980,learnblock1,197.5,img/planet2_left.png,2,Community 1,NA,TRUE,f,f,NA,NA,NA,1,6,"2,1,5,13,10,8,12,11,4,15,3,9,6,7,14"
14812,commdev-image-keyboard-response,104,358241,learnblock1,null,img/planet10_right.png,10,Community 1,NA,FALSE,null,j,NA,NA,NA,1,6,"2,1,5,13,10,8,12,11,4,15,3,9,6,7,14"
14812,commdev-image-keyboard-response,105,359502,learnblock1,null,img/planet5_left.png,5,Community 1,NA,FALSE,null,f,NA,NA,NA,1,6,"2,1,5,13,10,8,12,11,4,15,3,9,6,7,14"
14812,commdev-image-keyboard-response,106,360769,learnblock1,null,img/planet10_right.png,10,Community 1,NA,FALSE,null,j,NA,NA,NA,1,6,"2,1,5,13,10,8,12,11,4,15,3,9,6,7,14"
14812,commdev-image-keyboard-response,107,362023,learnblock1,null,img/planet5_right.png,5,Community 1,NA,FALSE,null,j,NA,NA,NA,1,6,"2,1,5,13,10,8,12,11,4,15,3,9,6,7,14"
14812,commdev-image-keyboard-response,108,363292,learnblock1,null,img/planet10_right.png,10,Community 1,NA,FALSE,null,j,NA,NA,NA,1,6,"2,1,5,13,10,8,12,11,4,15,3,9,6,7,14"
14812,commdev-image-keyboard-response,109,364550,learnblock1,1049.6000000238419,img/planet3_right.png,3,Community 3,NA,TRUE,j,j,NA,NA,NA,1,6,"2,1,5,13,10,8,12,11,4,15,3,9,6,7,14"
14812,commdev-image-keyboard-response,110,365805,learnblock1,null,img/planet6_left.png,6,Community 3,NA,FALSE,null,f,NA,NA,NA,1,6,"2,1,5,13,10,8,12,11,4,15,3,9,6,7,14"
14812,commdev-image-keyboard-response,111,367071,learnblock1,929.7999999523163,img/planet7_left.png,7,Community 3,NA,TRUE,f,f,NA,NA,NA,1,6,"2,1,5,13,10,8,12,11,4,15,3,9,6,7,14"
14812,commdev-image-keyboard-response,112,368329,learnblock1,null,img/planet3_left.png,3,Community 3,NA,FALSE,null,f,NA,NA,NA,1,6,"2,1,5,13,10,8,12,11,4,15,3,9,6,7,14"
14812,commdev-image-keyboard-response,113,369586,learnblock1,109.30000007152557,img/planet7_left.png,7,Community 3,NA,TRUE,f,f,NA,NA,NA,1,6,"2,1,5,13,10,8,12,11,4,15,3,9,6,7,14"
14812,commdev-image-keyboard-response,114,370841,learnblock1,267.60000002384186,img/planet9_left.png,9,Community 3,NA,TRUE,f,f,NA,NA,NA,1,6,"2,1,5,13,10,8,12,11,4,15,3,9,6,7,14"
14812,commdev-image-keyboard-response,115,372103,learnblock1,384.6999999284744,img/planet7_left.png,7,Community 3,NA,TRUE,f,f,NA,NA,NA,1,6,"2,1,5,13,10,8,12,11,4,15,3,9,6,7,14"
14812,commdev-image-keyboard-response,116,373366,learnblock1,942.8999999761581,img/planet9_left.png,9,Community 3,NA,TRUE,f,f,NA,NA,NA,1,6,"2,1,5,13,10,8,12,11,4,15,3,9,6,7,14"
14812,commdev-image-keyboard-response,117,374623,learnblock1,null,img/planet6_left.png,6,Community 3,NA,FALSE,null,f,NA,NA,NA,1,6,"2,1,5,13,10,8,12,11,4,15,3,9,6,7,14"
14812,commdev-image-keyboard-response,118,375878,learnblock1,null,img/planet7_left.png,7,Community 3,NA,FALSE,null,f,NA,NA,NA,1,6,"2,1,5,13,10,8,12,11,4,15,3,9,6,7,14"
14812,commdev-image-keyboard-response,119,377139,learnblock1,1070.0999999046326,img/planet9_right.png,9,Community 3,NA,TRUE,j,j,NA,NA,NA,1,6,"2,1,5,13,10,8,12,11,4,15,3,9,6,7,14"
14812,commdev-image-keyboard-response,120,378403,learnblock1,null,img/planet14_right.png,14,Community 3,NA,FALSE,null,j,NA,NA,NA,1,6,"2,1,5,13,10,8,12,11,4,15,3,9,6,7,14"
14812,commdev-image-keyboard-response,121,379657,learnblock1,1163.8000000715256,img/planet3_right.png,3,Community 3,NA,TRUE,j,j,NA,NA,NA,1,6,"2,1,5,13,10,8,12,11,4,15,3,9,6,7,14"
14812,commdev-image-keyboard-response,122,380915,learnblock1,null,img/planet14_left.png,14,Community 3,NA,FALSE,null,f,NA,NA,NA,1,6,"2,1,5,13,10,8,12,11,4,15,3,9,6,7,14"
14812,commdev-image-keyboard-response,123,382171,learnblock1,null,img/planet9_left.png,9,Community 3,NA,FALSE,null,f,NA,NA,NA,1,6,"2,1,5,13,10,8,12,11,4,15,3,9,6,7,14"
14812,commdev-image-keyboard-response,124,383431,learnblock1,686.2000000476837,img/planet14_right.png,14,Community 3,NA,FALSE,f,j,NA,NA,NA,1,6,"2,1,5,13,10,8,12,11,4,15,3,9,6,7,14"
14812,commdev-image-keyboard-response,125,384692,learnblock1,null,img/planet9_right.png,9,Community 3,NA,FALSE,null,j,NA,NA,NA,1,6,"2,1,5,13,10,8,12,11,4,15,3,9,6,7,14"
14812,commdev-image-keyboard-response,126,385951,learnblock1,null,img/planet11_right.png,11,Community 2,NA,FALSE,null,j,NA,NA,NA,1,6,"2,1,5,13,10,8,12,11,4,15,3,9,6,7,14"
14812,commdev-image-keyboard-response,127,387209,learnblock1,1026.2000000476837,img/planet15_left.png,15,Community 2,NA,TRUE,f,f,NA,NA,NA,1,6,"2,1,5,13,10,8,12,11,4,15,3,9,6,7,14"
14812,commdev-image-keyboard-response,128,388466,learnblock1,null,img/planet11_left.png,11,Community 2,NA,FALSE,null,f,NA,NA,NA,1,6,"2,1,5,13,10,8,12,11,4,15,3,9,6,7,14"
14812,commdev-image-keyboard-response,129,389721,learnblock1,null,img/planet4_right.png,4,Community 2,NA,FALSE,null,j,NA,NA,NA,1,6,"2,1,5,13,10,8,12,11,4,15,3,9,6,7,14"
14812,commdev-image-keyboard-response,130,390990,learnblock1,null,img/planet8_left.png,8,Community 2,NA,FALSE,null,f,NA,NA,NA,1,6,"2,1,5,13,10,8,12,11,4,15,3,9,6,7,14"
14812,commdev-image-keyboard-response,131,392247,learnblock1,420.60000002384186,img/planet12_left.png,12,Community 2,NA,TRUE,f,f,NA,NA,NA,1,6,"2,1,5,13,10,8,12,11,4,15,3,9,6,7,14"
14812,commdev-image-keyboard-response,132,393511,learnblock1,null,img/planet11_left.png,11,Community 2,NA,FALSE,null,f,NA,NA,NA,1,6,"2,1,5,13,10,8,12,11,4,15,3,9,6,7,14"
14812,commdev-image-keyboard-response,133,394771,learnblock1,null,img/planet4_right.png,4,Community 2,NA,FALSE,null,j,NA,NA,NA,1,6,"2,1,5,13,10,8,12,11,4,15,3,9,6,7,14"
14812,commdev-image-keyboard-response,134,396025,learnblock1,1116.1000000238419,img/planet15_right.png,15,Community 2,NA,TRUE,j,j,NA,NA,NA,1,6,"2,1,5,13,10,8,12,11,4,15,3,9,6,7,14"
14812,commdev-image-keyboard-response,135,397286,learnblock1,null,img/planet8_left.png,8,Community 2,NA,FALSE,null,f,NA,NA,NA,1,6,"2,1,5,13,10,8,12,11,4,15,3,9,6,7,14"
14812,commdev-image-keyboard-response,136,398547,learnblock1,null,img/planet4_left.png,4,Community 2,NA,FALSE,null,f,NA,NA,NA,1,6,"2,1,5,13,10,8,12,11,4,15,3,9,6,7,14"
14812,commdev-image-keyboard-response,137,399805,learnblock1,882.1000000238419,img/planet12_left.png,12,Community 2,NA,TRUE,f,f,NA,NA,NA,1,6,"2,1,5,13,10,8,12,11,4,15,3,9,6,7,14"
14812,commdev-image-keyboard-response,138,401062,learnblock1,744.2999999523163,img/planet15_right.png,15,Community 2,NA,TRUE,j,j,NA,NA,NA,1,6,"2,1,5,13,10,8,12,11,4,15,3,9,6,7,14"
14812,commdev-image-keyboard-response,139,402332,learnblock1,null,img/planet8_right.png,8,Community 2,NA,FALSE,null,j,NA,NA,NA,1,6,"2,1,5,13,10,8,12,11,4,15,3,9,6,7,14"
14812,commdev-image-keyboard-response,140,403601,learnblock1,868.9000000953674,img/planet12_left.png,12,Community 2,NA,TRUE,f,f,NA,NA,NA,1,6,"2,1,5,13,10,8,12,11,4,15,3,9,6,7,14"
14812,commdev-image-keyboard-response,141,404866,learnblock1,null,img/planet11_left.png,11,Community 2,NA,FALSE,null,f,NA,NA,NA,1,6,"2,1,5,13,10,8,12,11,4,15,3,9,6,7,14"
14812,commdev-image-keyboard-response,142,406126,learnblock1,48.199999928474426,img/planet12_right.png,12,Community 2,NA,FALSE,f,j,NA,NA,NA,1,6,"2,1,5,13,10,8,12,11,4,15,3,9,6,7,14"
14812,commdev-image-keyboard-response,143,407387,learnblock1,978.2999999523163,img/planet4_left.png,4,Community 2,NA,TRUE,f,f,NA,NA,NA,1,6,"2,1,5,13,10,8,12,11,4,15,3,9,6,7,14"
14812,commdev-image-keyboard-response,144,408649,learnblock1,1226.5,img/planet8_right.png,8,Community 2,NA,TRUE,j,j,NA,NA,NA,1,6,"2,1,5,13,10,8,12,11,4,15,3,9,6,7,14"
14812,commdev-image-keyboard-response,145,409910,learnblock1,421.39999997615814,img/planet12_right.png,12,Community 2,NA,TRUE,j,j,NA,NA,NA,1,6,"2,1,5,13,10,8,12,11,4,15,3,9,6,7,14"
14812,commdev-image-keyboard-response,146,411175,learnblock1,null,img/planet15_right.png,15,Community 2,NA,FALSE,null,j,NA,NA,NA,1,6,"2,1,5,13,10,8,12,11,4,15,3,9,6,7,14"
14812,commdev-image-keyboard-response,147,412445,learnblock1,146.5,img/planet12_left.png,12,Community 2,NA,FALSE,j,f,NA,NA,NA,1,6,"2,1,5,13,10,8,12,11,4,15,3,9,6,7,14"
14812,commdev-image-keyboard-response,148,413704,learnblock1,1209.1000000238419,img/planet15_left.png,15,Community 2,NA,TRUE,f,f,NA,NA,NA,1,6,"2,1,5,13,10,8,12,11,4,15,3,9,6,7,14"
14812,commdev-image-keyboard-response,149,414962,learnblock1,null,img/planet12_left.png,12,Community 2,NA,FALSE,null,f,NA,NA,NA,1,6,"2,1,5,13,10,8,12,11,4,15,3,9,6,7,14"
14812,commdev-image-keyboard-response,150,416223,learnblock1,831.2999999523163,img/planet15_right.png,15,Community 2,NA,TRUE,j,j,NA,NA,NA,1,6,"2,1,5,13,10,8,12,11,4,15,3,9,6,7,14"
14812,commdev-image-keyboard-response,151,417484,learnblock1,823.7000000476837,img/planet4_left.png,4,Community 2,NA,TRUE,f,f,NA,NA,NA,1,6,"2,1,5,13,10,8,12,11,4,15,3,9,6,7,14"
14812,commdev-image-keyboard-response,152,418742,learnblock1,33.09999990463257,img/planet8_right.png,8,Community 2,NA,FALSE,f,j,NA,NA,NA,1,6,"2,1,5,13,10,8,12,11,4,15,3,9,6,7,14"
14812,commdev-image-keyboard-response,153,419999,learnblock1,null,img/planet13_right.png,13,Community 1,NA,FALSE,null,j,NA,NA,NA,1,6,"2,1,5,13,10,8,12,11,4,15,3,9,6,7,14"
14812,commdev-image-keyboard-response,154,421255,learnblock1,93.79999995231628,img/planet2_right.png,2,Community 1,NA,TRUE,j,j,NA,NA,NA,1,6,"2,1,5,13,10,8,12,11,4,15,3,9,6,7,14"
14812,commdev-image-keyboard-response,155,422514,learnblock1,75.29999995231628,img/planet5_left.png,5,Community 1,NA,FALSE,j,f,NA,NA,NA,1,6,"2,1,5,13,10,8,12,11,4,15,3,9,6,7,14"
14812,commdev-image-keyboard-response,156,423772,learnblock1,null,img/planet13_left.png,13,Community 1,NA,FALSE,null,f,NA,NA,NA,1,6,"2,1,5,13,10,8,12,11,4,15,3,9,6,7,14"
14812,commdev-image-keyboard-response,157,425026,learnblock1,47.5,img/planet2_right.png,2,Community 1,NA,FALSE,f,j,NA,NA,NA,1,6,"2,1,5,13,10,8,12,11,4,15,3,9,6,7,14"
14812,commdev-image-keyboard-response,158,426273,learnblock1,1197.7000000476837,img/planet13_left.png,13,Community 1,NA,TRUE,f,f,NA,NA,NA,1,6,"2,1,5,13,10,8,12,11,4,15,3,9,6,7,14"
14812,commdev-image-keyboard-response,159,427530,learnblock1,1027.7999999523163,img/planet1_right.png,1,Community 1,NA,FALSE,f,j,NA,NA,NA,1,6,"2,1,5,13,10,8,12,11,4,15,3,9,6,7,14"
14812,commdev-image-keyboard-response,160,428790,learnblock1,101.89999997615814,img/planet5_left.png,5,Community 1,NA,FALSE,j,f,NA,NA,NA,1,6,"2,1,5,13,10,8,12,11,4,15,3,9,6,7,14"
14812,commdev-image-keyboard-response,161,430050,learnblock1,909.7000000476837,img/planet2_left.png,2,Community 1,NA,TRUE,f,f,NA,NA,NA,1,6,"2,1,5,13,10,8,12,11,4,15,3,9,6,7,14"
14812,commdev-image-keyboard-response,162,431304,learnblock1,1042,img/planet1_right.png,1,Community 1,NA,TRUE,j,j,NA,NA,NA,1,6,"2,1,5,13,10,8,12,11,4,15,3,9,6,7,14"
14812,commdev-image-keyboard-response,163,432560,learnblock1,1223.6000000238419,img/planet2_right.png,2,Community 1,NA,TRUE,j,j,NA,NA,NA,1,6,"2,1,5,13,10,8,12,11,4,15,3,9,6,7,14"
14812,commdev-image-keyboard-response,164,433828,learnblock1,null,img/planet13_right.png,13,Community 1,NA,FALSE,null,j,NA,NA,NA,1,6,"2,1,5,13,10,8,12,11,4,15,3,9,6,7,14"
14812,commdev-image-keyboard-response,165,435086,learnblock1,59.39999997615814,img/planet1_left.png,1,Community 1,NA,FALSE,j,f,NA,NA,NA,1,6,"2,1,5,13,10,8,12,11,4,15,3,9,6,7,14"
14812,commdev-image-keyboard-response,166,436348,learnblock1,27.799999952316284,img/planet13_left.png,13,Community 1,NA,TRUE,f,f,NA,NA,NA,1,6,"2,1,5,13,10,8,12,11,4,15,3,9,6,7,14"
14812,commdev-image-keyboard-response,167,437609,learnblock1,1192.2000000476837,img/planet8_left.png,8,Community 2,NA,TRUE,f,f,NA,NA,NA,1,6,"2,1,5,13,10,8,12,11,4,15,3,9,6,7,14"
14812,commdev-image-keyboard-response,168,438874,learnblock1,176.70000004768372,img/planet15_left.png,15,Community 2,NA,TRUE,f,f,NA,NA,NA,1,6,"2,1,5,13,10,8,12,11,4,15,3,9,6,7,14"
14812,commdev-image-keyboard-response,169,440142,learnblock1,null,img/planet11_right.png,11,Community 2,NA,FALSE,null,j,NA,NA,NA,1,6,"2,1,5,13,10,8,12,11,4,15,3,9,6,7,14"
14812,commdev-image-keyboard-response,170,441396,learnblock1,306.2000000476837,img/planet9_left.png,9,Community 3,NA,FALSE,j,f,NA,NA,NA,1,6,"2,1,5,13,10,8,12,11,4,15,3,9,6,7,14"
14812,commdev-image-keyboard-response,171,442652,learnblock1,null,img/planet6_right.png,6,Community 3,NA,FALSE,null,j,NA,NA,NA,1,6,"2,1,5,13,10,8,12,11,4,15,3,9,6,7,14"
14812,commdev-image-keyboard-response,172,443910,learnblock1,null,img/planet7_right.png,7,Community 3,NA,FALSE,null,j,NA,NA,NA,1,6,"2,1,5,13,10,8,12,11,4,15,3,9,6,7,14"
14812,commdev-image-keyboard-response,173,445177,learnblock1,201.19999992847443,img/planet3_right.png,3,Community 3,NA,FALSE,f,j,NA,NA,NA,1,6,"2,1,5,13,10,8,12,11,4,15,3,9,6,7,14"
14812,commdev-image-keyboard-response,174,446450,learnblock1,245.59999990463257,img/planet7_left.png,7,Community 3,NA,FALSE,j,f,NA,NA,NA,1,6,"2,1,5,13,10,8,12,11,4,15,3,9,6,7,14"
14812,commdev-image-keyboard-response,175,447708,learnblock1,null,img/planet6_left.png,6,Community 3,NA,FALSE,null,f,NA,NA,NA,1,6,"2,1,5,13,10,8,12,11,4,15,3,9,6,7,14"
14812,commdev-image-keyboard-response,176,448971,learnblock1,null,img/planet14_right.png,14,Community 3,NA,FALSE,null,j,NA,NA,NA,1,6,"2,1,5,13,10,8,12,11,4,15,3,9,6,7,14"
14812,commdev-image-keyboard-response,177,450235,learnblock1,1014.7000000476837,img/planet9_right.png,9,Community 3,NA,FALSE,f,j,NA,NA,NA,1,6,"2,1,5,13,10,8,12,11,4,15,3,9,6,7,14"
14812,commdev-image-keyboard-response,178,451489,learnblock1,112.80000007152557,img/planet11_right.png,11,Community 2,NA,TRUE,j,j,NA,NA,NA,1,6,"2,1,5,13,10,8,12,11,4,15,3,9,6,7,14"
14812,commdev-image-keyboard-response,179,452748,learnblock1,null,img/planet9_right.png,9,Community 3,NA,FALSE,null,j,NA,NA,NA,1,6,"2,1,5,13,10,8,12,11,4,15,3,9,6,7,14"
14812,commdev-image-keyboard-response,180,454018,learnblock1,219.10000002384186,img/planet7_right.png,7,Community 3,NA,TRUE,j,j,NA,NA,NA,1,6,"2,1,5,13,10,8,12,11,4,15,3,9,6,7,14"
14812,commdev-image-keyboard-response,181,455278,learnblock1,null,img/planet3_right.png,3,Community 3,NA,FALSE,null,j,NA,NA,NA,1,6,"2,1,5,13,10,8,12,11,4,15,3,9,6,7,14"
14812,commdev-image-keyboard-response,182,456537,learnblock1,85.39999997615814,img/planet10_left.png,10,Community 1,NA,FALSE,j,f,NA,NA,NA,1,6,"2,1,5,13,10,8,12,11,4,15,3,9,6,7,14"
14812,commdev-image-keyboard-response,183,457791,learnblock1,null,img/planet3_left.png,3,Community 3,NA,FALSE,null,f,NA,NA,NA,1,6,"2,1,5,13,10,8,12,11,4,15,3,9,6,7,14"
14812,commdev-image-keyboard-response,184,459053,learnblock1,null,img/planet14_right.png,14,Community 3,NA,FALSE,null,j,NA,NA,NA,1,6,"2,1,5,13,10,8,12,11,4,15,3,9,6,7,14"
14812,commdev-image-keyboard-response,185,460312,learnblock1,1162.6000000238419,img/planet3_right.png,3,Community 3,NA,TRUE,j,j,NA,NA,NA,1,6,"2,1,5,13,10,8,12,11,4,15,3,9,6,7,14"
14812,commdev-image-keyboard-response,186,461573,learnblock1,null,img/planet7_left.png,7,Community 3,NA,FALSE,null,f,NA,NA,NA,1,6,"2,1,5,13,10,8,12,11,4,15,3,9,6,7,14"
14812,commdev-image-keyboard-response,187,462834,learnblock1,null,img/planet3_right.png,3,Community 3,NA,FALSE,null,j,NA,NA,NA,1,6,"2,1,5,13,10,8,12,11,4,15,3,9,6,7,14"
14812,commdev-image-keyboard-response,188,464095,learnblock1,null,img/planet6_right.png,6,Community 3,NA,FALSE,null,j,NA,NA,NA,1,6,"2,1,5,13,10,8,12,11,4,15,3,9,6,7,14"
14812,commdev-image-keyboard-response,189,465351,learnblock1,null,img/planet7_right.png,7,Community 3,NA,FALSE,null,j,NA,NA,NA,1,6,"2,1,5,13,10,8,12,11,4,15,3,9,6,7,14"
14812,commdev-image-keyboard-response,190,466614,learnblock1,1053.2999999523163,img/planet3_left.png,3,Community 3,NA,TRUE,f,f,NA,NA,NA,1,6,"2,1,5,13,10,8,12,11,4,15,3,9,6,7,14"
14812,commdev-image-keyboard-response,191,467867,learnblock1,810.2000000476837,img/planet10_left.png,10,Community 1,NA,TRUE,f,f,NA,NA,NA,1,6,"2,1,5,13,10,8,12,11,4,15,3,9,6,7,14"
14812,commdev-image-keyboard-response,192,469125,learnblock1,923.7000000476837,img/planet5_right.png,5,Community 1,NA,TRUE,j,j,NA,NA,NA,1,6,"2,1,5,13,10,8,12,11,4,15,3,9,6,7,14"
14812,commdev-image-keyboard-response,193,470386,learnblock1,null,img/planet13_left.png,13,Community 1,NA,FALSE,null,f,NA,NA,NA,1,6,"2,1,5,13,10,8,12,11,4,15,3,9,6,7,14"
14812,commdev-image-keyboard-response,194,471646,learnblock1,121.60000002384186,img/planet2_left.png,2,Community 1,NA,TRUE,f,f,NA,NA,NA,1,6,"2,1,5,13,10,8,12,11,4,15,3,9,6,7,14"
14812,commdev-image-keyboard-response,195,472902,learnblock1,923.7000000476837,img/planet5_left.png,5,Community 1,NA,TRUE,f,f,NA,NA,NA,1,6,"2,1,5,13,10,8,12,11,4,15,3,9,6,7,14"
14812,commdev-image-keyboard-response,196,474165,learnblock1,865.8999999761581,img/planet10_right.png,10,Community 1,NA,TRUE,j,j,NA,NA,NA,1,6,"2,1,5,13,10,8,12,11,4,15,3,9,6,7,14"
14812,commdev-image-keyboard-response,197,475433,learnblock1,1175.2999999523163,img/planet1_right.png,1,Community 1,NA,TRUE,j,j,NA,NA,NA,1,6,"2,1,5,13,10,8,12,11,4,15,3,9,6,7,14"
14812,commdev-image-keyboard-response,198,476693,learnblock1,1061.1000000238419,img/planet2_left.png,2,Community 1,NA,TRUE,f,f,NA,NA,NA,1,6,"2,1,5,13,10,8,12,11,4,15,3,9,6,7,14"
14812,commdev-image-keyboard-response,199,477952,learnblock1,null,img/planet1_right.png,1,Community 1,NA,FALSE,null,j,NA,NA,NA,1,6,"2,1,5,13,10,8,12,11,4,15,3,9,6,7,14"
14812,commdev-image-keyboard-response,200,479215,learnblock1,36.799999952316284,img/planet13_right.png,13,Community 1,NA,TRUE,j,j,NA,NA,NA,1,6,"2,1,5,13,10,8,12,11,4,15,3,9,6,7,14"
14812,commdev-image-keyboard-response,201,480469,learnblock1,10.800000071525574,img/planet2_left.png,2,Community 1,NA,TRUE,f,f,NA,NA,NA,1,6,"2,1,5,13,10,8,12,11,4,15,3,9,6,7,14"
14812,commdev-image-keyboard-response,202,481731,learnblock1,1110.5,img/planet1_right.png,1,Community 1,NA,TRUE,j,j,NA,NA,NA,1,6,"2,1,5,13,10,8,12,11,4,15,3,9,6,7,14"
14812,commdev-image-keyboard-response,203,482986,learnblock1,1080.5,img/planet10_right.png,10,Community 1,NA,TRUE,j,j,NA,NA,NA,1,6,"2,1,5,13,10,8,12,11,4,15,3,9,6,7,14"
14812,commdev-image-keyboard-response,204,484241,learnblock1,null,img/planet3_left.png,3,Community 3,NA,FALSE,null,f,NA,NA,NA,1,6,"2,1,5,13,10,8,12,11,4,15,3,9,6,7,14"
14812,commdev-image-keyboard-response,205,485500,learnblock1,101.89999997615814,img/planet10_left.png,10,Community 1,NA,TRUE,f,f,NA,NA,NA,1,6,"2,1,5,13,10,8,12,11,4,15,3,9,6,7,14"
14812,commdev-image-keyboard-response,206,486767,learnblock1,1135.8999999761581,img/planet2_right.png,2,Community 1,NA,TRUE,j,j,NA,NA,NA,1,6,"2,1,5,13,10,8,12,11,4,15,3,9,6,7,14"
14812,commdev-image-keyboard-response,207,488021,learnblock1,1167.5,img/planet10_right.png,10,Community 1,NA,TRUE,j,j,NA,NA,NA,1,6,"2,1,5,13,10,8,12,11,4,15,3,9,6,7,14"
14812,commdev-image-keyboard-response,208,489286,learnblock1,null,img/planet3_right.png,3,Community 3,NA,FALSE,null,j,NA,NA,NA,1,6,"2,1,5,13,10,8,12,11,4,15,3,9,6,7,14"
14812,commdev-image-keyboard-response,209,490557,learnblock1,180.30000007152557,img/planet6_left.png,6,Community 3,NA,FALSE,j,f,NA,NA,NA,1,6,"2,1,5,13,10,8,12,11,4,15,3,9,6,7,14"
14812,commdev-image-keyboard-response,210,491824,learnblock1,null,img/planet7_right.png,7,Community 3,NA,FALSE,null,j,NA,NA,NA,1,6,"2,1,5,13,10,8,12,11,4,15,3,9,6,7,14"
14812,commdev-image-keyboard-response,211,493086,learnblock1,454,img/planet3_left.png,3,Community 3,NA,FALSE,j,f,NA,NA,NA,1,6,"2,1,5,13,10,8,12,11,4,15,3,9,6,7,14"
14812,commdev-image-keyboard-response,212,494344,learnblock1,391.09999990463257,img/planet7_left.png,7,Community 3,NA,TRUE,f,f,NA,NA,NA,1,6,"2,1,5,13,10,8,12,11,4,15,3,9,6,7,14"
14812,commdev-image-keyboard-response,213,495607,learnblock1,1097.1000000238419,img/planet9_left.png,9,Community 3,NA,TRUE,f,f,NA,NA,NA,1,6,"2,1,5,13,10,8,12,11,4,15,3,9,6,7,14"
14812,commdev-image-keyboard-response,214,496874,learnblock1,null,img/planet7_right.png,7,Community 3,NA,FALSE,null,j,NA,NA,NA,1,6,"2,1,5,13,10,8,12,11,4,15,3,9,6,7,14"
14812,commdev-image-keyboard-response,215,498132,learnblock1,null,img/planet6_left.png,6,Community 3,NA,FALSE,null,f,NA,NA,NA,1,6,"2,1,5,13,10,8,12,11,4,15,3,9,6,7,14"
14812,commdev-image-keyboard-response,216,499395,learnblock1,null,img/planet14_left.png,14,Community 3,NA,FALSE,null,f,NA,NA,NA,1,6,"2,1,5,13,10,8,12,11,4,15,3,9,6,7,14"
14812,commdev-image-keyboard-response,217,500649,learnblock1,834.3000000715256,img/planet9_left.png,9,Community 3,NA,TRUE,f,f,NA,NA,NA,1,6,"2,1,5,13,10,8,12,11,4,15,3,9,6,7,14"
14812,commdev-image-keyboard-response,218,501918,learnblock1,null,img/planet7_left.png,7,Community 3,NA,FALSE,null,f,NA,NA,NA,1,6,"2,1,5,13,10,8,12,11,4,15,3,9,6,7,14"
14812,commdev-image-keyboard-response,219,503178,learnblock1,null,img/planet14_left.png,14,Community 3,NA,FALSE,null,f,NA,NA,NA,1,6,"2,1,5,13,10,8,12,11,4,15,3,9,6,7,14"
14812,commdev-image-keyboard-response,220,504437,learnblock1,219,img/planet9_right.png,9,Community 3,NA,FALSE,f,j,NA,NA,NA,1,6,"2,1,5,13,10,8,12,11,4,15,3,9,6,7,14"
14812,commdev-image-keyboard-response,221,505692,learnblock1,null,img/planet6_left.png,6,Community 3,NA,FALSE,null,f,NA,NA,NA,1,6,"2,1,5,13,10,8,12,11,4,15,3,9,6,7,14"
14812,commdev-image-keyboard-response,222,506947,learnblock1,null,img/planet14_right.png,14,Community 3,NA,FALSE,null,j,NA,NA,NA,1,6,"2,1,5,13,10,8,12,11,4,15,3,9,6,7,14"
14812,commdev-image-keyboard-response,223,508201,learnblock1,1114.8000000715256,img/planet3_right.png,3,Community 3,NA,TRUE,j,j,NA,NA,NA,1,6,"2,1,5,13,10,8,12,11,4,15,3,9,6,7,14"
14812,commdev-image-keyboard-response,224,509461,learnblock1,null,img/planet10_left.png,10,Community 1,NA,FALSE,null,f,NA,NA,NA,1,6,"2,1,5,13,10,8,12,11,4,15,3,9,6,7,14"
14812,commdev-image-keyboard-response,225,510728,learnblock1,875.7000000476837,img/planet5_right.png,5,Community 1,NA,TRUE,j,j,NA,NA,NA,1,6,"2,1,5,13,10,8,12,11,4,15,3,9,6,7,14"
14812,commdev-image-keyboard-response,226,511986,learnblock1,null,img/planet13_right.png,13,Community 1,NA,FALSE,null,j,NA,NA,NA,1,6,"2,1,5,13,10,8,12,11,4,15,3,9,6,7,14"
14812,commdev-image-keyboard-response,227,513245,learnblock1,1176,img/planet5_left.png,5,Community 1,NA,TRUE,f,f,NA,NA,NA,1,6,"2,1,5,13,10,8,12,11,4,15,3,9,6,7,14"
14812,commdev-image-keyboard-response,228,514499,learnblock1,null,img/planet10_right.png,10,Community 1,NA,FALSE,null,j,NA,NA,NA,1,6,"2,1,5,13,10,8,12,11,4,15,3,9,6,7,14"
14812,commdev-image-keyboard-response,229,515757,learnblock1,20.600000023841858,img/planet2_right.png,2,Community 1,NA,TRUE,j,j,NA,NA,NA,1,6,"2,1,5,13,10,8,12,11,4,15,3,9,6,7,14"
14812,commdev-image-keyboard-response,230,517024,learnblock1,null,img/planet13_right.png,13,Community 1,NA,FALSE,null,j,NA,NA,NA,1,6,"2,1,5,13,10,8,12,11,4,15,3,9,6,7,14"
14812,commdev-image-keyboard-response,231,518279,learnblock1,null,img/planet2_left.png,2,Community 1,NA,FALSE,null,f,NA,NA,NA,1,6,"2,1,5,13,10,8,12,11,4,15,3,9,6,7,14"
14812,commdev-image-keyboard-response,232,519543,learnblock1,865.1000000238419,img/planet10_left.png,10,Community 1,NA,TRUE,f,f,NA,NA,NA,1,6,"2,1,5,13,10,8,12,11,4,15,3,9,6,7,14"
14812,commdev-image-keyboard-response,233,520808,learnblock1,null,img/planet5_right.png,5,Community 1,NA,FALSE,null,j,NA,NA,NA,1,6,"2,1,5,13,10,8,12,11,4,15,3,9,6,7,14"
14812,commdev-image-keyboard-response,234,522064,learnblock1,null,img/planet2_left.png,2,Community 1,NA,FALSE,null,f,NA,NA,NA,1,6,"2,1,5,13,10,8,12,11,4,15,3,9,6,7,14"
14812,commdev-image-keyboard-response,235,523323,learnblock1,null,img/planet10_left.png,10,Community 1,NA,FALSE,null,f,NA,NA,NA,1,6,"2,1,5,13,10,8,12,11,4,15,3,9,6,7,14"
14812,commdev-image-keyboard-response,236,524592,learnblock1,471.6999999284744,img/planet5_left.png,5,Community 1,NA,TRUE,f,f,NA,NA,NA,1,6,"2,1,5,13,10,8,12,11,4,15,3,9,6,7,14"
14812,commdev-image-keyboard-response,237,525850,learnblock1,null,img/planet10_left.png,10,Community 1,NA,FALSE,null,f,NA,NA,NA,1,6,"2,1,5,13,10,8,12,11,4,15,3,9,6,7,14"
14812,commdev-image-keyboard-response,238,527109,learnblock1,null,img/planet5_left.png,5,Community 1,NA,FALSE,null,f,NA,NA,NA,1,6,"2,1,5,13,10,8,12,11,4,15,3,9,6,7,14"
14812,commdev-image-keyboard-response,239,528365,learnblock1,null,img/planet13_left.png,13,Community 1,NA,FALSE,null,f,NA,NA,NA,1,6,"2,1,5,13,10,8,12,11,4,15,3,9,6,7,14"
14812,commdev-image-keyboard-response,240,529637,learnblock1,980.2999999523163,img/planet2_left.png,2,Community 1,NA,TRUE,f,f,NA,NA,NA,1,6,"2,1,5,13,10,8,12,11,4,15,3,9,6,7,14"
14812,commdev-image-keyboard-response,241,530897,learnblock1,null,img/planet1_left.png,1,Community 1,NA,FALSE,null,f,NA,NA,NA,1,6,"2,1,5,13,10,8,12,11,4,15,3,9,6,7,14"
14812,commdev-image-keyboard-response,242,532156,learnblock1,null,img/planet5_right.png,5,Community 1,NA,FALSE,null,j,NA,NA,NA,1,6,"2,1,5,13,10,8,12,11,4,15,3,9,6,7,14"
14812,commdev-image-keyboard-response,243,533415,learnblock1,1233.1000000238419,img/planet10_left.png,10,Community 1,NA,TRUE,f,f,NA,NA,NA,1,6,"2,1,5,13,10,8,12,11,4,15,3,9,6,7,14"
14812,commdev-image-keyboard-response,244,534675,learnblock1,1174.3999999761581,img/planet1_left.png,1,Community 1,NA,TRUE,f,f,NA,NA,NA,1,6,"2,1,5,13,10,8,12,11,4,15,3,9,6,7,14"
14812,commdev-image-keyboard-response,245,535929,learnblock1,1155.7999999523163,img/planet13_right.png,13,Community 1,NA,TRUE,j,j,NA,NA,NA,1,6,"2,1,5,13,10,8,12,11,4,15,3,9,6,7,14"
14812,commdev-image-keyboard-response,246,537188,learnblock1,null,img/planet2_right.png,2,Community 1,NA,FALSE,null,j,NA,NA,NA,1,6,"2,1,5,13,10,8,12,11,4,15,3,9,6,7,14"
14812,commdev-image-keyboard-response,247,538447,learnblock1,1013,img/planet10_left.png,10,Community 1,NA,TRUE,f,f,NA,NA,NA,1,6,"2,1,5,13,10,8,12,11,4,15,3,9,6,7,14"
14812,commdev-image-keyboard-response,248,539700,learnblock1,null,img/planet2_left.png,2,Community 1,NA,FALSE,null,f,NA,NA,NA,1,6,"2,1,5,13,10,8,12,11,4,15,3,9,6,7,14"
14812,commdev-image-keyboard-response,249,540955,learnblock1,null,img/planet1_left.png,1,Community 1,NA,FALSE,null,f,NA,NA,NA,1,6,"2,1,5,13,10,8,12,11,4,15,3,9,6,7,14"
14812,commdev-image-keyboard-response,250,542212,learnblock1,null,img/planet13_left.png,13,Community 1,NA,FALSE,null,f,NA,NA,NA,1,6,"2,1,5,13,10,8,12,11,4,15,3,9,6,7,14"
14812,commdev-image-keyboard-response,251,543470,learnblock1,1215.6999999284744,img/planet5_left.png,5,Community 1,NA,TRUE,f,f,NA,NA,NA,1,6,"2,1,5,13,10,8,12,11,4,15,3,9,6,7,14"
14812,commdev-image-keyboard-response,252,544740,learnblock1,null,img/planet1_left.png,1,Community 1,NA,FALSE,null,f,NA,NA,NA,1,6,"2,1,5,13,10,8,12,11,4,15,3,9,6,7,14"
14812,commdev-image-keyboard-response,253,546001,learnblock1,null,img/planet10_right.png,10,Community 1,NA,FALSE,null,j,NA,NA,NA,1,6,"2,1,5,13,10,8,12,11,4,15,3,9,6,7,14"
14812,commdev-image-keyboard-response,254,547258,learnblock1,null,img/planet2_right.png,2,Community 1,NA,FALSE,null,j,NA,NA,NA,1,6,"2,1,5,13,10,8,12,11,4,15,3,9,6,7,14"
14812,commdev-image-keyboard-response,255,548516,learnblock1,967.2000000476837,img/planet1_left.png,1,Community 1,NA,TRUE,f,f,NA,NA,NA,1,6,"2,1,5,13,10,8,12,11,4,15,3,9,6,7,14"
14812,commdev-image-keyboard-response,256,549776,learnblock1,1144.1999999284744,img/planet2_left.png,2,Community 1,NA,FALSE,j,f,NA,NA,NA,1,6,"2,1,5,13,10,8,12,11,4,15,3,9,6,7,14"
14812,commdev-image-keyboard-response,257,551036,learnblock1,1138.5999999046326,img/planet13_left.png,13,Community 1,NA,TRUE,f,f,NA,NA,NA,1,6,"2,1,5,13,10,8,12,11,4,15,3,9,6,7,14"
14812,commdev-image-keyboard-response,258,552303,learnblock1,null,img/planet8_left.png,8,Community 2,NA,FALSE,null,f,NA,NA,NA,1,6,"2,1,5,13,10,8,12,11,4,15,3,9,6,7,14"
14812,commdev-image-keyboard-response,259,553562,learnblock1,null,img/planet4_right.png,4,Community 2,NA,FALSE,null,j,NA,NA,NA,1,6,"2,1,5,13,10,8,12,11,4,15,3,9,6,7,14"
14812,commdev-image-keyboard-response,260,554817,learnblock1,null,img/planet8_right.png,8,Community 2,NA,FALSE,null,j,NA,NA,NA,1,6,"2,1,5,13,10,8,12,11,4,15,3,9,6,7,14"
14812,commdev-image-keyboard-response,261,556072,learnblock1,null,img/planet4_right.png,4,Community 2,NA,FALSE,null,j,NA,NA,NA,1,6,"2,1,5,13,10,8,12,11,4,15,3,9,6,7,14"
14812,commdev-image-keyboard-response,262,557333,learnblock1,257.7999999523163,img/planet11_right.png,11,Community 2,NA,TRUE,j,j,NA,NA,NA,1,6,"2,1,5,13,10,8,12,11,4,15,3,9,6,7,14"
14812,commdev-image-keyboard-response,263,558591,learnblock1,1041.5,img/planet9_left.png,9,Community 3,NA,TRUE,f,f,NA,NA,NA,1,6,"2,1,5,13,10,8,12,11,4,15,3,9,6,7,14"
14812,commdev-image-keyboard-response,264,559853,learnblock1,null,img/planet6_left.png,6,Community 3,NA,FALSE,null,f,NA,NA,NA,1,6,"2,1,5,13,10,8,12,11,4,15,3,9,6,7,14"
14812,commdev-image-keyboard-response,265,561115,learnblock1,null,img/planet14_right.png,14,Community 3,NA,FALSE,null,j,NA,NA,NA,1,6,"2,1,5,13,10,8,12,11,4,15,3,9,6,7,14"
14812,commdev-image-keyboard-response,266,562370,learnblock1,null,img/planet9_left.png,9,Community 3,NA,FALSE,null,f,NA,NA,NA,1,6,"2,1,5,13,10,8,12,11,4,15,3,9,6,7,14"
14812,commdev-image-keyboard-response,267,563633,learnblock1,null,img/planet6_right.png,6,Community 3,NA,FALSE,null,j,NA,NA,NA,1,6,"2,1,5,13,10,8,12,11,4,15,3,9,6,7,14"
14812,commdev-image-keyboard-response,268,564896,learnblock1,null,img/planet7_left.png,7,Community 3,NA,FALSE,null,f,NA,NA,NA,1,6,"2,1,5,13,10,8,12,11,4,15,3,9,6,7,14"
14812,commdev-image-keyboard-response,269,566153,learnblock1,256.5,img/planet14_right.png,14,Community 3,NA,FALSE,f,j,NA,NA,NA,1,6,"2,1,5,13,10,8,12,11,4,15,3,9,6,7,14"
14812,commdev-image-keyboard-response,270,567417,learnblock1,null,img/planet6_right.png,6,Community 3,NA,FALSE,null,j,NA,NA,NA,1,6,"2,1,5,13,10,8,12,11,4,15,3,9,6,7,14"
14812,commdev-image-keyboard-response,271,568675,learnblock1,1129.6000000238419,img/planet3_right.png,3,Community 3,NA,TRUE,j,j,NA,NA,NA,1,6,"2,1,5,13,10,8,12,11,4,15,3,9,6,7,14"
14812,commdev-image-keyboard-response,272,569933,learnblock1,null,img/planet6_left.png,6,Community 3,NA,FALSE,null,f,NA,NA,NA,1,6,"2,1,5,13,10,8,12,11,4,15,3,9,6,7,14"
14812,commdev-image-keyboard-response,273,571199,learnblock1,367.7999999523163,img/planet3_left.png,3,Community 3,NA,TRUE,f,f,NA,NA,NA,1,6,"2,1,5,13,10,8,12,11,4,15,3,9,6,7,14"
14812,commdev-image-keyboard-response,274,572461,learnblock1,null,img/planet6_right.png,6,Community 3,NA,FALSE,null,j,NA,NA,NA,1,6,"2,1,5,13,10,8,12,11,4,15,3,9,6,7,14"
14812,commdev-image-keyboard-response,275,573723,learnblock1,1188.3999999761581,img/planet3_left.png,3,Community 3,NA,TRUE,f,f,NA,NA,NA,1,6,"2,1,5,13,10,8,12,11,4,15,3,9,6,7,14"
14812,commdev-image-keyboard-response,276,574981,learnblock1,null,img/planet6_right.png,6,Community 3,NA,FALSE,null,j,NA,NA,NA,1,6,"2,1,5,13,10,8,12,11,4,15,3,9,6,7,14"
14812,commdev-image-keyboard-response,277,576240,learnblock1,null,img/planet9_right.png,9,Community 3,NA,FALSE,null,j,NA,NA,NA,1,6,"2,1,5,13,10,8,12,11,4,15,3,9,6,7,14"
14812,commdev-image-keyboard-response,278,577507,learnblock1,443.39999997615814,img/planet11_left.png,11,Community 2,NA,FALSE,j,f,NA,NA,NA,1,6,"2,1,5,13,10,8,12,11,4,15,3,9,6,7,14"
14812,commdev-image-keyboard-response,279,578764,learnblock1,null,img/planet9_left.png,9,Community 3,NA,FALSE,null,f,NA,NA,NA,1,6,"2,1,5,13,10,8,12,11,4,15,3,9,6,7,14"
14812,commdev-image-keyboard-response,280,580026,learnblock1,null,img/planet11_left.png,11,Community 2,NA,FALSE,null,f,NA,NA,NA,1,6,"2,1,5,13,10,8,12,11,4,15,3,9,6,7,14"
14812,commdev-image-keyboard-response,281,581283,learnblock1,null,img/planet4_left.png,4,Community 2,NA,FALSE,null,f,NA,NA,NA,1,6,"2,1,5,13,10,8,12,11,4,15,3,9,6,7,14"
14812,commdev-image-keyboard-response,282,582539,learnblock1,null,img/planet11_left.png,11,Community 2,NA,FALSE,null,f,NA,NA,NA,1,6,"2,1,5,13,10,8,12,11,4,15,3,9,6,7,14"
14812,commdev-image-keyboard-response,283,583800,learnblock1,null,img/planet4_left.png,4,Community 2,NA,FALSE,null,f,NA,NA,NA,1,6,"2,1,5,13,10,8,12,11,4,15,3,9,6,7,14"
14812,commdev-image-keyboard-response,284,585054,learnblock1,null,img/planet11_right.png,11,Community 2,NA,FALSE,null,j,NA,NA,NA,1,6,"2,1,5,13,10,8,12,11,4,15,3,9,6,7,14"
14812,commdev-image-keyboard-response,285,586319,learnblock1,null,img/planet9_left.png,9,Community 3,NA,FALSE,null,f,NA,NA,NA,1,6,"2,1,5,13,10,8,12,11,4,15,3,9,6,7,14"
14812,commdev-image-keyboard-response,286,587590,learnblock1,null,img/planet7_right.png,7,Community 3,NA,FALSE,null,j,NA,NA,NA,1,6,"2,1,5,13,10,8,12,11,4,15,3,9,6,7,14"
14812,commdev-image-keyboard-response,287,588850,learnblock1,null,img/planet9_right.png,9,Community 3,NA,FALSE,null,j,NA,NA,NA,1,6,"2,1,5,13,10,8,12,11,4,15,3,9,6,7,14"
14812,commdev-image-keyboard-response,288,590106,learnblock1,null,img/planet14_right.png,14,Community 3,NA,FALSE,null,j,NA,NA,NA,1,6,"2,1,5,13,10,8,12,11,4,15,3,9,6,7,14"
14812,commdev-image-keyboard-response,289,591370,learnblock1,null,img/planet6_left.png,6,Community 3,NA,FALSE,null,f,NA,NA,NA,1,6,"2,1,5,13,10,8,12,11,4,15,3,9,6,7,14"
14812,commdev-image-keyboard-response,290,592627,learnblock1,null,img/planet14_left.png,14,Community 3,NA,FALSE,null,f,NA,NA,NA,1,6,"2,1,5,13,10,8,12,11,4,15,3,9,6,7,14"
14812,commdev-image-keyboard-response,291,593883,learnblock1,816.6999999284744,img/planet9_left.png,9,Community 3,NA,TRUE,f,f,NA,NA,NA,1,6,"2,1,5,13,10,8,12,11,4,15,3,9,6,7,14"
14812,commdev-image-keyboard-response,292,595146,learnblock1,null,img/planet14_left.png,14,Community 3,NA,FALSE,null,f,NA,NA,NA,1,6,"2,1,5,13,10,8,12,11,4,15,3,9,6,7,14"
14812,commdev-image-keyboard-response,293,596408,learnblock1,935,img/planet3_right.png,3,Community 3,NA,TRUE,j,j,NA,NA,NA,1,6,"2,1,5,13,10,8,12,11,4,15,3,9,6,7,14"
14812,commdev-image-keyboard-response,294,597663,learnblock1,null,img/planet7_left.png,7,Community 3,NA,FALSE,null,f,NA,NA,NA,1,6,"2,1,5,13,10,8,12,11,4,15,3,9,6,7,14"
14812,commdev-image-keyboard-response,295,598919,learnblock1,null,img/planet9_left.png,9,Community 3,NA,FALSE,null,f,NA,NA,NA,1,6,"2,1,5,13,10,8,12,11,4,15,3,9,6,7,14"
14812,commdev-image-keyboard-response,296,600187,learnblock1,304.39999997615814,img/planet7_right.png,7,Community 3,NA,FALSE,f,j,NA,NA,NA,1,6,"2,1,5,13,10,8,12,11,4,15,3,9,6,7,14"
14812,commdev-image-keyboard-response,297,601447,learnblock1,null,img/planet14_left.png,14,Community 3,NA,FALSE,null,f,NA,NA,NA,1,6,"2,1,5,13,10,8,12,11,4,15,3,9,6,7,14"
14812,commdev-image-keyboard-response,298,602703,learnblock1,1197.7999999523163,img/planet7_left.png,7,Community 3,NA,TRUE,f,f,NA,NA,NA,1,6,"2,1,5,13,10,8,12,11,4,15,3,9,6,7,14"
14812,commdev-image-keyboard-response,299,603965,learnblock1,1038.1999999284744,img/planet3_right.png,3,Community 3,NA,TRUE,j,j,NA,NA,NA,1,6,"2,1,5,13,10,8,12,11,4,15,3,9,6,7,14"
14812,commdev-image-keyboard-response,300,605221,learnblock1,927.9000000953674,img/planet10_right.png,10,Community 1,NA,TRUE,j,j,NA,NA,NA,1,6,"2,1,5,13,10,8,12,11,4,15,3,9,6,7,14"
14812,commdev-image-keyboard-response,301,606478,learnblock1,782.3999999761581,img/planet1_left.png,1,Community 1,NA,TRUE,f,f,NA,NA,NA,1,6,"2,1,5,13,10,8,12,11,4,15,3,9,6,7,14"
14812,commdev-image-keyboard-response,302,607730,learnblock1,1117.8000000715256,img/planet5_right.png,5,Community 1,NA,TRUE,j,j,NA,NA,NA,1,6,"2,1,5,13,10,8,12,11,4,15,3,9,6,7,14"
14812,commdev-image-keyboard-response,303,608988,learnblock1,1212.6000000238419,img/planet1_right.png,1,Community 1,NA,TRUE,j,j,NA,NA,NA,1,6,"2,1,5,13,10,8,12,11,4,15,3,9,6,7,14"
14812,commdev-image-keyboard-response,304,610244,learnblock1,1092.3999999761581,img/planet5_right.png,5,Community 1,NA,TRUE,j,j,NA,NA,NA,1,6,"2,1,5,13,10,8,12,11,4,15,3,9,6,7,14"
14812,commdev-image-keyboard-response,305,611503,learnblock1,894.3000000715256,img/planet2_left.png,2,Community 1,NA,TRUE,f,f,NA,NA,NA,1,6,"2,1,5,13,10,8,12,11,4,15,3,9,6,7,14"
14812,commdev-image-keyboard-response,306,612760,learnblock1,1180,img/planet10_left.png,10,Community 1,NA,TRUE,f,f,NA,NA,NA,1,6,"2,1,5,13,10,8,12,11,4,15,3,9,6,7,14"
14812,commdev-image-keyboard-response,307,614015,learnblock1,950.8000000715256,img/planet5_right.png,5,Community 1,NA,TRUE,j,j,NA,NA,NA,1,6,"2,1,5,13,10,8,12,11,4,15,3,9,6,7,14"
14812,commdev-image-keyboard-response,308,615276,learnblock1,null,img/planet13_right.png,13,Community 1,NA,FALSE,null,j,NA,NA,NA,1,6,"2,1,5,13,10,8,12,11,4,15,3,9,6,7,14"
14812,commdev-image-keyboard-response,309,616533,learnblock1,null,img/planet8_right.png,8,Community 2,NA,FALSE,null,j,NA,NA,NA,1,6,"2,1,5,13,10,8,12,11,4,15,3,9,6,7,14"
14812,commdev-image-keyboard-response,310,617794,learnblock1,61.800000071525574,img/planet4_right.png,4,Community 2,NA,TRUE,j,j,NA,NA,NA,1,6,"2,1,5,13,10,8,12,11,4,15,3,9,6,7,14"
14812,commdev-image-keyboard-response,311,619048,learnblock1,294.3000000715256,img/planet8_left.png,8,Community 2,NA,FALSE,j,f,NA,NA,NA,1,6,"2,1,5,13,10,8,12,11,4,15,3,9,6,7,14"
14812,commdev-image-keyboard-response,312,620308,learnblock1,1042.2999999523163,img/planet15_right.png,15,Community 2,NA,TRUE,j,j,NA,NA,NA,1,6,"2,1,5,13,10,8,12,11,4,15,3,9,6,7,14"
14812,commdev-image-keyboard-response,313,621569,learnblock1,null,img/planet4_left.png,4,Community 2,NA,FALSE,null,f,NA,NA,NA,1,6,"2,1,5,13,10,8,12,11,4,15,3,9,6,7,14"
14812,commdev-image-keyboard-response,314,622831,learnblock1,null,img/planet8_right.png,8,Community 2,NA,FALSE,null,j,NA,NA,NA,1,6,"2,1,5,13,10,8,12,11,4,15,3,9,6,7,14"
14812,commdev-image-keyboard-response,315,624098,learnblock1,null,img/planet15_left.png,15,Community 2,NA,FALSE,null,f,NA,NA,NA,1,6,"2,1,5,13,10,8,12,11,4,15,3,9,6,7,14"
14812,commdev-image-keyboard-response,316,625355,learnblock1,11.100000023841858,img/planet11_left.png,11,Community 2,NA,TRUE,f,f,NA,NA,NA,1,6,"2,1,5,13,10,8,12,11,4,15,3,9,6,7,14"
14812,commdev-image-keyboard-response,317,626619,learnblock1,148.09999990463257,img/planet4_left.png,4,Community 2,NA,TRUE,f,f,NA,NA,NA,1,6,"2,1,5,13,10,8,12,11,4,15,3,9,6,7,14"
14812,commdev-image-keyboard-response,318,627878,learnblock1,70,img/planet12_right.png,12,Community 2,NA,FALSE,f,j,NA,NA,NA,1,6,"2,1,5,13,10,8,12,11,4,15,3,9,6,7,14"
14812,commdev-image-keyboard-response,319,629135,learnblock1,744.5,img/planet11_right.png,11,Community 2,NA,FALSE,f,j,NA,NA,NA,1,6,"2,1,5,13,10,8,12,11,4,15,3,9,6,7,14"
14812,commdev-image-keyboard-response,320,630393,learnblock1,145.5,img/planet12_left.png,12,Community 2,NA,FALSE,j,f,NA,NA,NA,1,6,"2,1,5,13,10,8,12,11,4,15,3,9,6,7,14"
14812,commdev-image-keyboard-response,321,631657,learnblock1,130.29999995231628,img/planet4_left.png,4,Community 2,NA,TRUE,f,f,NA,NA,NA,1,6,"2,1,5,13,10,8,12,11,4,15,3,9,6,7,14"
14812,commdev-image-keyboard-response,322,632914,learnblock1,null,img/planet11_left.png,11,Community 2,NA,FALSE,null,f,NA,NA,NA,1,6,"2,1,5,13,10,8,12,11,4,15,3,9,6,7,14"
14812,commdev-image-keyboard-response,323,634171,learnblock1,89,img/planet12_right.png,12,Community 2,NA,TRUE,j,j,NA,NA,NA,1,6,"2,1,5,13,10,8,12,11,4,15,3,9,6,7,14"
14812,commdev-image-keyboard-response,324,635428,learnblock1,null,img/planet11_right.png,11,Community 2,NA,FALSE,null,j,NA,NA,NA,1,6,"2,1,5,13,10,8,12,11,4,15,3,9,6,7,14"
14812,commdev-image-keyboard-response,325,636692,learnblock1,381.60000002384186,img/planet12_right.png,12,Community 2,NA,TRUE,j,j,NA,NA,NA,1,6,"2,1,5,13,10,8,12,11,4,15,3,9,6,7,14"
14812,commdev-image-keyboard-response,326,637959,learnblock1,null,img/planet11_right.png,11,Community 2,NA,FALSE,null,j,NA,NA,NA,1,6,"2,1,5,13,10,8,12,11,4,15,3,9,6,7,14"
14812,commdev-image-keyboard-response,327,639213,learnblock1,1194.4000000953674,img/planet9_right.png,9,Community 3,NA,TRUE,j,j,NA,NA,NA,1,6,"2,1,5,13,10,8,12,11,4,15,3,9,6,7,14"
14812,commdev-image-keyboard-response,328,640469,learnblock1,null,img/planet6_right.png,6,Community 3,NA,FALSE,null,j,NA,NA,NA,1,6,"2,1,5,13,10,8,12,11,4,15,3,9,6,7,14"
14812,commdev-image-keyboard-response,329,641723,learnblock1,null,img/planet9_right.png,9,Community 3,NA,FALSE,null,j,NA,NA,NA,1,6,"2,1,5,13,10,8,12,11,4,15,3,9,6,7,14"
14812,commdev-image-keyboard-response,330,642980,learnblock1,null,img/planet11_right.png,11,Community 2,NA,FALSE,null,j,NA,NA,NA,1,6,"2,1,5,13,10,8,12,11,4,15,3,9,6,7,14"
14812,commdev-image-keyboard-response,331,644242,learnblock1,null,img/planet12_left.png,12,Community 2,NA,FALSE,null,f,NA,NA,NA,1,6,"2,1,5,13,10,8,12,11,4,15,3,9,6,7,14"
14812,commdev-image-keyboard-response,332,645497,learnblock1,null,img/planet4_left.png,4,Community 2,NA,FALSE,null,f,NA,NA,NA,1,6,"2,1,5,13,10,8,12,11,4,15,3,9,6,7,14"
14812,commdev-image-keyboard-response,333,646757,learnblock1,null,img/planet8_right.png,8,Community 2,NA,FALSE,null,j,NA,NA,NA,1,6,"2,1,5,13,10,8,12,11,4,15,3,9,6,7,14"
14812,commdev-image-keyboard-response,334,648024,learnblock1,519.5999999046326,img/planet12_right.png,12,Community 2,NA,FALSE,f,j,NA,NA,NA,1,6,"2,1,5,13,10,8,12,11,4,15,3,9,6,7,14"
14812,commdev-image-keyboard-response,335,649289,learnblock1,862.1000000238419,img/planet4_right.png,4,Community 2,NA,TRUE,j,j,NA,NA,NA,1,6,"2,1,5,13,10,8,12,11,4,15,3,9,6,7,14"
14812,commdev-image-keyboard-response,336,650551,learnblock1,1093.1000000238419,img/planet11_left.png,11,Community 2,NA,TRUE,f,f,NA,NA,NA,1,6,"2,1,5,13,10,8,12,11,4,15,3,9,6,7,14"
14812,commdev-image-keyboard-response,337,651808,learnblock1,1109.5,img/planet4_left.png,4,Community 2,NA,TRUE,f,f,NA,NA,NA,1,6,"2,1,5,13,10,8,12,11,4,15,3,9,6,7,14"
14812,commdev-image-keyboard-response,338,653068,learnblock1,873,img/planet15_right.png,15,Community 2,NA,TRUE,j,j,NA,NA,NA,1,6,"2,1,5,13,10,8,12,11,4,15,3,9,6,7,14"
14812,commdev-image-keyboard-response,339,654329,learnblock1,null,img/planet11_right.png,11,Community 2,NA,FALSE,null,j,NA,NA,NA,1,6,"2,1,5,13,10,8,12,11,4,15,3,9,6,7,14"
14812,commdev-image-keyboard-response,340,655587,learnblock1,1068,img/planet15_left.png,15,Community 2,NA,TRUE,f,f,NA,NA,NA,1,6,"2,1,5,13,10,8,12,11,4,15,3,9,6,7,14"
14812,commdev-image-keyboard-response,341,656846,learnblock1,null,img/planet4_left.png,4,Community 2,NA,FALSE,null,f,NA,NA,NA,1,6,"2,1,5,13,10,8,12,11,4,15,3,9,6,7,14"
14812,commdev-image-keyboard-response,342,658111,learnblock1,605.7999999523163,img/planet15_left.png,15,Community 2,NA,TRUE,f,f,NA,NA,NA,1,6,"2,1,5,13,10,8,12,11,4,15,3,9,6,7,14"
14812,commdev-image-keyboard-response,343,659370,learnblock1,null,img/planet12_left.png,12,Community 2,NA,FALSE,null,f,NA,NA,NA,1,6,"2,1,5,13,10,8,12,11,4,15,3,9,6,7,14"
14812,commdev-image-keyboard-response,344,660635,learnblock1,null,img/planet8_left.png,8,Community 2,NA,FALSE,null,f,NA,NA,NA,1,6,"2,1,5,13,10,8,12,11,4,15,3,9,6,7,14"
14812,commdev-image-keyboard-response,345,661891,learnblock1,null,img/planet15_left.png,15,Community 2,NA,FALSE,null,f,NA,NA,NA,1,6,"2,1,5,13,10,8,12,11,4,15,3,9,6,7,14"
14812,commdev-image-keyboard-response,346,663155,learnblock1,935.8000000715256,img/planet4_right.png,4,Community 2,NA,TRUE,j,j,NA,NA,NA,1,6,"2,1,5,13,10,8,12,11,4,15,3,9,6,7,14"
14812,commdev-image-keyboard-response,347,664419,learnblock1,1200.1999999284744,img/planet15_left.png,15,Community 2,NA,TRUE,f,f,NA,NA,NA,1,6,"2,1,5,13,10,8,12,11,4,15,3,9,6,7,14"
14812,commdev-image-keyboard-response,351,738803,learnblock2,1072.2000000476837,img/planet7_left.png,7,Community 3,NA,TRUE,f,f,NA,NA,NA,1,6,"2,1,5,13,10,8,12,11,4,15,3,9,6,7,14"
14812,commdev-image-keyboard-response,352,740064,learnblock2,null,img/planet6_left.png,6,Community 3,NA,FALSE,null,f,NA,NA,NA,1,6,"2,1,5,13,10,8,12,11,4,15,3,9,6,7,14"
14812,commdev-image-keyboard-response,353,741321,learnblock2,912,img/planet9_left.png,9,Community 3,NA,TRUE,f,f,NA,NA,NA,1,6,"2,1,5,13,10,8,12,11,4,15,3,9,6,7,14"
14812,commdev-image-keyboard-response,354,742579,learnblock2,690.2000000476837,img/planet7_right.png,7,Community 3,NA,TRUE,j,j,NA,NA,NA,1,6,"2,1,5,13,10,8,12,11,4,15,3,9,6,7,14"
14812,commdev-image-keyboard-response,355,743838,learnblock2,695.8999999761581,img/planet9_left.png,9,Community 3,NA,TRUE,f,f,NA,NA,NA,1,6,"2,1,5,13,10,8,12,11,4,15,3,9,6,7,14"
14812,commdev-image-keyboard-response,356,745095,learnblock2,1036.3000000715256,img/planet14_left.png,14,Community 3,NA,TRUE,f,f,NA,NA,NA,1,6,"2,1,5,13,10,8,12,11,4,15,3,9,6,7,14"
14812,commdev-image-keyboard-response,357,746357,learnblock2,null,img/planet6_right.png,6,Community 3,NA,FALSE,null,j,NA,NA,NA,1,6,"2,1,5,13,10,8,12,11,4,15,3,9,6,7,14"
14812,commdev-image-keyboard-response,358,747616,learnblock2,151.80000007152557,img/planet7_right.png,7,Community 3,NA,TRUE,j,j,NA,NA,NA,1,6,"2,1,5,13,10,8,12,11,4,15,3,9,6,7,14"
14812,commdev-image-keyboard-response,359,748873,learnblock2,1041.2999999523163,img/planet3_left.png,3,Community 3,NA,TRUE,f,f,NA,NA,NA,1,6,"2,1,5,13,10,8,12,11,4,15,3,9,6,7,14"
14812,commdev-image-keyboard-response,360,750135,learnblock2,1185.2999999523163,img/planet14_left.png,14,Community 3,NA,TRUE,f,f,NA,NA,NA,1,6,"2,1,5,13,10,8,12,11,4,15,3,9,6,7,14"
14812,commdev-image-keyboard-response,361,751390,learnblock2,157.39999997615814,img/planet3_right.png,3,Community 3,NA,FALSE,f,j,NA,NA,NA,1,6,"2,1,5,13,10,8,12,11,4,15,3,9,6,7,14"
14812,commdev-image-keyboard-response,362,752662,learnblock2,892.5999999046326,img/planet7_left.png,7,Community 3,NA,TRUE,f,f,NA,NA,NA,1,6,"2,1,5,13,10,8,12,11,4,15,3,9,6,7,14"
14812,commdev-image-keyboard-response,363,753917,learnblock2,1119.7999999523163,img/planet9_left.png,9,Community 3,NA,TRUE,f,f,NA,NA,NA,1,6,"2,1,5,13,10,8,12,11,4,15,3,9,6,7,14"
14812,commdev-image-keyboard-response,364,755185,learnblock2,917.2999999523163,img/planet7_right.png,7,Community 3,NA,TRUE,j,j,NA,NA,NA,1,6,"2,1,5,13,10,8,12,11,4,15,3,9,6,7,14"
14812,commdev-image-keyboard-response,365,756446,learnblock2,1208.3999999761581,img/planet14_right.png,14,Community 3,NA,TRUE,j,j,NA,NA,NA,1,6,"2,1,5,13,10,8,12,11,4,15,3,9,6,7,14"
14812,commdev-image-keyboard-response,366,757707,learnblock2,null,img/planet6_left.png,6,Community 3,NA,FALSE,null,f,NA,NA,NA,1,6,"2,1,5,13,10,8,12,11,4,15,3,9,6,7,14"
14812,commdev-image-keyboard-response,367,758972,learnblock2,849.2999999523163,img/planet7_right.png,7,Community 3,NA,TRUE,j,j,NA,NA,NA,1,6,"2,1,5,13,10,8,12,11,4,15,3,9,6,7,14"
14812,commdev-image-keyboard-response,368,760232,learnblock2,889.7000000476837,img/planet9_right.png,9,Community 3,NA,TRUE,j,j,NA,NA,NA,1,6,"2,1,5,13,10,8,12,11,4,15,3,9,6,7,14"
14812,commdev-image-keyboard-response,369,761493,learnblock2,null,img/planet6_right.png,6,Community 3,NA,FALSE,null,j,NA,NA,NA,1,6,"2,1,5,13,10,8,12,11,4,15,3,9,6,7,14"
14812,commdev-image-keyboard-response,370,762749,learnblock2,842.1999999284744,img/planet9_left.png,9,Community 3,NA,TRUE,f,f,NA,NA,NA,1,6,"2,1,5,13,10,8,12,11,4,15,3,9,6,7,14"
14812,commdev-image-keyboard-response,371,764013,learnblock2,null,img/planet6_right.png,6,Community 3,NA,FALSE,null,j,NA,NA,NA,1,6,"2,1,5,13,10,8,12,11,4,15,3,9,6,7,14"
14812,commdev-image-keyboard-response,372,765272,learnblock2,169.79999995231628,img/planet14_left.png,14,Community 3,NA,FALSE,j,f,NA,NA,NA,1,6,"2,1,5,13,10,8,12,11,4,15,3,9,6,7,14"
14812,commdev-image-keyboard-response,373,766527,learnblock2,null,img/planet9_right.png,9,Community 3,NA,FALSE,null,j,NA,NA,NA,1,6,"2,1,5,13,10,8,12,11,4,15,3,9,6,7,14"
14812,commdev-image-keyboard-response,374,767785,learnblock2,54,img/planet7_right.png,7,Community 3,NA,TRUE,j,j,NA,NA,NA,1,6,"2,1,5,13,10,8,12,11,4,15,3,9,6,7,14"
14812,commdev-image-keyboard-response,375,769047,learnblock2,null,img/planet3_right.png,3,Community 3,NA,FALSE,null,j,NA,NA,NA,1,6,"2,1,5,13,10,8,12,11,4,15,3,9,6,7,14"
14812,commdev-image-keyboard-response,376,770312,learnblock2,34.90000009536743,img/planet14_left.png,14,Community 3,NA,FALSE,j,f,NA,NA,NA,1,6,"2,1,5,13,10,8,12,11,4,15,3,9,6,7,14"
14812,commdev-image-keyboard-response,377,771576,learnblock2,null,img/planet7_right.png,7,Community 3,NA,FALSE,null,j,NA,NA,NA,1,6,"2,1,5,13,10,8,12,11,4,15,3,9,6,7,14"
14812,commdev-image-keyboard-response,378,772845,learnblock2,null,img/planet3_right.png,3,Community 3,NA,FALSE,null,j,NA,NA,NA,1,6,"2,1,5,13,10,8,12,11,4,15,3,9,6,7,14"
14812,commdev-image-keyboard-response,379,774104,learnblock2,null,img/planet6_right.png,6,Community 3,NA,FALSE,null,j,NA,NA,NA,1,6,"2,1,5,13,10,8,12,11,4,15,3,9,6,7,14"
14812,commdev-image-keyboard-response,380,775374,learnblock2,884.2000000476837,img/planet7_left.png,7,Community 3,NA,TRUE,f,f,NA,NA,NA,1,6,"2,1,5,13,10,8,12,11,4,15,3,9,6,7,14"
14812,commdev-image-keyboard-response,381,776629,learnblock2,841.3999999761581,img/planet9_right.png,9,Community 3,NA,TRUE,j,j,NA,NA,NA,1,6,"2,1,5,13,10,8,12,11,4,15,3,9,6,7,14"
14812,commdev-image-keyboard-response,382,777886,learnblock2,null,img/planet6_right.png,6,Community 3,NA,FALSE,null,j,NA,NA,NA,1,6,"2,1,5,13,10,8,12,11,4,15,3,9,6,7,14"
14812,commdev-image-keyboard-response,383,779144,learnblock2,null,img/planet7_left.png,7,Community 3,NA,FALSE,null,f,NA,NA,NA,1,6,"2,1,5,13,10,8,12,11,4,15,3,9,6,7,14"
14812,commdev-image-keyboard-response,384,780405,learnblock2,132.69999992847443,img/planet14_right.png,14,Community 3,NA,FALSE,f,j,NA,NA,NA,1,6,"2,1,5,13,10,8,12,11,4,15,3,9,6,7,14"
14812,commdev-image-keyboard-response,385,781664,learnblock2,null,img/planet7_left.png,7,Community 3,NA,FALSE,null,f,NA,NA,NA,1,6,"2,1,5,13,10,8,12,11,4,15,3,9,6,7,14"
14812,commdev-image-keyboard-response,386,782925,learnblock2,164,img/planet6_right.png,6,Community 3,NA,FALSE,f,j,NA,NA,NA,1,6,"2,1,5,13,10,8,12,11,4,15,3,9,6,7,14"
14812,commdev-image-keyboard-response,387,784191,learnblock2,null,img/planet14_right.png,14,Community 3,NA,FALSE,null,j,NA,NA,NA,1,6,"2,1,5,13,10,8,12,11,4,15,3,9,6,7,14"
14812,commdev-image-keyboard-response,388,785449,learnblock2,183.90000009536743,img/planet3_right.png,3,Community 3,NA,TRUE,j,j,NA,NA,NA,1,6,"2,1,5,13,10,8,12,11,4,15,3,9,6,7,14"
14812,commdev-image-keyboard-response,389,786721,learnblock2,585.2999999523163,img/planet7_right.png,7,Community 3,NA,TRUE,j,j,NA,NA,NA,1,6,"2,1,5,13,10,8,12,11,4,15,3,9,6,7,14"
14812,commdev-image-keyboard-response,390,787980,learnblock2,1079.5,img/planet3_left.png,3,Community 3,NA,TRUE,f,f,NA,NA,NA,1,6,"2,1,5,13,10,8,12,11,4,15,3,9,6,7,14"
14812,commdev-image-keyboard-response,391,789239,learnblock2,null,img/planet6_right.png,6,Community 3,NA,FALSE,null,j,NA,NA,NA,1,6,"2,1,5,13,10,8,12,11,4,15,3,9,6,7,14"
14812,commdev-image-keyboard-response,392,790496,learnblock2,1223.1000000238419,img/planet3_right.png,3,Community 3,NA,TRUE,j,j,NA,NA,NA,1,6,"2,1,5,13,10,8,12,11,4,15,3,9,6,7,14"
14812,commdev-image-keyboard-response,393,791752,learnblock2,null,img/planet14_right.png,14,Community 3,NA,FALSE,null,j,NA,NA,NA,1,6,"2,1,5,13,10,8,12,11,4,15,3,9,6,7,14"
14812,commdev-image-keyboard-response,394,793014,learnblock2,242.09999990463257,img/planet6_right.png,6,Community 3,NA,TRUE,j,j,NA,NA,NA,1,6,"2,1,5,13,10,8,12,11,4,15,3,9,6,7,14"
14812,commdev-image-keyboard-response,395,794271,learnblock2,null,img/planet14_left.png,14,Community 3,NA,FALSE,null,f,NA,NA,NA,1,6,"2,1,5,13,10,8,12,11,4,15,3,9,6,7,14"
14812,commdev-image-keyboard-response,396,795530,learnblock2,116.5,img/planet9_right.png,9,Community 3,NA,FALSE,f,j,NA,NA,NA,1,6,"2,1,5,13,10,8,12,11,4,15,3,9,6,7,14"
14812,commdev-image-keyboard-response,397,796800,learnblock2,null,img/planet14_right.png,14,Community 3,NA,FALSE,null,j,NA,NA,NA,1,6,"2,1,5,13,10,8,12,11,4,15,3,9,6,7,14"
14812,commdev-image-keyboard-response,398,798065,learnblock2,null,img/planet6_left.png,6,Community 3,NA,FALSE,null,f,NA,NA,NA,1,6,"2,1,5,13,10,8,12,11,4,15,3,9,6,7,14"
14812,commdev-image-keyboard-response,399,799320,learnblock2,null,img/planet14_right.png,14,Community 3,NA,FALSE,null,j,NA,NA,NA,1,6,"2,1,5,13,10,8,12,11,4,15,3,9,6,7,14"
14812,commdev-image-keyboard-response,400,800574,learnblock2,null,img/planet9_left.png,9,Community 3,NA,FALSE,null,f,NA,NA,NA,1,6,"2,1,5,13,10,8,12,11,4,15,3,9,6,7,14"
14812,commdev-image-keyboard-response,401,801830,learnblock2,45.60000002384186,img/planet7_right.png,7,Community 3,NA,FALSE,f,j,NA,NA,NA,1,6,"2,1,5,13,10,8,12,11,4,15,3,9,6,7,14"
14812,commdev-image-keyboard-response,402,803096,learnblock2,1183.1999999284744,img/planet14_left.png,14,Community 3,NA,TRUE,f,f,NA,NA,NA,1,6,"2,1,5,13,10,8,12,11,4,15,3,9,6,7,14"
14812,commdev-image-keyboard-response,403,804358,learnblock2,1224.7999999523163,img/planet3_left.png,3,Community 3,NA,TRUE,f,f,NA,NA,NA,1,6,"2,1,5,13,10,8,12,11,4,15,3,9,6,7,14"
14812,commdev-image-keyboard-response,404,805616,learnblock2,null,img/planet7_right.png,7,Community 3,NA,FALSE,null,j,NA,NA,NA,1,6,"2,1,5,13,10,8,12,11,4,15,3,9,6,7,14"
14812,commdev-image-keyboard-response,405,806884,learnblock2,878.5,img/planet9_left.png,9,Community 3,NA,TRUE,f,f,NA,NA,NA,1,6,"2,1,5,13,10,8,12,11,4,15,3,9,6,7,14"
14812,commdev-image-keyboard-response,406,808140,learnblock2,1144.3999999761581,img/planet11_right.png,11,Community 2,NA,TRUE,j,j,NA,NA,NA,1,6,"2,1,5,13,10,8,12,11,4,15,3,9,6,7,14"
14812,commdev-image-keyboard-response,407,809396,learnblock2,1161.2000000476837,img/planet12_left.png,12,Community 2,NA,TRUE,f,f,NA,NA,NA,1,6,"2,1,5,13,10,8,12,11,4,15,3,9,6,7,14"
14812,commdev-image-keyboard-response,408,810650,learnblock2,1037.1999999284744,img/planet11_right.png,11,Community 2,NA,TRUE,j,j,NA,NA,NA,1,6,"2,1,5,13,10,8,12,11,4,15,3,9,6,7,14"
14812,commdev-image-keyboard-response,409,811910,learnblock2,847.3999999761581,img/planet9_left.png,9,Community 3,NA,TRUE,f,f,NA,NA,NA,1,6,"2,1,5,13,10,8,12,11,4,15,3,9,6,7,14"
14812,commdev-image-keyboard-response,410,813174,learnblock2,1259.4000000953674,img/planet7_right.png,7,Community 3,NA,FALSE,f,j,NA,NA,NA,1,6,"2,1,5,13,10,8,12,11,4,15,3,9,6,7,14"
14812,commdev-image-keyboard-response,411,814429,learnblock2,1116.6999999284744,img/planet9_right.png,9,Community 3,NA,TRUE,j,j,NA,NA,NA,1,6,"2,1,5,13,10,8,12,11,4,15,3,9,6,7,14"
14812,commdev-image-keyboard-response,412,815693,learnblock2,941.7000000476837,img/planet7_left.png,7,Community 3,NA,TRUE,f,f,NA,NA,NA,1,6,"2,1,5,13,10,8,12,11,4,15,3,9,6,7,14"
14812,commdev-image-keyboard-response,413,816955,learnblock2,null,img/planet9_left.png,9,Community 3,NA,FALSE,null,f,NA,NA,NA,1,6,"2,1,5,13,10,8,12,11,4,15,3,9,6,7,14"
14812,commdev-image-keyboard-response,414,818211,learnblock2,214.39999997615814,img/planet11_left.png,11,Community 2,NA,TRUE,f,f,NA,NA,NA,1,6,"2,1,5,13,10,8,12,11,4,15,3,9,6,7,14"
14812,commdev-image-keyboard-response,415,819472,learnblock2,340.39999997615814,img/planet4_right.png,4,Community 2,NA,FALSE,f,j,NA,NA,NA,1,6,"2,1,5,13,10,8,12,11,4,15,3,9,6,7,14"
14812,commdev-image-keyboard-response,416,820732,learnblock2,298.39999997615814,img/planet12_left.png,12,Community 2,NA,FALSE,j,f,NA,NA,NA,1,6,"2,1,5,13,10,8,12,11,4,15,3,9,6,7,14"
14812,commdev-image-keyboard-response,417,821994,learnblock2,1124.7000000476837,img/planet4_right.png,4,Community 2,NA,TRUE,j,j,NA,NA,NA,1,6,"2,1,5,13,10,8,12,11,4,15,3,9,6,7,14"
14812,commdev-image-keyboard-response,418,823252,learnblock2,null,img/planet11_left.png,11,Community 2,NA,FALSE,null,f,NA,NA,NA,1,6,"2,1,5,13,10,8,12,11,4,15,3,9,6,7,14"
14812,commdev-image-keyboard-response,419,824509,learnblock2,69,img/planet9_right.png,9,Community 3,NA,FALSE,f,j,NA,NA,NA,1,6,"2,1,5,13,10,8,12,11,4,15,3,9,6,7,14"
14812,commdev-image-keyboard-response,420,825776,learnblock2,null,img/planet11_right.png,11,Community 2,NA,FALSE,null,j,NA,NA,NA,1,6,"2,1,5,13,10,8,12,11,4,15,3,9,6,7,14"
14812,commdev-image-keyboard-response,421,827035,learnblock2,null,img/planet12_left.png,12,Community 2,NA,FALSE,null,f,NA,NA,NA,1,6,"2,1,5,13,10,8,12,11,4,15,3,9,6,7,14"
14812,commdev-image-keyboard-response,422,828291,learnblock2,40.799999952316284,img/planet4_right.png,4,Community 2,NA,FALSE,f,j,NA,NA,NA,1,6,"2,1,5,13,10,8,12,11,4,15,3,9,6,7,14"
14812,commdev-image-keyboard-response,423,829551,learnblock2,898.8000000715256,img/planet12_left.png,12,Community 2,NA,TRUE,f,f,NA,NA,NA,1,6,"2,1,5,13,10,8,12,11,4,15,3,9,6,7,14"
14812,commdev-image-keyboard-response,424,830807,learnblock2,null,img/planet11_left.png,11,Community 2,NA,FALSE,null,f,NA,NA,NA,1,6,"2,1,5,13,10,8,12,11,4,15,3,9,6,7,14"
14812,commdev-image-keyboard-response,425,832068,learnblock2,null,img/planet15_left.png,15,Community 2,NA,FALSE,null,f,NA,NA,NA,1,6,"2,1,5,13,10,8,12,11,4,15,3,9,6,7,14"
14812,commdev-image-keyboard-response,426,833328,learnblock2,57.300000071525574,img/planet8_right.png,8,Community 2,NA,FALSE,f,j,NA,NA,NA,1,6,"2,1,5,13,10,8,12,11,4,15,3,9,6,7,14"
14812,commdev-image-keyboard-response,427,834587,learnblock2,940.2000000476837,img/planet15_left.png,15,Community 2,NA,TRUE,f,f,NA,NA,NA,1,6,"2,1,5,13,10,8,12,11,4,15,3,9,6,7,14"
14812,commdev-image-keyboard-response,428,835850,learnblock2,1256.6000000238419,img/planet12_right.png,12,Community 2,NA,TRUE,j,j,NA,NA,NA,1,6,"2,1,5,13,10,8,12,11,4,15,3,9,6,7,14"
14812,commdev-image-keyboard-response,429,837112,learnblock2,null,img/planet11_right.png,11,Community 2,NA,FALSE,null,j,NA,NA,NA,1,6,"2,1,5,13,10,8,12,11,4,15,3,9,6,7,14"
14812,commdev-image-keyboard-response,430,838374,learnblock2,385.5,img/planet4_left.png,4,Community 2,NA,FALSE,j,f,NA,NA,NA,1,6,"2,1,5,13,10,8,12,11,4,15,3,9,6,7,14"
14812,commdev-image-keyboard-response,431,839629,learnblock2,null,img/planet15_left.png,15,Community 2,NA,FALSE,null,f,NA,NA,NA,1,6,"2,1,5,13,10,8,12,11,4,15,3,9,6,7,14"
14812,commdev-image-keyboard-response,432,840886,learnblock2,151,img/planet12_left.png,12,Community 2,NA,TRUE,f,f,NA,NA,NA,1,6,"2,1,5,13,10,8,12,11,4,15,3,9,6,7,14"
14812,commdev-image-keyboard-response,433,842143,learnblock2,null,img/planet11_left.png,11,Community 2,NA,FALSE,null,f,NA,NA,NA,1,6,"2,1,5,13,10,8,12,11,4,15,3,9,6,7,14"
14812,commdev-image-keyboard-response,434,843399,learnblock2,null,img/planet15_left.png,15,Community 2,NA,FALSE,null,f,NA,NA,NA,1,6,"2,1,5,13,10,8,12,11,4,15,3,9,6,7,14"
14812,commdev-image-keyboard-response,435,844654,learnblock2,null,img/planet12_right.png,12,Community 2,NA,FALSE,null,j,NA,NA,NA,1,6,"2,1,5,13,10,8,12,11,4,15,3,9,6,7,14"
14812,commdev-image-keyboard-response,436,845912,learnblock2,null,img/planet11_left.png,11,Community 2,NA,FALSE,null,f,NA,NA,NA,1,6,"2,1,5,13,10,8,12,11,4,15,3,9,6,7,14"
14812,commdev-image-keyboard-response,437,847168,learnblock2,null,img/planet12_right.png,12,Community 2,NA,FALSE,null,j,NA,NA,NA,1,6,"2,1,5,13,10,8,12,11,4,15,3,9,6,7,14"
14812,commdev-image-keyboard-response,438,848429,learnblock2,389.8000000715256,img/planet8_left.png,8,Community 2,NA,FALSE,j,f,NA,NA,NA,1,6,"2,1,5,13,10,8,12,11,4,15,3,9,6,7,14"
14812,commdev-image-keyboard-response,439,849690,learnblock2,43.699999928474426,img/planet12_right.png,12,Community 2,NA,FALSE,f,j,NA,NA,NA,1,6,"2,1,5,13,10,8,12,11,4,15,3,9,6,7,14"
14812,commdev-image-keyboard-response,440,850948,learnblock2,332.2000000476837,img/planet15_left.png,15,Community 2,NA,FALSE,j,f,NA,NA,NA,1,6,"2,1,5,13,10,8,12,11,4,15,3,9,6,7,14"
14812,commdev-image-keyboard-response,441,852210,learnblock2,412.09999990463257,img/planet4_right.png,4,Community 2,NA,FALSE,f,j,NA,NA,NA,1,6,"2,1,5,13,10,8,12,11,4,15,3,9,6,7,14"
14812,commdev-image-keyboard-response,442,853464,learnblock2,1078.6000000238419,img/planet8_left.png,8,Community 2,NA,TRUE,f,f,NA,NA,NA,1,6,"2,1,5,13,10,8,12,11,4,15,3,9,6,7,14"
14812,commdev-image-keyboard-response,443,854732,learnblock2,null,img/planet4_left.png,4,Community 2,NA,FALSE,null,f,NA,NA,NA,1,6,"2,1,5,13,10,8,12,11,4,15,3,9,6,7,14"
14812,commdev-image-keyboard-response,444,855986,learnblock2,205.70000004768372,img/planet15_left.png,15,Community 2,NA,TRUE,f,f,NA,NA,NA,1,6,"2,1,5,13,10,8,12,11,4,15,3,9,6,7,14"
14812,commdev-image-keyboard-response,445,857249,learnblock2,null,img/planet8_left.png,8,Community 2,NA,FALSE,null,f,NA,NA,NA,1,6,"2,1,5,13,10,8,12,11,4,15,3,9,6,7,14"
14812,commdev-image-keyboard-response,446,858505,learnblock2,null,img/planet15_left.png,15,Community 2,NA,FALSE,null,f,NA,NA,NA,1,6,"2,1,5,13,10,8,12,11,4,15,3,9,6,7,14"
14812,commdev-image-keyboard-response,447,859766,learnblock2,null,img/planet8_right.png,8,Community 2,NA,FALSE,null,j,NA,NA,NA,1,6,"2,1,5,13,10,8,12,11,4,15,3,9,6,7,14"
14812,commdev-image-keyboard-response,448,861024,learnblock2,null,img/planet13_right.png,13,Community 1,NA,FALSE,null,j,NA,NA,NA,1,6,"2,1,5,13,10,8,12,11,4,15,3,9,6,7,14"
14812,commdev-image-keyboard-response,449,862280,learnblock2,null,img/planet1_right.png,1,Community 1,NA,FALSE,null,j,NA,NA,NA,1,6,"2,1,5,13,10,8,12,11,4,15,3,9,6,7,14"
14812,commdev-image-keyboard-response,450,863543,learnblock2,800,img/planet2_left.png,2,Community 1,NA,TRUE,f,f,NA,NA,NA,1,6,"2,1,5,13,10,8,12,11,4,15,3,9,6,7,14"
14812,commdev-image-keyboard-response,451,864803,learnblock2,1088.6000000238419,img/planet13_left.png,13,Community 1,NA,TRUE,f,f,NA,NA,NA,1,6,"2,1,5,13,10,8,12,11,4,15,3,9,6,7,14"
14812,commdev-image-keyboard-response,452,866060,learnblock2,1119.3000000715256,img/planet2_left.png,2,Community 1,NA,TRUE,f,f,NA,NA,NA,1,6,"2,1,5,13,10,8,12,11,4,15,3,9,6,7,14"
14812,commdev-image-keyboard-response,453,867314,learnblock2,null,img/planet1_left.png,1,Community 1,NA,FALSE,null,f,NA,NA,NA,1,6,"2,1,5,13,10,8,12,11,4,15,3,9,6,7,14"
14812,commdev-image-keyboard-response,454,868573,learnblock2,1152.8000000715256,img/planet10_left.png,10,Community 1,NA,TRUE,f,f,NA,NA,NA,1,6,"2,1,5,13,10,8,12,11,4,15,3,9,6,7,14"
14812,commdev-image-keyboard-response,455,869830,learnblock2,1170.5,img/planet3_right.png,3,Community 3,NA,TRUE,j,j,NA,NA,NA,1,6,"2,1,5,13,10,8,12,11,4,15,3,9,6,7,14"
14812,commdev-image-keyboard-response,456,871086,learnblock2,null,img/planet6_left.png,6,Community 3,NA,FALSE,null,f,NA,NA,NA,1,6,"2,1,5,13,10,8,12,11,4,15,3,9,6,7,14"
14812,commdev-image-keyboard-response,457,872346,learnblock2,1157.1000000238419,img/planet9_right.png,9,Community 3,NA,TRUE,j,j,NA,NA,NA,1,6,"2,1,5,13,10,8,12,11,4,15,3,9,6,7,14"
14812,commdev-image-keyboard-response,458,873604,learnblock2,null,img/planet6_right.png,6,Community 3,NA,FALSE,null,j,NA,NA,NA,1,6,"2,1,5,13,10,8,12,11,4,15,3,9,6,7,14"
14812,commdev-image-keyboard-response,459,874862,learnblock2,1211,img/planet9_right.png,9,Community 3,NA,TRUE,j,j,NA,NA,NA,1,6,"2,1,5,13,10,8,12,11,4,15,3,9,6,7,14"
14812,commdev-image-keyboard-response,460,876125,learnblock2,null,img/planet11_right.png,11,Community 2,NA,FALSE,null,j,NA,NA,NA,1,6,"2,1,5,13,10,8,12,11,4,15,3,9,6,7,14"
14812,commdev-image-keyboard-response,461,877388,learnblock2,null,img/planet9_left.png,9,Community 3,NA,FALSE,null,f,NA,NA,NA,1,6,"2,1,5,13,10,8,12,11,4,15,3,9,6,7,14"
14812,commdev-image-keyboard-response,462,878648,learnblock2,null,img/planet11_left.png,11,Community 2,NA,FALSE,null,f,NA,NA,NA,1,6,"2,1,5,13,10,8,12,11,4,15,3,9,6,7,14"
14812,commdev-image-keyboard-response,463,879911,learnblock2,332.10000002384186,img/planet15_right.png,15,Community 2,NA,FALSE,f,j,NA,NA,NA,1,6,"2,1,5,13,10,8,12,11,4,15,3,9,6,7,14"
14812,commdev-image-keyboard-response,464,881169,learnblock2,null,img/planet4_right.png,4,Community 2,NA,FALSE,null,j,NA,NA,NA,1,6,"2,1,5,13,10,8,12,11,4,15,3,9,6,7,14"
14812,commdev-image-keyboard-response,465,882426,learnblock2,null,img/planet8_right.png,8,Community 2,NA,FALSE,null,j,NA,NA,NA,1,6,"2,1,5,13,10,8,12,11,4,15,3,9,6,7,14"
14812,commdev-image-keyboard-response,466,883682,learnblock2,null,img/planet4_right.png,4,Community 2,NA,FALSE,null,j,NA,NA,NA,1,6,"2,1,5,13,10,8,12,11,4,15,3,9,6,7,14"
14812,commdev-image-keyboard-response,467,884935,learnblock2,1007.6999999284744,img/planet12_left.png,12,Community 2,NA,FALSE,j,f,NA,NA,NA,1,6,"2,1,5,13,10,8,12,11,4,15,3,9,6,7,14"
14812,commdev-image-keyboard-response,468,886195,learnblock2,1070,img/planet4_left.png,4,Community 2,NA,TRUE,f,f,NA,NA,NA,1,6,"2,1,5,13,10,8,12,11,4,15,3,9,6,7,14"
14812,commdev-image-keyboard-response,469,887463,learnblock2,475.60000002384186,img/planet15_left.png,15,Community 2,NA,TRUE,f,f,NA,NA,NA,1,6,"2,1,5,13,10,8,12,11,4,15,3,9,6,7,14"
14812,commdev-image-keyboard-response,470,888716,learnblock2,null,img/planet4_right.png,4,Community 2,NA,FALSE,null,j,NA,NA,NA,1,6,"2,1,5,13,10,8,12,11,4,15,3,9,6,7,14"
14812,commdev-image-keyboard-response,471,889977,learnblock2,null,img/planet12_right.png,12,Community 2,NA,FALSE,null,j,NA,NA,NA,1,6,"2,1,5,13,10,8,12,11,4,15,3,9,6,7,14"
14812,commdev-image-keyboard-response,472,891230,learnblock2,33,img/planet4_left.png,4,Community 2,NA,FALSE,j,f,NA,NA,NA,1,6,"2,1,5,13,10,8,12,11,4,15,3,9,6,7,14"
14812,commdev-image-keyboard-response,473,892500,learnblock2,null,img/planet12_left.png,12,Community 2,NA,FALSE,null,f,NA,NA,NA,1,6,"2,1,5,13,10,8,12,11,4,15,3,9,6,7,14"
14812,commdev-image-keyboard-response,474,893756,learnblock2,789.8999999761581,img/planet15_left.png,15,Community 2,NA,TRUE,f,f,NA,NA,NA,1,6,"2,1,5,13,10,8,12,11,4,15,3,9,6,7,14"
14812,commdev-image-keyboard-response,475,895010,learnblock2,1083.8999999761581,img/planet8_left.png,8,Community 2,NA,TRUE,f,f,NA,NA,NA,1,6,"2,1,5,13,10,8,12,11,4,15,3,9,6,7,14"
14812,commdev-image-keyboard-response,476,896269,learnblock2,null,img/planet13_right.png,13,Community 1,NA,FALSE,null,j,NA,NA,NA,1,6,"2,1,5,13,10,8,12,11,4,15,3,9,6,7,14"
14812,commdev-image-keyboard-response,477,897524,learnblock2,82.60000002384186,img/planet2_left.png,2,Community 1,NA,FALSE,j,f,NA,NA,NA,1,6,"2,1,5,13,10,8,12,11,4,15,3,9,6,7,14"
14812,commdev-image-keyboard-response,478,898780,learnblock2,1245.9000000953674,img/planet1_left.png,1,Community 1,NA,TRUE,f,f,NA,NA,NA,1,6,"2,1,5,13,10,8,12,11,4,15,3,9,6,7,14"
14812,commdev-image-keyboard-response,479,900035,learnblock2,null,img/planet10_left.png,10,Community 1,NA,FALSE,null,f,NA,NA,NA,1,6,"2,1,5,13,10,8,12,11,4,15,3,9,6,7,14"
14812,commdev-image-keyboard-response,480,901291,learnblock2,143.20000004768372,img/planet2_right.png,2,Community 1,NA,FALSE,f,j,NA,NA,NA,1,6,"2,1,5,13,10,8,12,11,4,15,3,9,6,7,14"
14812,commdev-image-keyboard-response,481,902556,learnblock2,809.7999999523163,img/planet10_right.png,10,Community 1,NA,TRUE,j,j,NA,NA,NA,1,6,"2,1,5,13,10,8,12,11,4,15,3,9,6,7,14"
14812,commdev-image-keyboard-response,482,903815,learnblock2,null,img/planet5_left.png,5,Community 1,NA,FALSE,null,f,NA,NA,NA,1,6,"2,1,5,13,10,8,12,11,4,15,3,9,6,7,14"
14812,commdev-image-keyboard-response,483,905084,learnblock2,248.70000004768372,img/planet13_right.png,13,Community 1,NA,FALSE,f,j,NA,NA,NA,1,6,"2,1,5,13,10,8,12,11,4,15,3,9,6,7,14"
14812,commdev-image-keyboard-response,484,906338,learnblock2,743.7000000476837,img/planet2_right.png,2,Community 1,NA,TRUE,j,j,NA,NA,NA,1,6,"2,1,5,13,10,8,12,11,4,15,3,9,6,7,14"
14812,commdev-image-keyboard-response,485,907592,learnblock2,1211.6000000238419,img/planet1_right.png,1,Community 1,NA,FALSE,f,j,NA,NA,NA,1,6,"2,1,5,13,10,8,12,11,4,15,3,9,6,7,14"
14812,commdev-image-keyboard-response,486,908851,learnblock2,1033.3999999761581,img/planet2_right.png,2,Community 1,NA,TRUE,j,j,NA,NA,NA,1,6,"2,1,5,13,10,8,12,11,4,15,3,9,6,7,14"
14812,commdev-image-keyboard-response,487,910106,learnblock2,1044.5,img/planet5_right.png,5,Community 1,NA,TRUE,j,j,NA,NA,NA,1,6,"2,1,5,13,10,8,12,11,4,15,3,9,6,7,14"
14812,commdev-image-keyboard-response,488,911364,learnblock2,1006.1000000238419,img/planet10_left.png,10,Community 1,NA,TRUE,f,f,NA,NA,NA,1,6,"2,1,5,13,10,8,12,11,4,15,3,9,6,7,14"
14812,commdev-image-keyboard-response,489,912634,learnblock2,null,img/planet2_right.png,2,Community 1,NA,FALSE,null,j,NA,NA,NA,1,6,"2,1,5,13,10,8,12,11,4,15,3,9,6,7,14"
14812,commdev-image-keyboard-response,490,913896,learnblock2,37.5,img/planet1_right.png,1,Community 1,NA,FALSE,f,j,NA,NA,NA,1,6,"2,1,5,13,10,8,12,11,4,15,3,9,6,7,14"
14812,commdev-image-keyboard-response,491,915156,learnblock2,915.5,img/planet2_right.png,2,Community 1,NA,TRUE,j,j,NA,NA,NA,1,6,"2,1,5,13,10,8,12,11,4,15,3,9,6,7,14"
14812,commdev-image-keyboard-response,492,916426,learnblock2,null,img/planet10_right.png,10,Community 1,NA,FALSE,null,j,NA,NA,NA,1,6,"2,1,5,13,10,8,12,11,4,15,3,9,6,7,14"
14812,commdev-image-keyboard-response,493,917687,learnblock2,null,img/planet3_right.png,3,Community 3,NA,FALSE,null,j,NA,NA,NA,1,6,"2,1,5,13,10,8,12,11,4,15,3,9,6,7,14"
14812,commdev-image-keyboard-response,494,918946,learnblock2,46,img/planet10_right.png,10,Community 1,NA,TRUE,j,j,NA,NA,NA,1,6,"2,1,5,13,10,8,12,11,4,15,3,9,6,7,14"
14812,commdev-image-keyboard-response,495,920205,learnblock2,284.10000002384186,img/planet1_right.png,1,Community 1,NA,TRUE,j,j,NA,NA,NA,1,6,"2,1,5,13,10,8,12,11,4,15,3,9,6,7,14"
14812,commdev-image-keyboard-response,496,921465,learnblock2,736.8000000715256,img/planet10_right.png,10,Community 1,NA,TRUE,j,j,NA,NA,NA,1,6,"2,1,5,13,10,8,12,11,4,15,3,9,6,7,14"
14812,commdev-image-keyboard-response,497,922723,learnblock2,960.7999999523163,img/planet5_left.png,5,Community 1,NA,TRUE,f,f,NA,NA,NA,1,6,"2,1,5,13,10,8,12,11,4,15,3,9,6,7,14"
14812,commdev-image-keyboard-response,498,923982,learnblock2,1150.8999999761581,img/planet2_left.png,2,Community 1,NA,TRUE,f,f,NA,NA,NA,1,6,"2,1,5,13,10,8,12,11,4,15,3,9,6,7,14"
14812,commdev-image-keyboard-response,499,925244,learnblock2,null,img/planet5_right.png,5,Community 1,NA,FALSE,null,j,NA,NA,NA,1,6,"2,1,5,13,10,8,12,11,4,15,3,9,6,7,14"
14812,commdev-image-keyboard-response,500,926502,learnblock2,225.5,img/planet2_right.png,2,Community 1,NA,TRUE,j,j,NA,NA,NA,1,6,"2,1,5,13,10,8,12,11,4,15,3,9,6,7,14"
14812,commdev-image-keyboard-response,501,927764,learnblock2,null,img/planet5_left.png,5,Community 1,NA,FALSE,null,f,NA,NA,NA,1,6,"2,1,5,13,10,8,12,11,4,15,3,9,6,7,14"
14812,commdev-image-keyboard-response,502,929023,learnblock2,780,img/planet2_left.png,2,Community 1,NA,TRUE,f,f,NA,NA,NA,1,6,"2,1,5,13,10,8,12,11,4,15,3,9,6,7,14"
14812,commdev-image-keyboard-response,503,930277,learnblock2,null,img/planet1_left.png,1,Community 1,NA,FALSE,null,f,NA,NA,NA,1,6,"2,1,5,13,10,8,12,11,4,15,3,9,6,7,14"
14812,commdev-image-keyboard-response,504,931532,learnblock2,423.89999997615814,img/planet13_left.png,13,Community 1,NA,TRUE,f,f,NA,NA,NA,1,6,"2,1,5,13,10,8,12,11,4,15,3,9,6,7,14"
14812,commdev-image-keyboard-response,505,932797,learnblock2,891.7000000476837,img/planet8_right.png,8,Community 2,NA,TRUE,j,j,NA,NA,NA,1,6,"2,1,5,13,10,8,12,11,4,15,3,9,6,7,14"
14812,commdev-image-keyboard-response,506,934060,learnblock2,882.1000000238419,img/planet4_left.png,4,Community 2,NA,TRUE,f,f,NA,NA,NA,1,6,"2,1,5,13,10,8,12,11,4,15,3,9,6,7,14"
14812,commdev-image-keyboard-response,507,935319,learnblock2,1032.1999999284744,img/planet12_left.png,12,Community 2,NA,TRUE,f,f,NA,NA,NA,1,6,"2,1,5,13,10,8,12,11,4,15,3,9,6,7,14"
14812,commdev-image-keyboard-response,508,936573,learnblock2,null,img/planet11_right.png,11,Community 2,NA,FALSE,null,j,NA,NA,NA,1,6,"2,1,5,13,10,8,12,11,4,15,3,9,6,7,14"
14812,commdev-image-keyboard-response,509,937831,learnblock2,943.6000000238419,img/planet15_left.png,15,Community 2,NA,TRUE,f,f,NA,NA,NA,1,6,"2,1,5,13,10,8,12,11,4,15,3,9,6,7,14"
14812,commdev-image-keyboard-response,510,939088,learnblock2,1169.7000000476837,img/planet12_left.png,12,Community 2,NA,TRUE,f,f,NA,NA,NA,1,6,"2,1,5,13,10,8,12,11,4,15,3,9,6,7,14"
14812,commdev-image-keyboard-response,511,940349,learnblock2,1074.2999999523163,img/planet11_right.png,11,Community 2,NA,TRUE,j,j,NA,NA,NA,1,6,"2,1,5,13,10,8,12,11,4,15,3,9,6,7,14"
14812,commdev-image-keyboard-response,512,941611,learnblock2,1193.0999999046326,img/planet4_right.png,4,Community 2,NA,TRUE,j,j,NA,NA,NA,1,6,"2,1,5,13,10,8,12,11,4,15,3,9,6,7,14"
14812,commdev-image-keyboard-response,513,942872,learnblock2,1046.1000000238419,img/planet8_left.png,8,Community 2,NA,TRUE,f,f,NA,NA,NA,1,6,"2,1,5,13,10,8,12,11,4,15,3,9,6,7,14"
14812,commdev-image-keyboard-response,514,944131,learnblock2,1204.1000000238419,img/planet13_left.png,13,Community 1,NA,TRUE,f,f,NA,NA,NA,1,6,"2,1,5,13,10,8,12,11,4,15,3,9,6,7,14"
14812,commdev-image-keyboard-response,515,945392,learnblock2,231.60000002384186,img/planet1_left.png,1,Community 1,NA,TRUE,f,f,NA,NA,NA,1,6,"2,1,5,13,10,8,12,11,4,15,3,9,6,7,14"
14812,commdev-image-keyboard-response,516,946646,learnblock2,1110.8999999761581,img/planet5_left.png,5,Community 1,NA,TRUE,f,f,NA,NA,NA,1,6,"2,1,5,13,10,8,12,11,4,15,3,9,6,7,14"
14812,commdev-image-keyboard-response,517,947902,learnblock2,1051,img/planet10_right.png,10,Community 1,NA,TRUE,j,j,NA,NA,NA,1,6,"2,1,5,13,10,8,12,11,4,15,3,9,6,7,14"
14812,commdev-image-keyboard-response,518,949160,learnblock2,null,img/planet3_left.png,3,Community 3,NA,FALSE,null,f,NA,NA,NA,1,6,"2,1,5,13,10,8,12,11,4,15,3,9,6,7,14"
14812,commdev-image-keyboard-response,519,950418,learnblock2,60.5,img/planet7_right.png,7,Community 3,NA,TRUE,j,j,NA,NA,NA,1,6,"2,1,5,13,10,8,12,11,4,15,3,9,6,7,14"
14812,commdev-image-keyboard-response,520,951678,learnblock2,null,img/planet14_right.png,14,Community 3,NA,FALSE,null,j,NA,NA,NA,1,6,"2,1,5,13,10,8,12,11,4,15,3,9,6,7,14"
14812,commdev-image-keyboard-response,521,952932,learnblock2,null,img/planet3_left.png,3,Community 3,NA,FALSE,null,f,NA,NA,NA,1,6,"2,1,5,13,10,8,12,11,4,15,3,9,6,7,14"
14812,commdev-image-keyboard-response,522,954189,learnblock2,985.1000000238419,img/planet6_right.png,6,Community 3,NA,TRUE,j,j,NA,NA,NA,1,6,"2,1,5,13,10,8,12,11,4,15,3,9,6,7,14"
14812,commdev-image-keyboard-response,523,955456,learnblock2,null,img/planet9_right.png,9,Community 3,NA,FALSE,null,j,NA,NA,NA,1,6,"2,1,5,13,10,8,12,11,4,15,3,9,6,7,14"
14812,commdev-image-keyboard-response,524,956710,learnblock2,null,img/planet6_right.png,6,Community 3,NA,FALSE,null,j,NA,NA,NA,1,6,"2,1,5,13,10,8,12,11,4,15,3,9,6,7,14"
14812,commdev-image-keyboard-response,525,957967,learnblock2,1248.8999999761581,img/planet9_right.png,9,Community 3,NA,TRUE,j,j,NA,NA,NA,1,6,"2,1,5,13,10,8,12,11,4,15,3,9,6,7,14"
14812,commdev-image-keyboard-response,526,959227,learnblock2,null,img/planet11_right.png,11,Community 2,NA,FALSE,null,j,NA,NA,NA,1,6,"2,1,5,13,10,8,12,11,4,15,3,9,6,7,14"
14812,commdev-image-keyboard-response,527,960488,learnblock2,358.89999997615814,img/planet4_left.png,4,Community 2,NA,FALSE,j,f,NA,NA,NA,1,6,"2,1,5,13,10,8,12,11,4,15,3,9,6,7,14"
14812,commdev-image-keyboard-response,528,961749,learnblock2,null,img/planet8_left.png,8,Community 2,NA,FALSE,null,f,NA,NA,NA,1,6,"2,1,5,13,10,8,12,11,4,15,3,9,6,7,14"
14812,commdev-image-keyboard-response,529,963007,learnblock2,null,img/planet4_right.png,4,Community 2,NA,FALSE,null,j,NA,NA,NA,1,6,"2,1,5,13,10,8,12,11,4,15,3,9,6,7,14"
14812,commdev-image-keyboard-response,530,964269,learnblock2,null,img/planet11_left.png,11,Community 2,NA,FALSE,null,f,NA,NA,NA,1,6,"2,1,5,13,10,8,12,11,4,15,3,9,6,7,14"
14812,commdev-image-keyboard-response,531,965531,learnblock2,null,img/planet15_right.png,15,Community 2,NA,FALSE,null,j,NA,NA,NA,1,6,"2,1,5,13,10,8,12,11,4,15,3,9,6,7,14"
14812,commdev-image-keyboard-response,532,966796,learnblock2,391.39999997615814,img/planet12_left.png,12,Community 2,NA,FALSE,j,f,NA,NA,NA,1,6,"2,1,5,13,10,8,12,11,4,15,3,9,6,7,14"
14812,commdev-image-keyboard-response,533,968056,learnblock2,341.10000002384186,img/planet8_right.png,8,Community 2,NA,FALSE,f,j,NA,NA,NA,1,6,"2,1,5,13,10,8,12,11,4,15,3,9,6,7,14"
14812,commdev-image-keyboard-response,534,969311,learnblock2,248.70000004768372,img/planet12_right.png,12,Community 2,NA,TRUE,j,j,NA,NA,NA,1,6,"2,1,5,13,10,8,12,11,4,15,3,9,6,7,14"
14812,commdev-image-keyboard-response,535,970566,learnblock2,204.5,img/planet4_left.png,4,Community 2,NA,TRUE,f,f,NA,NA,NA,1,6,"2,1,5,13,10,8,12,11,4,15,3,9,6,7,14"
14812,commdev-image-keyboard-response,536,971828,learnblock2,1000.6999999284744,img/planet8_right.png,8,Community 2,NA,TRUE,j,j,NA,NA,NA,1,6,"2,1,5,13,10,8,12,11,4,15,3,9,6,7,14"
14812,commdev-image-keyboard-response,537,973091,learnblock2,1142.7000000476837,img/planet15_right.png,15,Community 2,NA,TRUE,j,j,NA,NA,NA,1,6,"2,1,5,13,10,8,12,11,4,15,3,9,6,7,14"
14812,commdev-image-keyboard-response,538,974351,learnblock2,1167.3999999761581,img/planet4_left.png,4,Community 2,NA,TRUE,f,f,NA,NA,NA,1,6,"2,1,5,13,10,8,12,11,4,15,3,9,6,7,14"
14812,commdev-image-keyboard-response,539,975605,learnblock2,null,img/planet12_right.png,12,Community 2,NA,FALSE,null,j,NA,NA,NA,1,6,"2,1,5,13,10,8,12,11,4,15,3,9,6,7,14"
14812,commdev-image-keyboard-response,540,976861,learnblock2,null,img/planet4_left.png,4,Community 2,NA,FALSE,null,f,NA,NA,NA,1,6,"2,1,5,13,10,8,12,11,4,15,3,9,6,7,14"
14812,commdev-image-keyboard-response,541,978120,learnblock2,null,img/planet8_right.png,8,Community 2,NA,FALSE,null,j,NA,NA,NA,1,6,"2,1,5,13,10,8,12,11,4,15,3,9,6,7,14"
14812,commdev-image-keyboard-response,542,979378,learnblock2,1128.5,img/planet12_right.png,12,Community 2,NA,TRUE,j,j,NA,NA,NA,1,6,"2,1,5,13,10,8,12,11,4,15,3,9,6,7,14"
14812,commdev-image-keyboard-response,543,980647,learnblock2,null,img/planet15_right.png,15,Community 2,NA,FALSE,null,j,NA,NA,NA,1,6,"2,1,5,13,10,8,12,11,4,15,3,9,6,7,14"
14812,commdev-image-keyboard-response,544,981902,learnblock2,null,img/planet8_left.png,8,Community 2,NA,FALSE,null,f,NA,NA,NA,1,6,"2,1,5,13,10,8,12,11,4,15,3,9,6,7,14"
14812,commdev-image-keyboard-response,545,983157,learnblock2,null,img/planet12_right.png,12,Community 2,NA,FALSE,null,j,NA,NA,NA,1,6,"2,1,5,13,10,8,12,11,4,15,3,9,6,7,14"
14812,commdev-image-keyboard-response,546,984414,learnblock2,760.0999999046326,img/planet15_right.png,15,Community 2,NA,TRUE,j,j,NA,NA,NA,1,6,"2,1,5,13,10,8,12,11,4,15,3,9,6,7,14"
14812,commdev-image-keyboard-response,547,985668,learnblock2,869.7000000476837,img/planet12_left.png,12,Community 2,NA,TRUE,f,f,NA,NA,NA,1,6,"2,1,5,13,10,8,12,11,4,15,3,9,6,7,14"
14812,commdev-image-keyboard-response,548,986927,learnblock2,1210,img/planet4_right.png,4,Community 2,NA,TRUE,j,j,NA,NA,NA,1,6,"2,1,5,13,10,8,12,11,4,15,3,9,6,7,14"
14812,commdev-image-keyboard-response,549,988185,learnblock2,null,img/planet15_right.png,15,Community 2,NA,FALSE,null,j,NA,NA,NA,1,6,"2,1,5,13,10,8,12,11,4,15,3,9,6,7,14"
14812,commdev-image-keyboard-response,550,989446,learnblock2,266.89999997615814,img/planet8_right.png,8,Community 2,NA,TRUE,j,j,NA,NA,NA,1,6,"2,1,5,13,10,8,12,11,4,15,3,9,6,7,14"
14812,commdev-image-keyboard-response,551,990702,learnblock2,912,img/planet15_left.png,15,Community 2,NA,TRUE,f,f,NA,NA,NA,1,6,"2,1,5,13,10,8,12,11,4,15,3,9,6,7,14"
14812,commdev-image-keyboard-response,552,991970,learnblock2,null,img/planet4_left.png,4,Community 2,NA,FALSE,null,f,NA,NA,NA,1,6,"2,1,5,13,10,8,12,11,4,15,3,9,6,7,14"
14812,commdev-image-keyboard-response,553,993233,learnblock2,290.89999997615814,img/planet11_right.png,11,Community 2,NA,FALSE,f,j,NA,NA,NA,1,6,"2,1,5,13,10,8,12,11,4,15,3,9,6,7,14"
14812,commdev-image-keyboard-response,554,994491,learnblock2,1117.8999999761581,img/planet9_left.png,9,Community 3,NA,FALSE,j,f,NA,NA,NA,1,6,"2,1,5,13,10,8,12,11,4,15,3,9,6,7,14"
14812,commdev-image-keyboard-response,555,995759,learnblock2,378.09999990463257,img/planet11_right.png,11,Community 2,NA,FALSE,f,j,NA,NA,NA,1,6,"2,1,5,13,10,8,12,11,4,15,3,9,6,7,14"
14812,commdev-image-keyboard-response,556,997021,learnblock2,207.40000009536743,img/planet15_right.png,15,Community 2,NA,TRUE,j,j,NA,NA,NA,1,6,"2,1,5,13,10,8,12,11,4,15,3,9,6,7,14"
14812,commdev-image-keyboard-response,557,998279,learnblock2,901.7000000476837,img/planet8_left.png,8,Community 2,NA,TRUE,f,f,NA,NA,NA,1,6,"2,1,5,13,10,8,12,11,4,15,3,9,6,7,14"
14812,commdev-image-keyboard-response,558,999536,learnblock2,null,img/planet13_left.png,13,Community 1,NA,FALSE,null,f,NA,NA,NA,1,6,"2,1,5,13,10,8,12,11,4,15,3,9,6,7,14"
14812,commdev-image-keyboard-response,559,1000799,learnblock2,144.79999995231628,img/planet2_left.png,2,Community 1,NA,TRUE,f,f,NA,NA,NA,1,6,"2,1,5,13,10,8,12,11,4,15,3,9,6,7,14"
14812,commdev-image-keyboard-response,560,1002059,learnblock2,1007.1000000238419,img/planet10_right.png,10,Community 1,NA,FALSE,f,j,NA,NA,NA,1,6,"2,1,5,13,10,8,12,11,4,15,3,9,6,7,14"
14812,commdev-image-keyboard-response,561,1003319,learnblock2,null,img/planet1_left.png,1,Community 1,NA,FALSE,null,f,NA,NA,NA,1,6,"2,1,5,13,10,8,12,11,4,15,3,9,6,7,14"
14812,commdev-image-keyboard-response,562,1004575,learnblock2,999.8999999761581,img/planet10_right.png,10,Community 1,NA,TRUE,j,j,NA,NA,NA,1,6,"2,1,5,13,10,8,12,11,4,15,3,9,6,7,14"
14812,commdev-image-keyboard-response,563,1005834,learnblock2,null,img/planet3_left.png,3,Community 3,NA,FALSE,null,f,NA,NA,NA,1,6,"2,1,5,13,10,8,12,11,4,15,3,9,6,7,14"
14812,commdev-image-keyboard-response,564,1007091,learnblock2,1082.2000000476837,img/planet10_right.png,10,Community 1,NA,FALSE,f,j,NA,NA,NA,1,6,"2,1,5,13,10,8,12,11,4,15,3,9,6,7,14"
14812,commdev-image-keyboard-response,565,1008360,learnblock2,null,img/planet3_right.png,3,Community 3,NA,FALSE,null,j,NA,NA,NA,1,6,"2,1,5,13,10,8,12,11,4,15,3,9,6,7,14"
14812,commdev-image-keyboard-response,566,1009619,learnblock2,182.70000004768372,img/planet10_right.png,10,Community 1,NA,TRUE,j,j,NA,NA,NA,1,6,"2,1,5,13,10,8,12,11,4,15,3,9,6,7,14"
14812,commdev-image-keyboard-response,567,1010878,learnblock2,130.60000002384186,img/planet1_left.png,1,Community 1,NA,FALSE,j,f,NA,NA,NA,1,6,"2,1,5,13,10,8,12,11,4,15,3,9,6,7,14"
14812,commdev-image-keyboard-response,568,1012136,learnblock2,215.19999992847443,img/planet2_right.png,2,Community 1,NA,FALSE,f,j,NA,NA,NA,1,6,"2,1,5,13,10,8,12,11,4,15,3,9,6,7,14"
14812,commdev-image-keyboard-response,569,1013394,learnblock2,null,img/planet1_right.png,1,Community 1,NA,FALSE,null,j,NA,NA,NA,1,6,"2,1,5,13,10,8,12,11,4,15,3,9,6,7,14"
14812,commdev-image-keyboard-response,570,1014658,learnblock2,339.3000000715256,img/planet2_right.png,2,Community 1,NA,TRUE,j,j,NA,NA,NA,1,6,"2,1,5,13,10,8,12,11,4,15,3,9,6,7,14"
14812,commdev-image-keyboard-response,571,1015920,learnblock2,741.5,img/planet13_right.png,13,Community 1,NA,TRUE,j,j,NA,NA,NA,1,6,"2,1,5,13,10,8,12,11,4,15,3,9,6,7,14"
14812,commdev-image-keyboard-response,572,1017176,learnblock2,null,img/planet1_right.png,1,Community 1,NA,FALSE,null,j,NA,NA,NA,1,6,"2,1,5,13,10,8,12,11,4,15,3,9,6,7,14"
14812,commdev-image-keyboard-response,573,1018436,learnblock2,1060.3999999761581,img/planet10_left.png,10,Community 1,NA,TRUE,f,f,NA,NA,NA,1,6,"2,1,5,13,10,8,12,11,4,15,3,9,6,7,14"
14812,commdev-image-keyboard-response,574,1019695,learnblock2,null,img/planet2_left.png,2,Community 1,NA,FALSE,null,f,NA,NA,NA,1,6,"2,1,5,13,10,8,12,11,4,15,3,9,6,7,14"
14812,commdev-image-keyboard-response,575,1020953,learnblock2,213.30000007152557,img/planet13_right.png,13,Community 1,NA,FALSE,f,j,NA,NA,NA,1,6,"2,1,5,13,10,8,12,11,4,15,3,9,6,7,14"
14812,commdev-image-keyboard-response,576,1022214,learnblock2,null,img/planet8_right.png,8,Community 2,NA,FALSE,null,j,NA,NA,NA,1,6,"2,1,5,13,10,8,12,11,4,15,3,9,6,7,14"
14812,commdev-image-keyboard-response,577,1023482,learnblock2,null,img/planet12_left.png,12,Community 2,NA,FALSE,null,f,NA,NA,NA,1,6,"2,1,5,13,10,8,12,11,4,15,3,9,6,7,14"
14812,commdev-image-keyboard-response,578,1024738,learnblock2,null,img/planet8_left.png,8,Community 2,NA,FALSE,null,f,NA,NA,NA,1,6,"2,1,5,13,10,8,12,11,4,15,3,9,6,7,14"
14812,commdev-image-keyboard-response,579,1026002,learnblock2,null,img/planet15_left.png,15,Community 2,NA,FALSE,null,f,NA,NA,NA,1,6,"2,1,5,13,10,8,12,11,4,15,3,9,6,7,14"
14812,commdev-image-keyboard-response,580,1027258,learnblock2,286.3000000715256,img/planet12_left.png,12,Community 2,NA,TRUE,f,f,NA,NA,NA,1,6,"2,1,5,13,10,8,12,11,4,15,3,9,6,7,14"
14812,commdev-image-keyboard-response,581,1028519,learnblock2,null,img/planet4_left.png,4,Community 2,NA,FALSE,null,f,NA,NA,NA,1,6,"2,1,5,13,10,8,12,11,4,15,3,9,6,7,14"
14812,commdev-image-keyboard-response,582,1029786,learnblock2,null,img/planet15_left.png,15,Community 2,NA,FALSE,null,f,NA,NA,NA,1,6,"2,1,5,13,10,8,12,11,4,15,3,9,6,7,14"
14812,commdev-image-keyboard-response,583,1031049,learnblock2,null,img/planet11_right.png,11,Community 2,NA,FALSE,null,j,NA,NA,NA,1,6,"2,1,5,13,10,8,12,11,4,15,3,9,6,7,14"
14812,commdev-image-keyboard-response,584,1032310,learnblock2,null,img/planet4_right.png,4,Community 2,NA,FALSE,null,j,NA,NA,NA,1,6,"2,1,5,13,10,8,12,11,4,15,3,9,6,7,14"
14812,commdev-image-keyboard-response,585,1033573,learnblock2,null,img/planet11_right.png,11,Community 2,NA,FALSE,null,j,NA,NA,NA,1,6,"2,1,5,13,10,8,12,11,4,15,3,9,6,7,14"
14812,commdev-image-keyboard-response,586,1034831,learnblock2,null,img/planet12_left.png,12,Community 2,NA,FALSE,null,f,NA,NA,NA,1,6,"2,1,5,13,10,8,12,11,4,15,3,9,6,7,14"
14812,commdev-image-keyboard-response,587,1036093,learnblock2,null,img/planet15_left.png,15,Community 2,NA,FALSE,null,f,NA,NA,NA,1,6,"2,1,5,13,10,8,12,11,4,15,3,9,6,7,14"
14812,commdev-image-keyboard-response,588,1037348,learnblock2,null,img/planet4_left.png,4,Community 2,NA,FALSE,null,f,NA,NA,NA,1,6,"2,1,5,13,10,8,12,11,4,15,3,9,6,7,14"
14812,commdev-image-keyboard-response,589,1038614,learnblock2,null,img/planet15_right.png,15,Community 2,NA,FALSE,null,j,NA,NA,NA,1,6,"2,1,5,13,10,8,12,11,4,15,3,9,6,7,14"
14812,commdev-image-keyboard-response,590,1039869,learnblock2,null,img/planet4_right.png,4,Community 2,NA,FALSE,null,j,NA,NA,NA,1,6,"2,1,5,13,10,8,12,11,4,15,3,9,6,7,14"
14812,commdev-image-keyboard-response,591,1041126,learnblock2,null,img/planet8_left.png,8,Community 2,NA,FALSE,null,f,NA,NA,NA,1,6,"2,1,5,13,10,8,12,11,4,15,3,9,6,7,14"
14812,commdev-image-keyboard-response,592,1042391,learnblock2,null,img/planet13_left.png,13,Community 1,NA,FALSE,null,f,NA,NA,NA,1,6,"2,1,5,13,10,8,12,11,4,15,3,9,6,7,14"
14812,commdev-image-keyboard-response,593,1043654,learnblock2,null,img/planet5_left.png,5,Community 1,NA,FALSE,null,f,NA,NA,NA,1,6,"2,1,5,13,10,8,12,11,4,15,3,9,6,7,14"
14812,commdev-image-keyboard-response,594,1044919,learnblock2,null,img/planet10_right.png,10,Community 1,NA,FALSE,null,j,NA,NA,NA,1,6,"2,1,5,13,10,8,12,11,4,15,3,9,6,7,14"
