subject_id,trial_type,trial_index,time_elapsed,block,rt,stimulus,planet,community,response,correct,key_press,learning_correct_response,parse,init_locations,final_locations,browser_interactions,num_comp,planet_map
14157,commdev-instructions,7,21339,NA,3167.399999976158,"<p>In this game, you are a scientist on board a space shuttle. </p><p> On each mission, you will visit planets all across the universe.</p><img src=""img/controlroom.jpg"" width=300vw>",NA,NA,NA,NA,NA,NA,NA,NA,NA,NA,7,"13,10,14,8,6,2,9,5,11,12,1,3,4,7,15"
14157,commdev-instructions,8,24304,NA,872.5,"<p>Here are a few planets you might see:</p><img src=""img/practice1.png"" width=200vw><img src=""img/practice2.png"" width=200vw><img src=""img/practice3.png"" width=200vw>",NA,NA,NA,NA,NA,NA,NA,NA,NA,NA,7,"13,10,14,8,6,2,9,5,11,12,1,3,4,7,15"
14157,commdev-instructions,9,34970,NA,3249.1999999284744,"<p>Your job as a scientist is to record which direction the winds are moving on each planet.</p><p>There are two types of wind directions:</p><img src=""img/practice1_left.png"" width=200vw><img src=""img/practice1_right.png"" width=200vw>",NA,NA,NA,NA,NA,NA,NA,NA,NA,NA,7,"13,10,14,8,6,2,9,5,11,12,1,3,4,7,15"
14157,commdev-instructions,10,41808,NA,1942.2999999523163,"<p>If the winds are moving this way, press the letter <strong>F</strong> on the keyboard as fast as you can.</p><img src=""img/leftwind.png"" width=250vw>",NA,NA,NA,NA,NA,NA,NA,NA,NA,NA,7,"13,10,14,8,6,2,9,5,11,12,1,3,4,7,15"
14157,commdev-instructions,11,48169,NA,1858.5,"<p>If the winds are moving this way, press the letter <strong>J</strong> on the keyboard as fast as you can.</p><img src=""img/rightwind.png"" width=350vw>",NA,NA,NA,NA,NA,NA,NA,NA,NA,NA,7,"13,10,14,8,6,2,9,5,11,12,1,3,4,7,15"
14157,commdev-instructions,12,53881,NA,1270.1000000238419,<p>You will have 1 second to respond. Try to respond before the time runs out!,NA,NA,NA,NA,NA,NA,NA,NA,NA,NA,7,"13,10,14,8,6,2,9,5,11,12,1,3,4,7,15"
14157,commdev-instructions,13,59593,NA,272.7999999523163,<p>The planets you will visit will look different from each other.</p><p>You should respond <strong>only</strong> based on wind direction.,NA,NA,NA,NA,NA,NA,NA,NA,NA,NA,7,"13,10,14,8,6,2,9,5,11,12,1,3,4,7,15"
14157,commdev-instructions,14,65604,NA,819.7999999523163,"<p> Ready to start the practice round? </p><p> Remember, press <strong>F</strong> or <strong>J</strong> depending on the wind direction.<br><img src=""img/categorize_planet_example.png""",NA,NA,NA,NA,NA,NA,NA,NA,NA,NA,7,"13,10,14,8,6,2,9,5,11,12,1,3,4,7,15"
14157,commdev-instructions,26,116047,NA,2267.5999999046326,"<p>Great, now try a short practice mission. </p><p> This time, you will have 1 second to respond and you won't know whether you pressed the right or wrong key for each planet.</p>",NA,NA,NA,NA,NA,NA,NA,NA,NA,NA,7,"13,10,14,8,6,2,9,5,11,12,1,3,4,7,15"
14157,commdev-image-keyboard-response,27,117438,practice,1207.6000000238419,img/practice4_right.png,NA,Number not found in mappings,NA,TRUE,j,j,NA,NA,NA,NA,7,"13,10,14,8,6,2,9,5,11,12,1,3,4,7,15"
14157,commdev-image-keyboard-response,28,118708,practice,702.2000000476837,img/practice2_left.png,NA,Number not found in mappings,NA,TRUE,f,f,NA,NA,NA,NA,7,"13,10,14,8,6,2,9,5,11,12,1,3,4,7,15"
14157,commdev-image-keyboard-response,29,119970,practice,602.0999999046326,img/practice1_right.png,NA,Number not found in mappings,NA,TRUE,j,j,NA,NA,NA,NA,7,"13,10,14,8,6,2,9,5,11,12,1,3,4,7,15"
14157,commdev-image-keyboard-response,30,121231,practice,385.7000000476837,img/practice3_left.png,NA,Number not found in mappings,NA,TRUE,f,f,NA,NA,NA,NA,7,"13,10,14,8,6,2,9,5,11,12,1,3,4,7,15"
14157,commdev-image-keyboard-response,31,122491,practice,300.7999999523163,img/practice4_left.png,NA,Number not found in mappings,NA,TRUE,f,f,NA,NA,NA,NA,7,"13,10,14,8,6,2,9,5,11,12,1,3,4,7,15"
14157,commdev-image-keyboard-response,32,123747,practice,489.5,img/practice2_left.png,NA,Number not found in mappings,NA,TRUE,f,f,NA,NA,NA,NA,7,"13,10,14,8,6,2,9,5,11,12,1,3,4,7,15"
14157,commdev-image-keyboard-response,33,125013,practice,412.5,img/practice1_left.png,NA,Number not found in mappings,NA,TRUE,f,f,NA,NA,NA,NA,7,"13,10,14,8,6,2,9,5,11,12,1,3,4,7,15"
14157,commdev-image-keyboard-response,34,126273,practice,455.2999999523163,img/practice3_left.png,NA,Number not found in mappings,NA,TRUE,f,f,NA,NA,NA,NA,7,"13,10,14,8,6,2,9,5,11,12,1,3,4,7,15"
14157,commdev-instructions,35,136887,NA,1063.2000000476837,"<p>Great job with the practice round.</p><p>During real missions, you won't know whether you pressed the right or wrong key for each planet.</p><p>But between missions, we will tell you how you did overall.</p>",NA,NA,NA,NA,NA,NA,NA,NA,NA,NA,7,"13,10,14,8,6,2,9,5,11,12,1,3,4,7,15"
14157,commdev-instructions,36,145895,NA,751.7000000476837,<p>Try your best! You will be paid a bonus based on how many correct responses you make!</p><p>Responses that are too slow will not count toward your bonus.</p>,NA,NA,NA,NA,NA,NA,NA,NA,NA,NA,7,"13,10,14,8,6,2,9,5,11,12,1,3,4,7,15"
14157,commdev-instructions,37,153003,NA,894.8999999761581,"<p>You are almost ready to start the real game.</p><p> First, we are going to ask you some questions about how the game works.</p>",NA,NA,NA,NA,NA,NA,NA,NA,NA,NA,7,"13,10,14,8,6,2,9,5,11,12,1,3,4,7,15"
14157,commdev-instructions,48,251074,NA,2022.7999999523163,"<p> Nice work! It is now time to start the real game.<p></p>You will go on two missions to record wind directions of different planets.<p></p>Each one will take about 5 minutes. You will get to take a break between missions.<p><p> Remember, press <strong>F</strong> or <strong>J</strong> depending on the wind direction. Good luck!<br><img src=""img/categorize_planet_example.png""",NA,NA,NA,NA,NA,NA,NA,NA,NA,NA,7,"13,10,14,8,6,2,9,5,11,12,1,3,4,7,15"
14157,commdev-image-keyboard-response,50,254500,learnblock1,998.7999999523163,img/planet8_right.png,8,Community 1,NA,TRUE,j,j,NA,NA,NA,NA,7,"13,10,14,8,6,2,9,5,11,12,1,3,4,7,15"
14157,commdev-image-keyboard-response,51,255756,learnblock1,531.1000000238419,img/planet2_right.png,2,Community 2,NA,TRUE,j,j,NA,NA,NA,NA,7,"13,10,14,8,6,2,9,5,11,12,1,3,4,7,15"
14157,commdev-image-keyboard-response,52,257023,learnblock1,510.1999999284744,img/planet11_right.png,11,Community 2,NA,TRUE,j,j,NA,NA,NA,NA,7,"13,10,14,8,6,2,9,5,11,12,1,3,4,7,15"
14157,commdev-image-keyboard-response,53,258282,learnblock1,469.2000000476837,img/planet2_left.png,2,Community 2,NA,TRUE,f,f,NA,NA,NA,NA,7,"13,10,14,8,6,2,9,5,11,12,1,3,4,7,15"
14157,commdev-image-keyboard-response,54,259542,learnblock1,521.0999999046326,img/planet11_right.png,11,Community 2,NA,TRUE,j,j,NA,NA,NA,NA,7,"13,10,14,8,6,2,9,5,11,12,1,3,4,7,15"
14157,commdev-image-keyboard-response,55,260798,learnblock1,449.3000000715256,img/planet5_right.png,5,Community 2,NA,TRUE,j,j,NA,NA,NA,NA,7,"13,10,14,8,6,2,9,5,11,12,1,3,4,7,15"
14157,commdev-image-keyboard-response,56,262066,learnblock1,532,img/planet3_right.png,3,Community 3,NA,TRUE,j,j,NA,NA,NA,NA,7,"13,10,14,8,6,2,9,5,11,12,1,3,4,7,15"
14157,commdev-image-keyboard-response,57,263328,learnblock1,584.7999999523163,img/planet7_left.png,7,Community 3,NA,TRUE,f,f,NA,NA,NA,NA,7,"13,10,14,8,6,2,9,5,11,12,1,3,4,7,15"
14157,commdev-image-keyboard-response,58,264591,learnblock1,392.60000002384186,img/planet15_left.png,15,Community 3,NA,TRUE,f,f,NA,NA,NA,NA,7,"13,10,14,8,6,2,9,5,11,12,1,3,4,7,15"
14157,commdev-image-keyboard-response,59,265859,learnblock1,542.2000000476837,img/planet3_left.png,3,Community 3,NA,TRUE,f,f,NA,NA,NA,NA,7,"13,10,14,8,6,2,9,5,11,12,1,3,4,7,15"
14157,commdev-image-keyboard-response,60,267120,learnblock1,410,img/planet7_left.png,7,Community 3,NA,TRUE,f,f,NA,NA,NA,NA,7,"13,10,14,8,6,2,9,5,11,12,1,3,4,7,15"
14157,commdev-image-keyboard-response,61,268387,learnblock1,460.1999999284744,img/planet1_right.png,1,Community 3,NA,TRUE,j,j,NA,NA,NA,NA,7,"13,10,14,8,6,2,9,5,11,12,1,3,4,7,15"
14157,commdev-image-keyboard-response,62,269644,learnblock1,469.39999997615814,img/planet4_right.png,4,Community 3,NA,TRUE,j,j,NA,NA,NA,NA,7,"13,10,14,8,6,2,9,5,11,12,1,3,4,7,15"
14157,commdev-image-keyboard-response,63,270902,learnblock1,491.5,img/planet1_left.png,1,Community 3,NA,TRUE,f,f,NA,NA,NA,NA,7,"13,10,14,8,6,2,9,5,11,12,1,3,4,7,15"
14157,commdev-image-keyboard-response,64,272164,learnblock1,396.2999999523163,img/planet4_left.png,4,Community 3,NA,TRUE,f,f,NA,NA,NA,NA,7,"13,10,14,8,6,2,9,5,11,12,1,3,4,7,15"
14157,commdev-image-keyboard-response,65,273428,learnblock1,414.3000000715256,img/planet3_left.png,3,Community 3,NA,TRUE,f,f,NA,NA,NA,NA,7,"13,10,14,8,6,2,9,5,11,12,1,3,4,7,15"
14157,commdev-image-keyboard-response,66,274688,learnblock1,343.89999997615814,img/planet15_left.png,15,Community 3,NA,TRUE,f,f,NA,NA,NA,NA,7,"13,10,14,8,6,2,9,5,11,12,1,3,4,7,15"
14157,commdev-image-keyboard-response,67,275945,learnblock1,435.1999999284744,img/planet1_right.png,1,Community 3,NA,TRUE,j,j,NA,NA,NA,NA,7,"13,10,14,8,6,2,9,5,11,12,1,3,4,7,15"
14157,commdev-image-keyboard-response,68,277211,learnblock1,497.39999997615814,img/planet6_right.png,6,Community 1,NA,TRUE,j,j,NA,NA,NA,NA,7,"13,10,14,8,6,2,9,5,11,12,1,3,4,7,15"
14157,commdev-image-keyboard-response,69,278480,learnblock1,516,img/planet10_left.png,10,Community 1,NA,TRUE,f,f,NA,NA,NA,NA,7,"13,10,14,8,6,2,9,5,11,12,1,3,4,7,15"
14157,commdev-image-keyboard-response,70,279739,learnblock1,478.3000000715256,img/planet8_left.png,8,Community 1,NA,TRUE,f,f,NA,NA,NA,NA,7,"13,10,14,8,6,2,9,5,11,12,1,3,4,7,15"
14157,commdev-image-keyboard-response,71,280998,learnblock1,365.2000000476837,img/planet2_left.png,2,Community 2,NA,TRUE,f,f,NA,NA,NA,NA,7,"13,10,14,8,6,2,9,5,11,12,1,3,4,7,15"
14157,commdev-image-keyboard-response,72,282261,learnblock1,429.1999999284744,img/planet11_right.png,11,Community 2,NA,TRUE,j,j,NA,NA,NA,NA,7,"13,10,14,8,6,2,9,5,11,12,1,3,4,7,15"
14157,commdev-image-keyboard-response,73,283515,learnblock1,376.5,img/planet5_right.png,5,Community 2,NA,TRUE,j,j,NA,NA,NA,NA,7,"13,10,14,8,6,2,9,5,11,12,1,3,4,7,15"
14157,commdev-image-keyboard-response,74,284771,learnblock1,592.7999999523163,img/planet3_right.png,3,Community 3,NA,TRUE,j,j,NA,NA,NA,NA,7,"13,10,14,8,6,2,9,5,11,12,1,3,4,7,15"
14157,commdev-image-keyboard-response,75,286040,learnblock1,537.8999999761581,img/planet4_left.png,4,Community 3,NA,TRUE,f,f,NA,NA,NA,NA,7,"13,10,14,8,6,2,9,5,11,12,1,3,4,7,15"
14157,commdev-image-keyboard-response,76,287310,learnblock1,656.8999999761581,img/planet7_right.png,7,Community 3,NA,TRUE,j,j,NA,NA,NA,NA,7,"13,10,14,8,6,2,9,5,11,12,1,3,4,7,15"
14157,commdev-image-keyboard-response,77,288565,learnblock1,459.7000000476837,img/planet15_right.png,15,Community 3,NA,TRUE,j,j,NA,NA,NA,NA,7,"13,10,14,8,6,2,9,5,11,12,1,3,4,7,15"
14157,commdev-image-keyboard-response,78,289822,learnblock1,530.5,img/planet7_right.png,7,Community 3,NA,TRUE,j,j,NA,NA,NA,NA,7,"13,10,14,8,6,2,9,5,11,12,1,3,4,7,15"
14157,commdev-image-keyboard-response,79,291078,learnblock1,553.1999999284744,img/planet3_left.png,3,Community 3,NA,TRUE,f,f,NA,NA,NA,NA,7,"13,10,14,8,6,2,9,5,11,12,1,3,4,7,15"
14157,commdev-image-keyboard-response,80,292335,learnblock1,499.5,img/planet15_right.png,15,Community 3,NA,TRUE,j,j,NA,NA,NA,NA,7,"13,10,14,8,6,2,9,5,11,12,1,3,4,7,15"
14157,commdev-image-keyboard-response,81,293595,learnblock1,511.1999999284744,img/planet7_left.png,7,Community 3,NA,TRUE,f,f,NA,NA,NA,NA,7,"13,10,14,8,6,2,9,5,11,12,1,3,4,7,15"
14157,commdev-image-keyboard-response,82,294850,learnblock1,457.7999999523163,img/planet4_right.png,4,Community 3,NA,TRUE,j,j,NA,NA,NA,NA,7,"13,10,14,8,6,2,9,5,11,12,1,3,4,7,15"
14157,commdev-image-keyboard-response,83,296110,learnblock1,582.3000000715256,img/planet15_left.png,15,Community 3,NA,TRUE,f,f,NA,NA,NA,NA,7,"13,10,14,8,6,2,9,5,11,12,1,3,4,7,15"
14157,commdev-image-keyboard-response,84,297369,learnblock1,440.8000000715256,img/planet7_right.png,7,Community 3,NA,TRUE,j,j,NA,NA,NA,NA,7,"13,10,14,8,6,2,9,5,11,12,1,3,4,7,15"
14157,commdev-image-keyboard-response,85,298624,learnblock1,477.39999997615814,img/planet15_left.png,15,Community 3,NA,TRUE,f,f,NA,NA,NA,NA,7,"13,10,14,8,6,2,9,5,11,12,1,3,4,7,15"
14157,commdev-image-keyboard-response,86,299882,learnblock1,517.7999999523163,img/planet3_left.png,3,Community 3,NA,TRUE,f,f,NA,NA,NA,NA,7,"13,10,14,8,6,2,9,5,11,12,1,3,4,7,15"
14157,commdev-image-keyboard-response,87,301138,learnblock1,489.39999997615814,img/planet7_right.png,7,Community 3,NA,TRUE,j,j,NA,NA,NA,NA,7,"13,10,14,8,6,2,9,5,11,12,1,3,4,7,15"
14157,commdev-image-keyboard-response,88,302404,learnblock1,439.60000002384186,img/planet1_left.png,1,Community 3,NA,TRUE,f,f,NA,NA,NA,NA,7,"13,10,14,8,6,2,9,5,11,12,1,3,4,7,15"
14157,commdev-image-keyboard-response,89,303657,learnblock1,491.10000002384186,img/planet7_right.png,7,Community 3,NA,TRUE,j,j,NA,NA,NA,NA,7,"13,10,14,8,6,2,9,5,11,12,1,3,4,7,15"
14157,commdev-image-keyboard-response,90,304910,learnblock1,481.6999999284744,img/planet4_right.png,4,Community 3,NA,TRUE,j,j,NA,NA,NA,NA,7,"13,10,14,8,6,2,9,5,11,12,1,3,4,7,15"
14157,commdev-image-keyboard-response,91,306165,learnblock1,603.3999999761581,img/planet15_right.png,15,Community 3,NA,TRUE,j,j,NA,NA,NA,NA,7,"13,10,14,8,6,2,9,5,11,12,1,3,4,7,15"
14157,commdev-image-keyboard-response,92,307429,learnblock1,518.2000000476837,img/planet3_left.png,3,Community 3,NA,TRUE,f,f,NA,NA,NA,NA,7,"13,10,14,8,6,2,9,5,11,12,1,3,4,7,15"
14157,commdev-image-keyboard-response,93,308683,learnblock1,484.7000000476837,img/planet4_right.png,4,Community 3,NA,TRUE,j,j,NA,NA,NA,NA,7,"13,10,14,8,6,2,9,5,11,12,1,3,4,7,15"
14157,commdev-image-keyboard-response,94,309939,learnblock1,390.10000002384186,img/planet7_left.png,7,Community 3,NA,TRUE,f,f,NA,NA,NA,NA,7,"13,10,14,8,6,2,9,5,11,12,1,3,4,7,15"
14157,commdev-image-keyboard-response,95,311206,learnblock1,384.2999999523163,img/planet1_left.png,1,Community 3,NA,TRUE,f,f,NA,NA,NA,NA,7,"13,10,14,8,6,2,9,5,11,12,1,3,4,7,15"
14157,commdev-image-keyboard-response,96,312465,learnblock1,520,img/planet7_right.png,7,Community 3,NA,TRUE,j,j,NA,NA,NA,NA,7,"13,10,14,8,6,2,9,5,11,12,1,3,4,7,15"
14157,commdev-image-keyboard-response,97,313728,learnblock1,480.6999999284744,img/planet1_left.png,1,Community 3,NA,TRUE,f,f,NA,NA,NA,NA,7,"13,10,14,8,6,2,9,5,11,12,1,3,4,7,15"
14157,commdev-image-keyboard-response,98,314989,learnblock1,482.10000002384186,img/planet6_right.png,6,Community 1,NA,TRUE,j,j,NA,NA,NA,NA,7,"13,10,14,8,6,2,9,5,11,12,1,3,4,7,15"
14157,commdev-image-keyboard-response,99,316253,learnblock1,434.5,img/planet1_right.png,1,Community 3,NA,TRUE,j,j,NA,NA,NA,NA,7,"13,10,14,8,6,2,9,5,11,12,1,3,4,7,15"
14157,commdev-image-keyboard-response,100,317515,learnblock1,441,img/planet7_right.png,7,Community 3,NA,TRUE,j,j,NA,NA,NA,NA,7,"13,10,14,8,6,2,9,5,11,12,1,3,4,7,15"
14157,commdev-image-keyboard-response,101,318778,learnblock1,430.3000000715256,img/planet3_left.png,3,Community 3,NA,FALSE,j,f,NA,NA,NA,NA,7,"13,10,14,8,6,2,9,5,11,12,1,3,4,7,15"
14157,commdev-image-keyboard-response,102,320031,learnblock1,null,img/planet5_right.png,5,Community 2,NA,FALSE,null,j,NA,NA,NA,NA,7,"13,10,14,8,6,2,9,5,11,12,1,3,4,7,15"
14157,commdev-image-keyboard-response,103,321286,learnblock1,603.1999999284744,img/planet3_right.png,3,Community 3,NA,TRUE,j,j,NA,NA,NA,NA,7,"13,10,14,8,6,2,9,5,11,12,1,3,4,7,15"
14157,commdev-image-keyboard-response,104,322549,learnblock1,563.5,img/planet7_right.png,7,Community 3,NA,TRUE,j,j,NA,NA,NA,NA,7,"13,10,14,8,6,2,9,5,11,12,1,3,4,7,15"
14157,commdev-image-keyboard-response,105,323818,learnblock1,455,img/planet1_right.png,1,Community 3,NA,TRUE,j,j,NA,NA,NA,NA,7,"13,10,14,8,6,2,9,5,11,12,1,3,4,7,15"
14157,commdev-image-keyboard-response,106,325076,learnblock1,597.8999999761581,img/planet15_right.png,15,Community 3,NA,TRUE,j,j,NA,NA,NA,NA,7,"13,10,14,8,6,2,9,5,11,12,1,3,4,7,15"
14157,commdev-image-keyboard-response,107,326330,learnblock1,552.5,img/planet1_right.png,1,Community 3,NA,TRUE,j,j,NA,NA,NA,NA,7,"13,10,14,8,6,2,9,5,11,12,1,3,4,7,15"
14157,commdev-image-keyboard-response,108,327599,learnblock1,454.5,img/planet15_left.png,15,Community 3,NA,TRUE,f,f,NA,NA,NA,NA,7,"13,10,14,8,6,2,9,5,11,12,1,3,4,7,15"
14157,commdev-image-keyboard-response,109,328856,learnblock1,526.2000000476837,img/planet7_right.png,7,Community 3,NA,TRUE,j,j,NA,NA,NA,NA,7,"13,10,14,8,6,2,9,5,11,12,1,3,4,7,15"
14157,commdev-image-keyboard-response,110,330112,learnblock1,550.1999999284744,img/planet3_left.png,3,Community 3,NA,TRUE,f,f,NA,NA,NA,NA,7,"13,10,14,8,6,2,9,5,11,12,1,3,4,7,15"
14157,commdev-image-keyboard-response,111,331366,learnblock1,551.7000000476837,img/planet7_right.png,7,Community 3,NA,TRUE,j,j,NA,NA,NA,NA,7,"13,10,14,8,6,2,9,5,11,12,1,3,4,7,15"
14157,commdev-image-keyboard-response,112,332630,learnblock1,481.2000000476837,img/planet1_right.png,1,Community 3,NA,TRUE,j,j,NA,NA,NA,NA,7,"13,10,14,8,6,2,9,5,11,12,1,3,4,7,15"
14157,commdev-image-keyboard-response,113,333890,learnblock1,555.2000000476837,img/planet6_left.png,6,Community 1,NA,TRUE,f,f,NA,NA,NA,NA,7,"13,10,14,8,6,2,9,5,11,12,1,3,4,7,15"
14157,commdev-image-keyboard-response,114,335150,learnblock1,531.6000000238419,img/planet10_left.png,10,Community 1,NA,TRUE,f,f,NA,NA,NA,NA,7,"13,10,14,8,6,2,9,5,11,12,1,3,4,7,15"
14157,commdev-image-keyboard-response,115,336405,learnblock1,825.1000000238419,img/planet13_right.png,13,Community 1,NA,TRUE,j,j,NA,NA,NA,NA,7,"13,10,14,8,6,2,9,5,11,12,1,3,4,7,15"
14157,commdev-image-keyboard-response,116,337658,learnblock1,616.6000000238419,img/planet6_right.png,6,Community 1,NA,TRUE,j,j,NA,NA,NA,NA,7,"13,10,14,8,6,2,9,5,11,12,1,3,4,7,15"
14157,commdev-image-keyboard-response,117,338912,learnblock1,580.8999999761581,img/planet14_left.png,14,Community 1,NA,TRUE,f,f,NA,NA,NA,NA,7,"13,10,14,8,6,2,9,5,11,12,1,3,4,7,15"
14157,commdev-image-keyboard-response,118,340169,learnblock1,479.6999999284744,img/planet6_right.png,6,Community 1,NA,TRUE,j,j,NA,NA,NA,NA,7,"13,10,14,8,6,2,9,5,11,12,1,3,4,7,15"
14157,commdev-image-keyboard-response,119,341438,learnblock1,490.89999997615814,img/planet1_right.png,1,Community 3,NA,TRUE,j,j,NA,NA,NA,NA,7,"13,10,14,8,6,2,9,5,11,12,1,3,4,7,15"
14157,commdev-image-keyboard-response,120,342699,learnblock1,581.5,img/planet15_left.png,15,Community 3,NA,TRUE,f,f,NA,NA,NA,NA,7,"13,10,14,8,6,2,9,5,11,12,1,3,4,7,15"
14157,commdev-image-keyboard-response,121,343956,learnblock1,528.1999999284744,img/planet4_left.png,4,Community 3,NA,TRUE,f,f,NA,NA,NA,NA,7,"13,10,14,8,6,2,9,5,11,12,1,3,4,7,15"
14157,commdev-image-keyboard-response,122,345224,learnblock1,467.7999999523163,img/planet3_right.png,3,Community 3,NA,TRUE,j,j,NA,NA,NA,NA,7,"13,10,14,8,6,2,9,5,11,12,1,3,4,7,15"
14157,commdev-image-keyboard-response,123,346482,learnblock1,436.89999997615814,img/planet7_left.png,7,Community 3,NA,TRUE,f,f,NA,NA,NA,NA,7,"13,10,14,8,6,2,9,5,11,12,1,3,4,7,15"
14157,commdev-image-keyboard-response,124,347737,learnblock1,429.7999999523163,img/planet15_right.png,15,Community 3,NA,TRUE,j,j,NA,NA,NA,NA,7,"13,10,14,8,6,2,9,5,11,12,1,3,4,7,15"
14157,commdev-image-keyboard-response,125,348996,learnblock1,494.1999999284744,img/planet7_left.png,7,Community 3,NA,TRUE,f,f,NA,NA,NA,NA,7,"13,10,14,8,6,2,9,5,11,12,1,3,4,7,15"
14157,commdev-image-keyboard-response,126,350251,learnblock1,627.4000000953674,img/planet1_right.png,1,Community 3,NA,TRUE,j,j,NA,NA,NA,NA,7,"13,10,14,8,6,2,9,5,11,12,1,3,4,7,15"
14157,commdev-image-keyboard-response,127,351511,learnblock1,575.8999999761581,img/planet6_right.png,6,Community 1,NA,TRUE,j,j,NA,NA,NA,NA,7,"13,10,14,8,6,2,9,5,11,12,1,3,4,7,15"
14157,commdev-image-keyboard-response,128,352777,learnblock1,693.8999999761581,img/planet13_right.png,13,Community 1,NA,TRUE,j,j,NA,NA,NA,NA,7,"13,10,14,8,6,2,9,5,11,12,1,3,4,7,15"
14157,commdev-image-keyboard-response,129,354030,learnblock1,636.1000000238419,img/planet6_right.png,6,Community 1,NA,TRUE,j,j,NA,NA,NA,NA,7,"13,10,14,8,6,2,9,5,11,12,1,3,4,7,15"
14157,commdev-image-keyboard-response,130,355283,learnblock1,557.1000000238419,img/planet13_left.png,13,Community 1,NA,TRUE,f,f,NA,NA,NA,NA,7,"13,10,14,8,6,2,9,5,11,12,1,3,4,7,15"
14157,commdev-image-keyboard-response,131,356546,learnblock1,468,img/planet6_right.png,6,Community 1,NA,TRUE,j,j,NA,NA,NA,NA,7,"13,10,14,8,6,2,9,5,11,12,1,3,4,7,15"
14157,commdev-image-keyboard-response,132,357816,learnblock1,488.39999997615814,img/planet14_left.png,14,Community 1,NA,TRUE,f,f,NA,NA,NA,NA,7,"13,10,14,8,6,2,9,5,11,12,1,3,4,7,15"
14157,commdev-image-keyboard-response,133,359071,learnblock1,385.1999999284744,img/planet10_left.png,10,Community 1,NA,TRUE,f,f,NA,NA,NA,NA,7,"13,10,14,8,6,2,9,5,11,12,1,3,4,7,15"
14157,commdev-image-keyboard-response,134,360328,learnblock1,621.6000000238419,img/planet8_right.png,8,Community 1,NA,FALSE,f,j,NA,NA,NA,NA,7,"13,10,14,8,6,2,9,5,11,12,1,3,4,7,15"
14157,commdev-image-keyboard-response,135,361589,learnblock1,961.1999999284744,img/planet10_left.png,10,Community 1,NA,TRUE,f,f,NA,NA,NA,NA,7,"13,10,14,8,6,2,9,5,11,12,1,3,4,7,15"
14157,commdev-image-keyboard-response,136,362848,learnblock1,1041.1999999284744,img/planet6_right.png,6,Community 1,NA,TRUE,j,j,NA,NA,NA,NA,7,"13,10,14,8,6,2,9,5,11,12,1,3,4,7,15"
14157,commdev-image-keyboard-response,137,364109,learnblock1,768.6000000238419,img/planet14_left.png,14,Community 1,NA,TRUE,f,f,NA,NA,NA,NA,7,"13,10,14,8,6,2,9,5,11,12,1,3,4,7,15"
14157,commdev-image-keyboard-response,138,365362,learnblock1,671.8999999761581,img/planet6_left.png,6,Community 1,NA,TRUE,f,f,NA,NA,NA,NA,7,"13,10,14,8,6,2,9,5,11,12,1,3,4,7,15"
14157,commdev-image-keyboard-response,139,366626,learnblock1,607.1000000238419,img/planet1_left.png,1,Community 3,NA,TRUE,f,f,NA,NA,NA,NA,7,"13,10,14,8,6,2,9,5,11,12,1,3,4,7,15"
14157,commdev-image-keyboard-response,140,367893,learnblock1,472.8000000715256,img/planet7_left.png,7,Community 3,NA,TRUE,f,f,NA,NA,NA,NA,7,"13,10,14,8,6,2,9,5,11,12,1,3,4,7,15"
14157,commdev-image-keyboard-response,141,369151,learnblock1,601.5,img/planet3_right.png,3,Community 3,NA,TRUE,j,j,NA,NA,NA,NA,7,"13,10,14,8,6,2,9,5,11,12,1,3,4,7,15"
14157,commdev-image-keyboard-response,142,370415,learnblock1,924.1999999284744,img/planet4_right.png,4,Community 3,NA,TRUE,j,j,NA,NA,NA,NA,7,"13,10,14,8,6,2,9,5,11,12,1,3,4,7,15"
14157,commdev-image-keyboard-response,143,371681,learnblock1,799.2999999523163,img/planet15_right.png,15,Community 3,NA,TRUE,j,j,NA,NA,NA,NA,7,"13,10,14,8,6,2,9,5,11,12,1,3,4,7,15"
14157,commdev-image-keyboard-response,144,372940,learnblock1,813.8999999761581,img/planet3_right.png,3,Community 3,NA,TRUE,j,j,NA,NA,NA,NA,7,"13,10,14,8,6,2,9,5,11,12,1,3,4,7,15"
14157,commdev-image-keyboard-response,145,374202,learnblock1,528,img/planet15_right.png,15,Community 3,NA,TRUE,j,j,NA,NA,NA,NA,7,"13,10,14,8,6,2,9,5,11,12,1,3,4,7,15"
14157,commdev-image-keyboard-response,146,375460,learnblock1,601.2999999523163,img/planet4_right.png,4,Community 3,NA,TRUE,j,j,NA,NA,NA,NA,7,"13,10,14,8,6,2,9,5,11,12,1,3,4,7,15"
14157,commdev-image-keyboard-response,147,376714,learnblock1,794.6999999284744,img/planet7_left.png,7,Community 3,NA,TRUE,f,f,NA,NA,NA,NA,7,"13,10,14,8,6,2,9,5,11,12,1,3,4,7,15"
14157,commdev-image-keyboard-response,148,377967,learnblock1,779.1000000238419,img/planet3_left.png,3,Community 3,NA,TRUE,f,f,NA,NA,NA,NA,7,"13,10,14,8,6,2,9,5,11,12,1,3,4,7,15"
14157,commdev-image-keyboard-response,149,379234,learnblock1,824.2000000476837,img/planet15_right.png,15,Community 3,NA,TRUE,j,j,NA,NA,NA,NA,7,"13,10,14,8,6,2,9,5,11,12,1,3,4,7,15"
14157,commdev-image-keyboard-response,150,380499,learnblock1,623.4000000953674,img/planet1_right.png,1,Community 3,NA,TRUE,j,j,NA,NA,NA,NA,7,"13,10,14,8,6,2,9,5,11,12,1,3,4,7,15"
14157,commdev-image-keyboard-response,151,381762,learnblock1,521.5,img/planet4_right.png,4,Community 3,NA,TRUE,j,j,NA,NA,NA,NA,7,"13,10,14,8,6,2,9,5,11,12,1,3,4,7,15"
14157,commdev-image-keyboard-response,152,383016,learnblock1,512.6999999284744,img/planet3_right.png,3,Community 3,NA,TRUE,j,j,NA,NA,NA,NA,7,"13,10,14,8,6,2,9,5,11,12,1,3,4,7,15"
14157,commdev-image-keyboard-response,153,384274,learnblock1,594.8000000715256,img/planet15_right.png,15,Community 3,NA,TRUE,j,j,NA,NA,NA,NA,7,"13,10,14,8,6,2,9,5,11,12,1,3,4,7,15"
14157,commdev-image-keyboard-response,154,385530,learnblock1,495.6999999284744,img/planet3_right.png,3,Community 3,NA,TRUE,j,j,NA,NA,NA,NA,7,"13,10,14,8,6,2,9,5,11,12,1,3,4,7,15"
14157,commdev-image-keyboard-response,155,386787,learnblock1,472.10000002384186,img/planet4_left.png,4,Community 3,NA,TRUE,f,f,NA,NA,NA,NA,7,"13,10,14,8,6,2,9,5,11,12,1,3,4,7,15"
14157,commdev-image-keyboard-response,156,388057,learnblock1,384.2999999523163,img/planet3_right.png,3,Community 3,NA,FALSE,f,j,NA,NA,NA,NA,7,"13,10,14,8,6,2,9,5,11,12,1,3,4,7,15"
14157,commdev-image-keyboard-response,157,389322,learnblock1,null,img/planet5_left.png,5,Community 2,NA,FALSE,null,f,NA,NA,NA,NA,7,"13,10,14,8,6,2,9,5,11,12,1,3,4,7,15"
14157,commdev-image-keyboard-response,158,390577,learnblock1,614.8999999761581,img/planet11_left.png,11,Community 2,NA,TRUE,f,f,NA,NA,NA,NA,7,"13,10,14,8,6,2,9,5,11,12,1,3,4,7,15"
14157,commdev-image-keyboard-response,159,391832,learnblock1,495.10000002384186,img/planet5_right.png,5,Community 2,NA,TRUE,j,j,NA,NA,NA,NA,7,"13,10,14,8,6,2,9,5,11,12,1,3,4,7,15"
14157,commdev-image-keyboard-response,160,393093,learnblock1,491.39999997615814,img/planet3_left.png,3,Community 3,NA,TRUE,f,f,NA,NA,NA,NA,7,"13,10,14,8,6,2,9,5,11,12,1,3,4,7,15"
14157,commdev-image-keyboard-response,161,394348,learnblock1,559.2999999523163,img/planet5_left.png,5,Community 2,NA,TRUE,f,f,NA,NA,NA,NA,7,"13,10,14,8,6,2,9,5,11,12,1,3,4,7,15"
14157,commdev-image-keyboard-response,162,395609,learnblock1,555.8999999761581,img/planet3_right.png,3,Community 3,NA,TRUE,j,j,NA,NA,NA,NA,7,"13,10,14,8,6,2,9,5,11,12,1,3,4,7,15"
14157,commdev-image-keyboard-response,163,396870,learnblock1,478.10000002384186,img/planet5_right.png,5,Community 2,NA,TRUE,j,j,NA,NA,NA,NA,7,"13,10,14,8,6,2,9,5,11,12,1,3,4,7,15"
14157,commdev-image-keyboard-response,164,398127,learnblock1,504.5,img/planet12_left.png,12,Community 2,NA,TRUE,f,f,NA,NA,NA,NA,7,"13,10,14,8,6,2,9,5,11,12,1,3,4,7,15"
14157,commdev-image-keyboard-response,165,399386,learnblock1,347.5,img/planet5_left.png,5,Community 2,NA,TRUE,f,f,NA,NA,NA,NA,7,"13,10,14,8,6,2,9,5,11,12,1,3,4,7,15"
14157,commdev-image-keyboard-response,166,400650,learnblock1,351.39999997615814,img/planet12_left.png,12,Community 2,NA,TRUE,f,f,NA,NA,NA,NA,7,"13,10,14,8,6,2,9,5,11,12,1,3,4,7,15"
14157,commdev-image-keyboard-response,167,401904,learnblock1,510.89999997615814,img/planet11_right.png,11,Community 2,NA,TRUE,j,j,NA,NA,NA,NA,7,"13,10,14,8,6,2,9,5,11,12,1,3,4,7,15"
14157,commdev-image-keyboard-response,168,403167,learnblock1,547,img/planet2_left.png,2,Community 2,NA,TRUE,f,f,NA,NA,NA,NA,7,"13,10,14,8,6,2,9,5,11,12,1,3,4,7,15"
14157,commdev-image-keyboard-response,169,404421,learnblock1,569.5,img/planet11_left.png,11,Community 2,NA,TRUE,f,f,NA,NA,NA,NA,7,"13,10,14,8,6,2,9,5,11,12,1,3,4,7,15"
14157,commdev-image-keyboard-response,170,405675,learnblock1,693.1000000238419,img/planet9_left.png,9,Community 2,NA,TRUE,f,f,NA,NA,NA,NA,7,"13,10,14,8,6,2,9,5,11,12,1,3,4,7,15"
14157,commdev-image-keyboard-response,171,406932,learnblock1,568.8000000715256,img/planet11_right.png,11,Community 2,NA,TRUE,j,j,NA,NA,NA,NA,7,"13,10,14,8,6,2,9,5,11,12,1,3,4,7,15"
14157,commdev-image-keyboard-response,172,408202,learnblock1,553.3999999761581,img/planet2_right.png,2,Community 2,NA,TRUE,j,j,NA,NA,NA,NA,7,"13,10,14,8,6,2,9,5,11,12,1,3,4,7,15"
14157,commdev-image-keyboard-response,173,409458,learnblock1,521.6999999284744,img/planet11_left.png,11,Community 2,NA,FALSE,j,f,NA,NA,NA,NA,7,"13,10,14,8,6,2,9,5,11,12,1,3,4,7,15"
14157,commdev-image-keyboard-response,174,410714,learnblock1,617,img/planet12_left.png,12,Community 2,NA,FALSE,j,f,NA,NA,NA,NA,7,"13,10,14,8,6,2,9,5,11,12,1,3,4,7,15"
14157,commdev-image-keyboard-response,175,411983,learnblock1,541.8999999761581,img/planet9_left.png,9,Community 2,NA,TRUE,f,f,NA,NA,NA,NA,7,"13,10,14,8,6,2,9,5,11,12,1,3,4,7,15"
14157,commdev-image-keyboard-response,176,413245,learnblock1,null,img/planet12_right.png,12,Community 2,NA,FALSE,null,j,NA,NA,NA,NA,7,"13,10,14,8,6,2,9,5,11,12,1,3,4,7,15"
14157,commdev-image-keyboard-response,177,414507,learnblock1,562.3000000715256,img/planet11_left.png,11,Community 2,NA,TRUE,f,f,NA,NA,NA,NA,7,"13,10,14,8,6,2,9,5,11,12,1,3,4,7,15"
14157,commdev-image-keyboard-response,178,415772,learnblock1,462.5,img/planet12_right.png,12,Community 2,NA,TRUE,j,j,NA,NA,NA,NA,7,"13,10,14,8,6,2,9,5,11,12,1,3,4,7,15"
14157,commdev-image-keyboard-response,179,417028,learnblock1,565.5,img/planet5_right.png,5,Community 2,NA,TRUE,j,j,NA,NA,NA,NA,7,"13,10,14,8,6,2,9,5,11,12,1,3,4,7,15"
14157,commdev-image-keyboard-response,180,418292,learnblock1,442.60000002384186,img/planet12_left.png,12,Community 2,NA,TRUE,f,f,NA,NA,NA,NA,7,"13,10,14,8,6,2,9,5,11,12,1,3,4,7,15"
14157,commdev-image-keyboard-response,181,419553,learnblock1,475.2999999523163,img/planet5_left.png,5,Community 2,NA,TRUE,f,f,NA,NA,NA,NA,7,"13,10,14,8,6,2,9,5,11,12,1,3,4,7,15"
14157,commdev-image-keyboard-response,182,420809,learnblock1,583.7000000476837,img/planet9_left.png,9,Community 2,NA,TRUE,f,f,NA,NA,NA,NA,7,"13,10,14,8,6,2,9,5,11,12,1,3,4,7,15"
14157,commdev-image-keyboard-response,183,422070,learnblock1,498.39999997615814,img/planet12_right.png,12,Community 2,NA,TRUE,j,j,NA,NA,NA,NA,7,"13,10,14,8,6,2,9,5,11,12,1,3,4,7,15"
14157,commdev-image-keyboard-response,184,423335,learnblock1,350.7999999523163,img/planet2_right.png,2,Community 2,NA,TRUE,j,j,NA,NA,NA,NA,7,"13,10,14,8,6,2,9,5,11,12,1,3,4,7,15"
14157,commdev-image-keyboard-response,185,424590,learnblock1,437.89999997615814,img/planet12_left.png,12,Community 2,NA,TRUE,f,f,NA,NA,NA,NA,7,"13,10,14,8,6,2,9,5,11,12,1,3,4,7,15"
14157,commdev-image-keyboard-response,186,425845,learnblock1,377.89999997615814,img/planet2_right.png,2,Community 2,NA,TRUE,j,j,NA,NA,NA,NA,7,"13,10,14,8,6,2,9,5,11,12,1,3,4,7,15"
14157,commdev-image-keyboard-response,187,427103,learnblock1,487.60000002384186,img/planet8_right.png,8,Community 1,NA,TRUE,j,j,NA,NA,NA,NA,7,"13,10,14,8,6,2,9,5,11,12,1,3,4,7,15"
14157,commdev-image-keyboard-response,188,428363,learnblock1,582.7999999523163,img/planet13_left.png,13,Community 1,NA,FALSE,j,f,NA,NA,NA,NA,7,"13,10,14,8,6,2,9,5,11,12,1,3,4,7,15"
14157,commdev-image-keyboard-response,189,429621,learnblock1,512.8999999761581,img/planet14_left.png,14,Community 1,NA,TRUE,f,f,NA,NA,NA,NA,7,"13,10,14,8,6,2,9,5,11,12,1,3,4,7,15"
14157,commdev-image-keyboard-response,190,430887,learnblock1,340.2999999523163,img/planet8_left.png,8,Community 1,NA,TRUE,f,f,NA,NA,NA,NA,7,"13,10,14,8,6,2,9,5,11,12,1,3,4,7,15"
14157,commdev-image-keyboard-response,191,432143,learnblock1,379.2999999523163,img/planet13_right.png,13,Community 1,NA,FALSE,f,j,NA,NA,NA,NA,7,"13,10,14,8,6,2,9,5,11,12,1,3,4,7,15"
14157,commdev-image-keyboard-response,192,433400,learnblock1,null,img/planet8_left.png,8,Community 1,NA,FALSE,null,f,NA,NA,NA,NA,7,"13,10,14,8,6,2,9,5,11,12,1,3,4,7,15"
14157,commdev-image-keyboard-response,193,434658,learnblock1,null,img/planet2_right.png,2,Community 2,NA,FALSE,null,j,NA,NA,NA,NA,7,"13,10,14,8,6,2,9,5,11,12,1,3,4,7,15"
14157,commdev-image-keyboard-response,194,435915,learnblock1,672.1999999284744,img/planet9_left.png,9,Community 2,NA,TRUE,f,f,NA,NA,NA,NA,7,"13,10,14,8,6,2,9,5,11,12,1,3,4,7,15"
14157,commdev-image-keyboard-response,195,437168,learnblock1,535.8999999761581,img/planet11_left.png,11,Community 2,NA,TRUE,f,f,NA,NA,NA,NA,7,"13,10,14,8,6,2,9,5,11,12,1,3,4,7,15"
14157,commdev-image-keyboard-response,196,438429,learnblock1,510.89999997615814,img/planet2_right.png,2,Community 2,NA,TRUE,j,j,NA,NA,NA,NA,7,"13,10,14,8,6,2,9,5,11,12,1,3,4,7,15"
14157,commdev-image-keyboard-response,197,439684,learnblock1,458,img/planet11_right.png,11,Community 2,NA,TRUE,j,j,NA,NA,NA,NA,7,"13,10,14,8,6,2,9,5,11,12,1,3,4,7,15"
14157,commdev-image-keyboard-response,198,440943,learnblock1,406.39999997615814,img/planet9_left.png,9,Community 2,NA,TRUE,f,f,NA,NA,NA,NA,7,"13,10,14,8,6,2,9,5,11,12,1,3,4,7,15"
14157,commdev-image-keyboard-response,199,442200,learnblock1,424.89999997615814,img/planet12_right.png,12,Community 2,NA,TRUE,j,j,NA,NA,NA,NA,7,"13,10,14,8,6,2,9,5,11,12,1,3,4,7,15"
14157,commdev-image-keyboard-response,200,443453,learnblock1,395.10000002384186,img/planet2_right.png,2,Community 2,NA,FALSE,f,j,NA,NA,NA,NA,7,"13,10,14,8,6,2,9,5,11,12,1,3,4,7,15"
14157,commdev-image-keyboard-response,201,444712,learnblock1,null,img/planet8_left.png,8,Community 1,NA,FALSE,null,f,NA,NA,NA,NA,7,"13,10,14,8,6,2,9,5,11,12,1,3,4,7,15"
14157,commdev-image-keyboard-response,202,445971,learnblock1,592.8000000715256,img/planet14_right.png,14,Community 1,NA,TRUE,j,j,NA,NA,NA,NA,7,"13,10,14,8,6,2,9,5,11,12,1,3,4,7,15"
14157,commdev-image-keyboard-response,203,447230,learnblock1,608.8999999761581,img/planet6_left.png,6,Community 1,NA,TRUE,f,f,NA,NA,NA,NA,7,"13,10,14,8,6,2,9,5,11,12,1,3,4,7,15"
14157,commdev-image-keyboard-response,204,448491,learnblock1,456,img/planet1_left.png,1,Community 3,NA,TRUE,f,f,NA,NA,NA,NA,7,"13,10,14,8,6,2,9,5,11,12,1,3,4,7,15"
14157,commdev-image-keyboard-response,205,449747,learnblock1,491,img/planet4_right.png,4,Community 3,NA,TRUE,j,j,NA,NA,NA,NA,7,"13,10,14,8,6,2,9,5,11,12,1,3,4,7,15"
14157,commdev-image-keyboard-response,206,451007,learnblock1,474.09999990463257,img/planet1_left.png,1,Community 3,NA,TRUE,f,f,NA,NA,NA,NA,7,"13,10,14,8,6,2,9,5,11,12,1,3,4,7,15"
14157,commdev-image-keyboard-response,207,452266,learnblock1,464.7000000476837,img/planet4_right.png,4,Community 3,NA,TRUE,j,j,NA,NA,NA,NA,7,"13,10,14,8,6,2,9,5,11,12,1,3,4,7,15"
14157,commdev-image-keyboard-response,208,453527,learnblock1,509.5,img/planet7_right.png,7,Community 3,NA,TRUE,j,j,NA,NA,NA,NA,7,"13,10,14,8,6,2,9,5,11,12,1,3,4,7,15"
14157,commdev-image-keyboard-response,209,454786,learnblock1,512.1000000238419,img/planet4_left.png,4,Community 3,NA,TRUE,f,f,NA,NA,NA,NA,7,"13,10,14,8,6,2,9,5,11,12,1,3,4,7,15"
14157,commdev-image-keyboard-response,210,456041,learnblock1,604.7999999523163,img/planet3_right.png,3,Community 3,NA,TRUE,j,j,NA,NA,NA,NA,7,"13,10,14,8,6,2,9,5,11,12,1,3,4,7,15"
14157,commdev-image-keyboard-response,211,457306,learnblock1,381.1999999284744,img/planet7_right.png,7,Community 3,NA,TRUE,j,j,NA,NA,NA,NA,7,"13,10,14,8,6,2,9,5,11,12,1,3,4,7,15"
14157,commdev-image-keyboard-response,212,458566,learnblock1,525.6999999284744,img/planet1_right.png,1,Community 3,NA,TRUE,j,j,NA,NA,NA,NA,7,"13,10,14,8,6,2,9,5,11,12,1,3,4,7,15"
14157,commdev-image-keyboard-response,213,459821,learnblock1,417.60000002384186,img/planet7_right.png,7,Community 3,NA,TRUE,j,j,NA,NA,NA,NA,7,"13,10,14,8,6,2,9,5,11,12,1,3,4,7,15"
14157,commdev-image-keyboard-response,214,461074,learnblock1,563.3999999761581,img/planet15_left.png,15,Community 3,NA,TRUE,f,f,NA,NA,NA,NA,7,"13,10,14,8,6,2,9,5,11,12,1,3,4,7,15"
14157,commdev-image-keyboard-response,215,462332,learnblock1,490.89999997615814,img/planet7_left.png,7,Community 3,NA,TRUE,f,f,NA,NA,NA,NA,7,"13,10,14,8,6,2,9,5,11,12,1,3,4,7,15"
14157,commdev-image-keyboard-response,216,463594,learnblock1,480.7000000476837,img/planet3_right.png,3,Community 3,NA,TRUE,j,j,NA,NA,NA,NA,7,"13,10,14,8,6,2,9,5,11,12,1,3,4,7,15"
14157,commdev-image-keyboard-response,217,464854,learnblock1,401.2000000476837,img/planet4_right.png,4,Community 3,NA,TRUE,j,j,NA,NA,NA,NA,7,"13,10,14,8,6,2,9,5,11,12,1,3,4,7,15"
14157,commdev-image-keyboard-response,218,466109,learnblock1,542.7999999523163,img/planet3_right.png,3,Community 3,NA,TRUE,j,j,NA,NA,NA,NA,7,"13,10,14,8,6,2,9,5,11,12,1,3,4,7,15"
14157,commdev-image-keyboard-response,219,467366,learnblock1,377.10000002384186,img/planet5_right.png,5,Community 2,NA,TRUE,j,j,NA,NA,NA,NA,7,"13,10,14,8,6,2,9,5,11,12,1,3,4,7,15"
14157,commdev-image-keyboard-response,220,468620,learnblock1,755.8000000715256,img/planet11_right.png,11,Community 2,NA,TRUE,j,j,NA,NA,NA,NA,7,"13,10,14,8,6,2,9,5,11,12,1,3,4,7,15"
14157,commdev-image-keyboard-response,221,469877,learnblock1,476.7999999523163,img/planet9_left.png,9,Community 2,NA,TRUE,f,f,NA,NA,NA,NA,7,"13,10,14,8,6,2,9,5,11,12,1,3,4,7,15"
14157,commdev-image-keyboard-response,222,471131,learnblock1,494.5,img/planet11_left.png,11,Community 2,NA,TRUE,f,f,NA,NA,NA,NA,7,"13,10,14,8,6,2,9,5,11,12,1,3,4,7,15"
14157,commdev-image-keyboard-response,223,472388,learnblock1,409.3000000715256,img/planet2_right.png,2,Community 2,NA,FALSE,f,j,NA,NA,NA,NA,7,"13,10,14,8,6,2,9,5,11,12,1,3,4,7,15"
14157,commdev-image-keyboard-response,224,473644,learnblock1,464.39999997615814,img/planet9_right.png,9,Community 2,NA,TRUE,j,j,NA,NA,NA,NA,7,"13,10,14,8,6,2,9,5,11,12,1,3,4,7,15"
14157,commdev-image-keyboard-response,225,474902,learnblock1,449.2000000476837,img/planet2_right.png,2,Community 2,NA,TRUE,j,j,NA,NA,NA,NA,7,"13,10,14,8,6,2,9,5,11,12,1,3,4,7,15"
14157,commdev-image-keyboard-response,226,476164,learnblock1,null,img/planet11_left.png,11,Community 2,NA,FALSE,null,f,NA,NA,NA,NA,7,"13,10,14,8,6,2,9,5,11,12,1,3,4,7,15"
14157,commdev-image-keyboard-response,227,477421,learnblock1,509.10000002384186,img/planet12_right.png,12,Community 2,NA,TRUE,j,j,NA,NA,NA,NA,7,"13,10,14,8,6,2,9,5,11,12,1,3,4,7,15"
14157,commdev-image-keyboard-response,228,478679,learnblock1,447.6999999284744,img/planet9_left.png,9,Community 2,NA,TRUE,f,f,NA,NA,NA,NA,7,"13,10,14,8,6,2,9,5,11,12,1,3,4,7,15"
14157,commdev-image-keyboard-response,229,479940,learnblock1,438.2999999523163,img/planet12_right.png,12,Community 2,NA,TRUE,j,j,NA,NA,NA,NA,7,"13,10,14,8,6,2,9,5,11,12,1,3,4,7,15"
14157,commdev-image-keyboard-response,230,481208,learnblock1,618.7000000476837,img/planet2_left.png,2,Community 2,NA,TRUE,f,f,NA,NA,NA,NA,7,"13,10,14,8,6,2,9,5,11,12,1,3,4,7,15"
14157,commdev-image-keyboard-response,231,482467,learnblock1,615.1000000238419,img/planet8_left.png,8,Community 1,NA,TRUE,f,f,NA,NA,NA,NA,7,"13,10,14,8,6,2,9,5,11,12,1,3,4,7,15"
14157,commdev-image-keyboard-response,232,483720,learnblock1,626,img/planet13_left.png,13,Community 1,NA,TRUE,f,f,NA,NA,NA,NA,7,"13,10,14,8,6,2,9,5,11,12,1,3,4,7,15"
14157,commdev-image-keyboard-response,233,484985,learnblock1,356.10000002384186,img/planet10_left.png,10,Community 1,NA,TRUE,f,f,NA,NA,NA,NA,7,"13,10,14,8,6,2,9,5,11,12,1,3,4,7,15"
14157,commdev-image-keyboard-response,234,486239,learnblock1,519.1999999284744,img/planet14_left.png,14,Community 1,NA,TRUE,f,f,NA,NA,NA,NA,7,"13,10,14,8,6,2,9,5,11,12,1,3,4,7,15"
14157,commdev-image-keyboard-response,235,487498,learnblock1,376.89999997615814,img/planet13_left.png,13,Community 1,NA,TRUE,f,f,NA,NA,NA,NA,7,"13,10,14,8,6,2,9,5,11,12,1,3,4,7,15"
14157,commdev-image-keyboard-response,236,488767,learnblock1,513.1000000238419,img/planet6_right.png,6,Community 1,NA,TRUE,j,j,NA,NA,NA,NA,7,"13,10,14,8,6,2,9,5,11,12,1,3,4,7,15"
14157,commdev-image-keyboard-response,237,490029,learnblock1,479.8000000715256,img/planet14_right.png,14,Community 1,NA,TRUE,j,j,NA,NA,NA,NA,7,"13,10,14,8,6,2,9,5,11,12,1,3,4,7,15"
14157,commdev-image-keyboard-response,238,491293,learnblock1,476.39999997615814,img/planet13_right.png,13,Community 1,NA,TRUE,j,j,NA,NA,NA,NA,7,"13,10,14,8,6,2,9,5,11,12,1,3,4,7,15"
14157,commdev-image-keyboard-response,239,492559,learnblock1,474.60000002384186,img/planet8_left.png,8,Community 1,NA,TRUE,f,f,NA,NA,NA,NA,7,"13,10,14,8,6,2,9,5,11,12,1,3,4,7,15"
14157,commdev-image-keyboard-response,240,493812,learnblock1,686.5,img/planet14_right.png,14,Community 1,NA,TRUE,j,j,NA,NA,NA,NA,7,"13,10,14,8,6,2,9,5,11,12,1,3,4,7,15"
14157,commdev-image-keyboard-response,241,495081,learnblock1,601.7000000476837,img/planet13_right.png,13,Community 1,NA,TRUE,j,j,NA,NA,NA,NA,7,"13,10,14,8,6,2,9,5,11,12,1,3,4,7,15"
14157,commdev-image-keyboard-response,242,496339,learnblock1,491.7000000476837,img/planet8_right.png,8,Community 1,NA,TRUE,j,j,NA,NA,NA,NA,7,"13,10,14,8,6,2,9,5,11,12,1,3,4,7,15"
14157,commdev-image-keyboard-response,243,497606,learnblock1,725,img/planet14_right.png,14,Community 1,NA,TRUE,j,j,NA,NA,NA,NA,7,"13,10,14,8,6,2,9,5,11,12,1,3,4,7,15"
14157,commdev-image-keyboard-response,244,498869,learnblock1,539.1000000238419,img/planet13_right.png,13,Community 1,NA,TRUE,j,j,NA,NA,NA,NA,7,"13,10,14,8,6,2,9,5,11,12,1,3,4,7,15"
14157,commdev-image-keyboard-response,245,500134,learnblock1,541.6000000238419,img/planet10_left.png,10,Community 1,NA,TRUE,f,f,NA,NA,NA,NA,7,"13,10,14,8,6,2,9,5,11,12,1,3,4,7,15"
14157,commdev-image-keyboard-response,246,501399,learnblock1,507.5,img/planet8_left.png,8,Community 1,NA,TRUE,f,f,NA,NA,NA,NA,7,"13,10,14,8,6,2,9,5,11,12,1,3,4,7,15"
14157,commdev-image-keyboard-response,247,502652,learnblock1,485.60000002384186,img/planet13_left.png,13,Community 1,NA,TRUE,f,f,NA,NA,NA,NA,7,"13,10,14,8,6,2,9,5,11,12,1,3,4,7,15"
14157,commdev-image-keyboard-response,248,503912,learnblock1,382.5,img/planet10_left.png,10,Community 1,NA,TRUE,f,f,NA,NA,NA,NA,7,"13,10,14,8,6,2,9,5,11,12,1,3,4,7,15"
14157,commdev-image-keyboard-response,249,505171,learnblock1,361.5,img/planet13_left.png,13,Community 1,NA,TRUE,f,f,NA,NA,NA,NA,7,"13,10,14,8,6,2,9,5,11,12,1,3,4,7,15"
14157,commdev-image-keyboard-response,250,506432,learnblock1,680.7000000476837,img/planet14_right.png,14,Community 1,NA,TRUE,j,j,NA,NA,NA,NA,7,"13,10,14,8,6,2,9,5,11,12,1,3,4,7,15"
14157,commdev-image-keyboard-response,251,507693,learnblock1,549,img/planet10_right.png,10,Community 1,NA,TRUE,j,j,NA,NA,NA,NA,7,"13,10,14,8,6,2,9,5,11,12,1,3,4,7,15"
14157,commdev-image-keyboard-response,252,508960,learnblock1,590.8999999761581,img/planet6_right.png,6,Community 1,NA,TRUE,j,j,NA,NA,NA,NA,7,"13,10,14,8,6,2,9,5,11,12,1,3,4,7,15"
14157,commdev-image-keyboard-response,253,510213,learnblock1,574.3999999761581,img/planet14_left.png,14,Community 1,NA,TRUE,f,f,NA,NA,NA,NA,7,"13,10,14,8,6,2,9,5,11,12,1,3,4,7,15"
14157,commdev-image-keyboard-response,254,511475,learnblock1,433.90000009536743,img/planet10_right.png,10,Community 1,NA,TRUE,j,j,NA,NA,NA,NA,7,"13,10,14,8,6,2,9,5,11,12,1,3,4,7,15"
14157,commdev-image-keyboard-response,255,512735,learnblock1,500.10000002384186,img/planet6_right.png,6,Community 1,NA,TRUE,j,j,NA,NA,NA,NA,7,"13,10,14,8,6,2,9,5,11,12,1,3,4,7,15"
14157,commdev-image-keyboard-response,256,513996,learnblock1,403.1999999284744,img/planet10_right.png,10,Community 1,NA,TRUE,j,j,NA,NA,NA,NA,7,"13,10,14,8,6,2,9,5,11,12,1,3,4,7,15"
14157,commdev-image-keyboard-response,257,515255,learnblock1,497,img/planet13_right.png,13,Community 1,NA,TRUE,j,j,NA,NA,NA,NA,7,"13,10,14,8,6,2,9,5,11,12,1,3,4,7,15"
14157,commdev-image-keyboard-response,258,516516,learnblock1,397.7999999523163,img/planet8_right.png,8,Community 1,NA,TRUE,j,j,NA,NA,NA,NA,7,"13,10,14,8,6,2,9,5,11,12,1,3,4,7,15"
14157,commdev-image-keyboard-response,259,517779,learnblock1,330.2999999523163,img/planet10_right.png,10,Community 1,NA,TRUE,j,j,NA,NA,NA,NA,7,"13,10,14,8,6,2,9,5,11,12,1,3,4,7,15"
14157,commdev-image-keyboard-response,260,519040,learnblock1,527.8000000715256,img/planet14_right.png,14,Community 1,NA,TRUE,j,j,NA,NA,NA,NA,7,"13,10,14,8,6,2,9,5,11,12,1,3,4,7,15"
14157,commdev-image-keyboard-response,261,520306,learnblock1,534.5999999046326,img/planet6_left.png,6,Community 1,NA,TRUE,f,f,NA,NA,NA,NA,7,"13,10,14,8,6,2,9,5,11,12,1,3,4,7,15"
14157,commdev-image-keyboard-response,262,521564,learnblock1,538.5,img/planet14_right.png,14,Community 1,NA,TRUE,j,j,NA,NA,NA,NA,7,"13,10,14,8,6,2,9,5,11,12,1,3,4,7,15"
14157,commdev-image-keyboard-response,263,522820,learnblock1,565.7999999523163,img/planet13_left.png,13,Community 1,NA,TRUE,f,f,NA,NA,NA,NA,7,"13,10,14,8,6,2,9,5,11,12,1,3,4,7,15"
14157,commdev-image-keyboard-response,264,524077,learnblock1,444.60000002384186,img/planet14_left.png,14,Community 1,NA,TRUE,f,f,NA,NA,NA,NA,7,"13,10,14,8,6,2,9,5,11,12,1,3,4,7,15"
14157,commdev-image-keyboard-response,265,525337,learnblock1,490.2000000476837,img/planet6_right.png,6,Community 1,NA,TRUE,j,j,NA,NA,NA,NA,7,"13,10,14,8,6,2,9,5,11,12,1,3,4,7,15"
14157,commdev-image-keyboard-response,266,526598,learnblock1,962.2000000476837,img/planet14_right.png,14,Community 1,NA,TRUE,j,j,NA,NA,NA,NA,7,"13,10,14,8,6,2,9,5,11,12,1,3,4,7,15"
14157,commdev-image-keyboard-response,267,527868,learnblock1,525.6999999284744,img/planet8_left.png,8,Community 1,NA,TRUE,f,f,NA,NA,NA,NA,7,"13,10,14,8,6,2,9,5,11,12,1,3,4,7,15"
14157,commdev-image-keyboard-response,268,529128,learnblock1,640.7000000476837,img/planet14_right.png,14,Community 1,NA,TRUE,j,j,NA,NA,NA,NA,7,"13,10,14,8,6,2,9,5,11,12,1,3,4,7,15"
14157,commdev-image-keyboard-response,269,530389,learnblock1,612.3999999761581,img/planet6_right.png,6,Community 1,NA,TRUE,j,j,NA,NA,NA,NA,7,"13,10,14,8,6,2,9,5,11,12,1,3,4,7,15"
14157,commdev-image-keyboard-response,270,531654,learnblock1,592.1000000238419,img/planet10_left.png,10,Community 1,NA,TRUE,f,f,NA,NA,NA,NA,7,"13,10,14,8,6,2,9,5,11,12,1,3,4,7,15"
14157,commdev-image-keyboard-response,271,532912,learnblock1,657,img/planet8_right.png,8,Community 1,NA,TRUE,j,j,NA,NA,NA,NA,7,"13,10,14,8,6,2,9,5,11,12,1,3,4,7,15"
14157,commdev-image-keyboard-response,272,534177,learnblock1,447.1999999284744,img/planet2_left.png,2,Community 2,NA,TRUE,f,f,NA,NA,NA,NA,7,"13,10,14,8,6,2,9,5,11,12,1,3,4,7,15"
14157,commdev-image-keyboard-response,273,535434,learnblock1,456.1999999284744,img/planet12_right.png,12,Community 2,NA,TRUE,j,j,NA,NA,NA,NA,7,"13,10,14,8,6,2,9,5,11,12,1,3,4,7,15"
14157,commdev-image-keyboard-response,274,536687,learnblock1,667.8999999761581,img/planet9_right.png,9,Community 2,NA,FALSE,f,j,NA,NA,NA,NA,7,"13,10,14,8,6,2,9,5,11,12,1,3,4,7,15"
14157,commdev-image-keyboard-response,275,537955,learnblock1,null,img/planet2_right.png,2,Community 2,NA,FALSE,null,j,NA,NA,NA,NA,7,"13,10,14,8,6,2,9,5,11,12,1,3,4,7,15"
14157,commdev-image-keyboard-response,276,539218,learnblock1,1180,img/planet11_right.png,11,Community 2,NA,TRUE,j,j,NA,NA,NA,NA,7,"13,10,14,8,6,2,9,5,11,12,1,3,4,7,15"
14157,commdev-image-keyboard-response,277,540476,learnblock1,1079.3000000715256,img/planet9_right.png,9,Community 2,NA,TRUE,j,j,NA,NA,NA,NA,7,"13,10,14,8,6,2,9,5,11,12,1,3,4,7,15"
14157,commdev-image-keyboard-response,278,541734,learnblock1,627.6000000238419,img/planet5_left.png,5,Community 2,NA,TRUE,f,f,NA,NA,NA,NA,7,"13,10,14,8,6,2,9,5,11,12,1,3,4,7,15"
14157,commdev-image-keyboard-response,279,543003,learnblock1,643.5999999046326,img/planet11_left.png,11,Community 2,NA,TRUE,f,f,NA,NA,NA,NA,7,"13,10,14,8,6,2,9,5,11,12,1,3,4,7,15"
14157,commdev-image-keyboard-response,280,544263,learnblock1,483.60000002384186,img/planet12_left.png,12,Community 2,NA,TRUE,f,f,NA,NA,NA,NA,7,"13,10,14,8,6,2,9,5,11,12,1,3,4,7,15"
14157,commdev-image-keyboard-response,281,545531,learnblock1,332.10000002384186,img/planet2_right.png,2,Community 2,NA,FALSE,f,j,NA,NA,NA,NA,7,"13,10,14,8,6,2,9,5,11,12,1,3,4,7,15"
14157,commdev-image-keyboard-response,282,546797,learnblock1,532,img/planet8_right.png,8,Community 1,NA,TRUE,j,j,NA,NA,NA,NA,7,"13,10,14,8,6,2,9,5,11,12,1,3,4,7,15"
14157,commdev-image-keyboard-response,283,548052,learnblock1,null,img/planet14_left.png,14,Community 1,NA,FALSE,null,f,NA,NA,NA,NA,7,"13,10,14,8,6,2,9,5,11,12,1,3,4,7,15"
14157,commdev-image-keyboard-response,284,549311,learnblock1,546.1000000238419,img/planet13_right.png,13,Community 1,NA,TRUE,j,j,NA,NA,NA,NA,7,"13,10,14,8,6,2,9,5,11,12,1,3,4,7,15"
14157,commdev-image-keyboard-response,285,550566,learnblock1,446.40000009536743,img/planet10_left.png,10,Community 1,NA,TRUE,f,f,NA,NA,NA,NA,7,"13,10,14,8,6,2,9,5,11,12,1,3,4,7,15"
14157,commdev-image-keyboard-response,286,551821,learnblock1,428.2000000476837,img/planet14_left.png,14,Community 1,NA,TRUE,f,f,NA,NA,NA,NA,7,"13,10,14,8,6,2,9,5,11,12,1,3,4,7,15"
14157,commdev-image-keyboard-response,287,553081,learnblock1,497.5,img/planet10_right.png,10,Community 1,NA,TRUE,j,j,NA,NA,NA,NA,7,"13,10,14,8,6,2,9,5,11,12,1,3,4,7,15"
14157,commdev-image-keyboard-response,288,554334,learnblock1,451.3000000715256,img/planet8_right.png,8,Community 1,NA,TRUE,j,j,NA,NA,NA,NA,7,"13,10,14,8,6,2,9,5,11,12,1,3,4,7,15"
14157,commdev-image-keyboard-response,289,555595,learnblock1,489.60000002384186,img/planet14_left.png,14,Community 1,NA,TRUE,f,f,NA,NA,NA,NA,7,"13,10,14,8,6,2,9,5,11,12,1,3,4,7,15"
14157,commdev-image-keyboard-response,290,556855,learnblock1,377.39999997615814,img/planet6_right.png,6,Community 1,NA,TRUE,j,j,NA,NA,NA,NA,7,"13,10,14,8,6,2,9,5,11,12,1,3,4,7,15"
14157,commdev-image-keyboard-response,291,558111,learnblock1,535,img/planet1_left.png,1,Community 3,NA,TRUE,f,f,NA,NA,NA,NA,7,"13,10,14,8,6,2,9,5,11,12,1,3,4,7,15"
14157,commdev-image-keyboard-response,292,559370,learnblock1,382.7000000476837,img/planet7_right.png,7,Community 3,NA,FALSE,f,j,NA,NA,NA,NA,7,"13,10,14,8,6,2,9,5,11,12,1,3,4,7,15"
14157,commdev-image-keyboard-response,293,560632,learnblock1,null,img/planet1_left.png,1,Community 3,NA,FALSE,null,f,NA,NA,NA,NA,7,"13,10,14,8,6,2,9,5,11,12,1,3,4,7,15"
14157,commdev-image-keyboard-response,294,561890,learnblock1,502.39999997615814,img/planet7_left.png,7,Community 3,NA,TRUE,f,f,NA,NA,NA,NA,7,"13,10,14,8,6,2,9,5,11,12,1,3,4,7,15"
14157,commdev-image-keyboard-response,295,563155,learnblock1,677,img/planet3_left.png,3,Community 3,NA,TRUE,f,f,NA,NA,NA,NA,7,"13,10,14,8,6,2,9,5,11,12,1,3,4,7,15"
14157,commdev-image-keyboard-response,296,564415,learnblock1,498.5,img/planet4_right.png,4,Community 3,NA,FALSE,f,j,NA,NA,NA,NA,7,"13,10,14,8,6,2,9,5,11,12,1,3,4,7,15"
14157,commdev-image-keyboard-response,297,565670,learnblock1,598.1000000238419,img/planet1_right.png,1,Community 3,NA,TRUE,j,j,NA,NA,NA,NA,7,"13,10,14,8,6,2,9,5,11,12,1,3,4,7,15"
14157,commdev-image-keyboard-response,298,566925,learnblock1,729.6000000238419,img/planet6_right.png,6,Community 1,NA,TRUE,j,j,NA,NA,NA,NA,7,"13,10,14,8,6,2,9,5,11,12,1,3,4,7,15"
14157,commdev-image-keyboard-response,299,568181,learnblock1,541.3999999761581,img/planet10_left.png,10,Community 1,NA,TRUE,f,f,NA,NA,NA,NA,7,"13,10,14,8,6,2,9,5,11,12,1,3,4,7,15"
14157,commdev-image-keyboard-response,300,569438,learnblock1,491.89999997615814,img/planet8_right.png,8,Community 1,NA,TRUE,j,j,NA,NA,NA,NA,7,"13,10,14,8,6,2,9,5,11,12,1,3,4,7,15"
14157,commdev-image-keyboard-response,301,570705,learnblock1,382.10000002384186,img/planet13_right.png,13,Community 1,NA,TRUE,j,j,NA,NA,NA,NA,7,"13,10,14,8,6,2,9,5,11,12,1,3,4,7,15"
14157,commdev-image-keyboard-response,302,571961,learnblock1,439.90000009536743,img/planet10_left.png,10,Community 1,NA,TRUE,f,f,NA,NA,NA,NA,7,"13,10,14,8,6,2,9,5,11,12,1,3,4,7,15"
14157,commdev-image-keyboard-response,303,573220,learnblock1,489.7999999523163,img/planet13_right.png,13,Community 1,NA,TRUE,j,j,NA,NA,NA,NA,7,"13,10,14,8,6,2,9,5,11,12,1,3,4,7,15"
14157,commdev-image-keyboard-response,304,574476,learnblock1,536.3000000715256,img/planet14_right.png,14,Community 1,NA,TRUE,j,j,NA,NA,NA,NA,7,"13,10,14,8,6,2,9,5,11,12,1,3,4,7,15"
14157,commdev-image-keyboard-response,305,575743,learnblock1,461.89999997615814,img/planet10_right.png,10,Community 1,NA,TRUE,j,j,NA,NA,NA,NA,7,"13,10,14,8,6,2,9,5,11,12,1,3,4,7,15"
14157,commdev-image-keyboard-response,306,577001,learnblock1,604.8999999761581,img/planet14_left.png,14,Community 1,NA,TRUE,f,f,NA,NA,NA,NA,7,"13,10,14,8,6,2,9,5,11,12,1,3,4,7,15"
14157,commdev-image-keyboard-response,307,578257,learnblock1,448.39999997615814,img/planet10_left.png,10,Community 1,NA,TRUE,f,f,NA,NA,NA,NA,7,"13,10,14,8,6,2,9,5,11,12,1,3,4,7,15"
14157,commdev-image-keyboard-response,308,579518,learnblock1,591.3999999761581,img/planet13_left.png,13,Community 1,NA,TRUE,f,f,NA,NA,NA,NA,7,"13,10,14,8,6,2,9,5,11,12,1,3,4,7,15"
14157,commdev-image-keyboard-response,309,580776,learnblock1,469.40000009536743,img/planet8_right.png,8,Community 1,NA,TRUE,j,j,NA,NA,NA,NA,7,"13,10,14,8,6,2,9,5,11,12,1,3,4,7,15"
14157,commdev-image-keyboard-response,310,582034,learnblock1,392.1999999284744,img/planet2_right.png,2,Community 2,NA,TRUE,j,j,NA,NA,NA,NA,7,"13,10,14,8,6,2,9,5,11,12,1,3,4,7,15"
14157,commdev-image-keyboard-response,311,583300,learnblock1,439.2999999523163,img/planet11_right.png,11,Community 2,NA,TRUE,j,j,NA,NA,NA,NA,7,"13,10,14,8,6,2,9,5,11,12,1,3,4,7,15"
14157,commdev-image-keyboard-response,312,584556,learnblock1,448.2999999523163,img/planet12_right.png,12,Community 2,NA,TRUE,j,j,NA,NA,NA,NA,7,"13,10,14,8,6,2,9,5,11,12,1,3,4,7,15"
14157,commdev-image-keyboard-response,313,585817,learnblock1,460.5,img/planet9_left.png,9,Community 2,NA,FALSE,j,f,NA,NA,NA,NA,7,"13,10,14,8,6,2,9,5,11,12,1,3,4,7,15"
14157,commdev-image-keyboard-response,314,587076,learnblock1,null,img/planet12_right.png,12,Community 2,NA,FALSE,null,j,NA,NA,NA,NA,7,"13,10,14,8,6,2,9,5,11,12,1,3,4,7,15"
14157,commdev-image-keyboard-response,315,588331,learnblock1,null,img/planet9_right.png,9,Community 2,NA,FALSE,null,j,NA,NA,NA,NA,7,"13,10,14,8,6,2,9,5,11,12,1,3,4,7,15"
14157,commdev-image-keyboard-response,316,589585,learnblock1,1153.4000000953674,img/planet2_right.png,2,Community 2,NA,TRUE,j,j,NA,NA,NA,NA,7,"13,10,14,8,6,2,9,5,11,12,1,3,4,7,15"
14157,commdev-image-keyboard-response,317,590842,learnblock1,581,img/planet11_left.png,11,Community 2,NA,TRUE,f,f,NA,NA,NA,NA,7,"13,10,14,8,6,2,9,5,11,12,1,3,4,7,15"
14157,commdev-image-keyboard-response,318,592097,learnblock1,433.39999997615814,img/planet2_left.png,2,Community 2,NA,TRUE,f,f,NA,NA,NA,NA,7,"13,10,14,8,6,2,9,5,11,12,1,3,4,7,15"
14157,commdev-image-keyboard-response,319,593360,learnblock1,560.3000000715256,img/planet8_right.png,8,Community 1,NA,TRUE,j,j,NA,NA,NA,NA,7,"13,10,14,8,6,2,9,5,11,12,1,3,4,7,15"
14157,commdev-image-keyboard-response,320,594618,learnblock1,666.6000000238419,img/planet13_right.png,13,Community 1,NA,FALSE,f,j,NA,NA,NA,NA,7,"13,10,14,8,6,2,9,5,11,12,1,3,4,7,15"
14157,commdev-image-keyboard-response,321,595872,learnblock1,null,img/planet14_left.png,14,Community 1,NA,FALSE,null,f,NA,NA,NA,NA,7,"13,10,14,8,6,2,9,5,11,12,1,3,4,7,15"
14157,commdev-image-keyboard-response,322,597132,learnblock1,509.89999997615814,img/planet10_right.png,10,Community 1,NA,TRUE,j,j,NA,NA,NA,NA,7,"13,10,14,8,6,2,9,5,11,12,1,3,4,7,15"
14157,commdev-image-keyboard-response,323,598388,learnblock1,649.7999999523163,img/planet6_left.png,6,Community 1,NA,TRUE,f,f,NA,NA,NA,NA,7,"13,10,14,8,6,2,9,5,11,12,1,3,4,7,15"
14157,commdev-image-keyboard-response,324,599643,learnblock1,442.60000002384186,img/planet13_right.png,13,Community 1,NA,FALSE,f,j,NA,NA,NA,NA,7,"13,10,14,8,6,2,9,5,11,12,1,3,4,7,15"
14157,commdev-image-keyboard-response,325,600900,learnblock1,null,img/planet14_left.png,14,Community 1,NA,FALSE,null,f,NA,NA,NA,NA,7,"13,10,14,8,6,2,9,5,11,12,1,3,4,7,15"
14157,commdev-image-keyboard-response,326,602156,learnblock1,553.0999999046326,img/planet13_left.png,13,Community 1,NA,TRUE,f,f,NA,NA,NA,NA,7,"13,10,14,8,6,2,9,5,11,12,1,3,4,7,15"
14157,commdev-image-keyboard-response,327,603408,learnblock1,590.4000000953674,img/planet14_left.png,14,Community 1,NA,TRUE,f,f,NA,NA,NA,NA,7,"13,10,14,8,6,2,9,5,11,12,1,3,4,7,15"
14157,commdev-image-keyboard-response,328,604662,learnblock1,534.2000000476837,img/planet8_right.png,8,Community 1,NA,TRUE,j,j,NA,NA,NA,NA,7,"13,10,14,8,6,2,9,5,11,12,1,3,4,7,15"
14157,commdev-image-keyboard-response,329,605918,learnblock1,652,img/planet14_right.png,14,Community 1,NA,TRUE,j,j,NA,NA,NA,NA,7,"13,10,14,8,6,2,9,5,11,12,1,3,4,7,15"
14157,commdev-image-keyboard-response,330,607179,learnblock1,460.60000002384186,img/planet8_left.png,8,Community 1,NA,TRUE,f,f,NA,NA,NA,NA,7,"13,10,14,8,6,2,9,5,11,12,1,3,4,7,15"
14157,commdev-image-keyboard-response,331,608443,learnblock1,441.6999999284744,img/planet2_right.png,2,Community 2,NA,TRUE,j,j,NA,NA,NA,NA,7,"13,10,14,8,6,2,9,5,11,12,1,3,4,7,15"
14157,commdev-image-keyboard-response,332,609695,learnblock1,556,img/planet11_left.png,11,Community 2,NA,TRUE,f,f,NA,NA,NA,NA,7,"13,10,14,8,6,2,9,5,11,12,1,3,4,7,15"
14157,commdev-image-keyboard-response,333,610959,learnblock1,392.5,img/planet12_right.png,12,Community 2,NA,TRUE,j,j,NA,NA,NA,NA,7,"13,10,14,8,6,2,9,5,11,12,1,3,4,7,15"
14157,commdev-image-keyboard-response,334,612218,learnblock1,453.89999997615814,img/planet5_left.png,5,Community 2,NA,TRUE,f,f,NA,NA,NA,NA,7,"13,10,14,8,6,2,9,5,11,12,1,3,4,7,15"
14157,commdev-image-keyboard-response,335,613473,learnblock1,352.5,img/planet3_left.png,3,Community 3,NA,TRUE,f,f,NA,NA,NA,NA,7,"13,10,14,8,6,2,9,5,11,12,1,3,4,7,15"
14157,commdev-image-keyboard-response,336,614740,learnblock1,336.5,img/planet7_right.png,7,Community 3,NA,TRUE,j,j,NA,NA,NA,NA,7,"13,10,14,8,6,2,9,5,11,12,1,3,4,7,15"
14157,commdev-image-keyboard-response,337,616000,learnblock1,448.89999997615814,img/planet15_left.png,15,Community 3,NA,TRUE,f,f,NA,NA,NA,NA,7,"13,10,14,8,6,2,9,5,11,12,1,3,4,7,15"
14157,commdev-image-keyboard-response,338,617253,learnblock1,409.10000002384186,img/planet3_right.png,3,Community 3,NA,TRUE,j,j,NA,NA,NA,NA,7,"13,10,14,8,6,2,9,5,11,12,1,3,4,7,15"
14157,commdev-image-keyboard-response,339,618513,learnblock1,429.5,img/planet5_left.png,5,Community 2,NA,TRUE,f,f,NA,NA,NA,NA,7,"13,10,14,8,6,2,9,5,11,12,1,3,4,7,15"
14157,commdev-image-keyboard-response,340,619768,learnblock1,388.10000002384186,img/planet12_right.png,12,Community 2,NA,TRUE,j,j,NA,NA,NA,NA,7,"13,10,14,8,6,2,9,5,11,12,1,3,4,7,15"
14157,commdev-image-keyboard-response,341,621026,learnblock1,390.2000000476837,img/planet2_left.png,2,Community 2,NA,TRUE,f,f,NA,NA,NA,NA,7,"13,10,14,8,6,2,9,5,11,12,1,3,4,7,15"
14157,commdev-image-keyboard-response,342,622287,learnblock1,378.60000002384186,img/planet8_left.png,8,Community 1,NA,TRUE,f,f,NA,NA,NA,NA,7,"13,10,14,8,6,2,9,5,11,12,1,3,4,7,15"
14157,commdev-image-keyboard-response,343,623540,learnblock1,561.7999999523163,img/planet14_left.png,14,Community 1,NA,TRUE,f,f,NA,NA,NA,NA,7,"13,10,14,8,6,2,9,5,11,12,1,3,4,7,15"
14157,commdev-image-keyboard-response,344,624796,learnblock1,437.89999997615814,img/planet6_right.png,6,Community 1,NA,TRUE,j,j,NA,NA,NA,NA,7,"13,10,14,8,6,2,9,5,11,12,1,3,4,7,15"
14157,commdev-image-keyboard-response,345,626049,learnblock1,370.2999999523163,img/planet13_right.png,13,Community 1,NA,TRUE,j,j,NA,NA,NA,NA,7,"13,10,14,8,6,2,9,5,11,12,1,3,4,7,15"
14157,commdev-image-keyboard-response,346,627302,learnblock1,403.10000002384186,img/planet10_left.png,10,Community 1,NA,TRUE,f,f,NA,NA,NA,NA,7,"13,10,14,8,6,2,9,5,11,12,1,3,4,7,15"
14157,commdev-image-keyboard-response,347,628563,learnblock1,500.2000000476837,img/planet14_right.png,14,Community 1,NA,TRUE,j,j,NA,NA,NA,NA,7,"13,10,14,8,6,2,9,5,11,12,1,3,4,7,15"
14157,commdev-image-keyboard-response,348,629817,learnblock1,544.5,img/planet6_right.png,6,Community 1,NA,TRUE,j,j,NA,NA,NA,NA,7,"13,10,14,8,6,2,9,5,11,12,1,3,4,7,15"
14157,commdev-image-keyboard-response,349,631078,learnblock1,481.2000000476837,img/planet13_left.png,13,Community 1,NA,TRUE,f,f,NA,NA,NA,NA,7,"13,10,14,8,6,2,9,5,11,12,1,3,4,7,15"
14157,commdev-image-keyboard-response,353,7774441,learnblock2,970.5,img/planet11_left.png,11,Community 2,NA,TRUE,f,f,NA,NA,NA,NA,7,"13,10,14,8,6,2,9,5,11,12,1,3,4,7,15"
14157,commdev-image-keyboard-response,354,7775695,learnblock2,596.8999999761581,img/planet12_left.png,12,Community 2,NA,TRUE,f,f,NA,NA,NA,NA,7,"13,10,14,8,6,2,9,5,11,12,1,3,4,7,15"
14157,commdev-image-keyboard-response,355,7776949,learnblock2,799.2000000476837,img/planet11_left.png,11,Community 2,NA,TRUE,f,f,NA,NA,NA,NA,7,"13,10,14,8,6,2,9,5,11,12,1,3,4,7,15"
14157,commdev-image-keyboard-response,356,7778205,learnblock2,535.8999999761581,img/planet2_right.png,2,Community 2,NA,TRUE,j,j,NA,NA,NA,NA,7,"13,10,14,8,6,2,9,5,11,12,1,3,4,7,15"
14157,commdev-image-keyboard-response,357,7779464,learnblock2,685.8999999761581,img/planet11_left.png,11,Community 2,NA,TRUE,f,f,NA,NA,NA,NA,7,"13,10,14,8,6,2,9,5,11,12,1,3,4,7,15"
14157,commdev-image-keyboard-response,358,7780719,learnblock2,479.60000002384186,img/planet2_left.png,2,Community 2,NA,TRUE,f,f,NA,NA,NA,NA,7,"13,10,14,8,6,2,9,5,11,12,1,3,4,7,15"
14157,commdev-image-keyboard-response,359,7781978,learnblock2,597.5,img/planet8_right.png,8,Community 1,NA,TRUE,j,j,NA,NA,NA,NA,7,"13,10,14,8,6,2,9,5,11,12,1,3,4,7,15"
14157,commdev-image-keyboard-response,360,7783234,learnblock2,599.6000000238419,img/planet13_left.png,13,Community 1,NA,TRUE,f,f,NA,NA,NA,NA,7,"13,10,14,8,6,2,9,5,11,12,1,3,4,7,15"
14157,commdev-image-keyboard-response,361,7784501,learnblock2,649.5,img/planet6_right.png,6,Community 1,NA,TRUE,j,j,NA,NA,NA,NA,7,"13,10,14,8,6,2,9,5,11,12,1,3,4,7,15"
14157,commdev-image-keyboard-response,362,7785758,learnblock2,503.89999997615814,img/planet13_right.png,13,Community 1,NA,TRUE,j,j,NA,NA,NA,NA,7,"13,10,14,8,6,2,9,5,11,12,1,3,4,7,15"
14157,commdev-image-keyboard-response,363,7787013,learnblock2,674.1999999284744,img/planet10_right.png,10,Community 1,NA,TRUE,j,j,NA,NA,NA,NA,7,"13,10,14,8,6,2,9,5,11,12,1,3,4,7,15"
14157,commdev-image-keyboard-response,364,7788275,learnblock2,672.3999999761581,img/planet13_left.png,13,Community 1,NA,TRUE,f,f,NA,NA,NA,NA,7,"13,10,14,8,6,2,9,5,11,12,1,3,4,7,15"
14157,commdev-image-keyboard-response,365,7789529,learnblock2,716.7999999523163,img/planet8_left.png,8,Community 1,NA,TRUE,f,f,NA,NA,NA,NA,7,"13,10,14,8,6,2,9,5,11,12,1,3,4,7,15"
14157,commdev-image-keyboard-response,366,7790782,learnblock2,551.7000000476837,img/planet14_left.png,14,Community 1,NA,TRUE,f,f,NA,NA,NA,NA,7,"13,10,14,8,6,2,9,5,11,12,1,3,4,7,15"
14157,commdev-image-keyboard-response,367,7792048,learnblock2,608,img/planet13_right.png,13,Community 1,NA,TRUE,j,j,NA,NA,NA,NA,7,"13,10,14,8,6,2,9,5,11,12,1,3,4,7,15"
14157,commdev-image-keyboard-response,368,7793303,learnblock2,555.8999999761581,img/planet6_left.png,6,Community 1,NA,FALSE,j,f,NA,NA,NA,NA,7,"13,10,14,8,6,2,9,5,11,12,1,3,4,7,15"
14157,commdev-image-keyboard-response,369,7794555,learnblock2,660.2999999523163,img/planet13_left.png,13,Community 1,NA,TRUE,f,f,NA,NA,NA,NA,7,"13,10,14,8,6,2,9,5,11,12,1,3,4,7,15"
14157,commdev-image-keyboard-response,370,7795809,learnblock2,664.8999999761581,img/planet14_left.png,14,Community 1,NA,TRUE,f,f,NA,NA,NA,NA,7,"13,10,14,8,6,2,9,5,11,12,1,3,4,7,15"
14157,commdev-image-keyboard-response,371,7797068,learnblock2,533.7000000476837,img/planet6_left.png,6,Community 1,NA,TRUE,f,f,NA,NA,NA,NA,7,"13,10,14,8,6,2,9,5,11,12,1,3,4,7,15"
14157,commdev-image-keyboard-response,372,7798328,learnblock2,537.7999999523163,img/planet14_left.png,14,Community 1,NA,TRUE,f,f,NA,NA,NA,NA,7,"13,10,14,8,6,2,9,5,11,12,1,3,4,7,15"
14157,commdev-image-keyboard-response,373,7799585,learnblock2,670.6000000238419,img/planet13_left.png,13,Community 1,NA,TRUE,f,f,NA,NA,NA,NA,7,"13,10,14,8,6,2,9,5,11,12,1,3,4,7,15"
14157,commdev-image-keyboard-response,374,7800840,learnblock2,441.2999999523163,img/planet10_left.png,10,Community 1,NA,TRUE,f,f,NA,NA,NA,NA,7,"13,10,14,8,6,2,9,5,11,12,1,3,4,7,15"
14157,commdev-image-keyboard-response,375,7802096,learnblock2,null,img/planet8_right.png,8,Community 1,NA,FALSE,null,j,NA,NA,NA,NA,7,"13,10,14,8,6,2,9,5,11,12,1,3,4,7,15"
14157,commdev-image-keyboard-response,376,7803349,learnblock2,485.90000009536743,img/planet2_right.png,2,Community 2,NA,TRUE,j,j,NA,NA,NA,NA,7,"13,10,14,8,6,2,9,5,11,12,1,3,4,7,15"
14157,commdev-image-keyboard-response,377,7804604,learnblock2,528.9000000953674,img/planet9_right.png,9,Community 2,NA,TRUE,j,j,NA,NA,NA,NA,7,"13,10,14,8,6,2,9,5,11,12,1,3,4,7,15"
14157,commdev-image-keyboard-response,378,7805855,learnblock2,455.10000002384186,img/planet12_right.png,12,Community 2,NA,TRUE,j,j,NA,NA,NA,NA,7,"13,10,14,8,6,2,9,5,11,12,1,3,4,7,15"
14157,commdev-image-keyboard-response,379,7807115,learnblock2,379.2000000476837,img/planet2_right.png,2,Community 2,NA,TRUE,j,j,NA,NA,NA,NA,7,"13,10,14,8,6,2,9,5,11,12,1,3,4,7,15"
14157,commdev-image-keyboard-response,380,7808369,learnblock2,441.7999999523163,img/planet12_left.png,12,Community 2,NA,TRUE,f,f,NA,NA,NA,NA,7,"13,10,14,8,6,2,9,5,11,12,1,3,4,7,15"
14157,commdev-image-keyboard-response,381,7809636,learnblock2,323.10000002384186,img/planet2_left.png,2,Community 2,NA,TRUE,f,f,NA,NA,NA,NA,7,"13,10,14,8,6,2,9,5,11,12,1,3,4,7,15"
14157,commdev-image-keyboard-response,382,7810896,learnblock2,606,img/planet9_left.png,9,Community 2,NA,TRUE,f,f,NA,NA,NA,NA,7,"13,10,14,8,6,2,9,5,11,12,1,3,4,7,15"
14157,commdev-image-keyboard-response,383,7812156,learnblock2,372.7000000476837,img/planet2_right.png,2,Community 2,NA,FALSE,f,j,NA,NA,NA,NA,7,"13,10,14,8,6,2,9,5,11,12,1,3,4,7,15"
14157,commdev-image-keyboard-response,384,7813409,learnblock2,744.7000000476837,img/planet11_left.png,11,Community 2,NA,TRUE,f,f,NA,NA,NA,NA,7,"13,10,14,8,6,2,9,5,11,12,1,3,4,7,15"
14157,commdev-image-keyboard-response,385,7814673,learnblock2,685.5999999046326,img/planet5_right.png,5,Community 2,NA,TRUE,j,j,NA,NA,NA,NA,7,"13,10,14,8,6,2,9,5,11,12,1,3,4,7,15"
14157,commdev-image-keyboard-response,386,7815925,learnblock2,564.3999999761581,img/planet11_left.png,11,Community 2,NA,TRUE,f,f,NA,NA,NA,NA,7,"13,10,14,8,6,2,9,5,11,12,1,3,4,7,15"
14157,commdev-image-keyboard-response,387,7817186,learnblock2,684.6000000238419,img/planet2_left.png,2,Community 2,NA,TRUE,f,f,NA,NA,NA,NA,7,"13,10,14,8,6,2,9,5,11,12,1,3,4,7,15"
14157,commdev-image-keyboard-response,388,7818445,learnblock2,415.3000000715256,img/planet12_left.png,12,Community 2,NA,TRUE,f,f,NA,NA,NA,NA,7,"13,10,14,8,6,2,9,5,11,12,1,3,4,7,15"
14157,commdev-image-keyboard-response,389,7819704,learnblock2,484.5,img/planet11_right.png,11,Community 2,NA,TRUE,j,j,NA,NA,NA,NA,7,"13,10,14,8,6,2,9,5,11,12,1,3,4,7,15"
14157,commdev-image-keyboard-response,390,7820959,learnblock2,405.10000002384186,img/planet12_right.png,12,Community 2,NA,TRUE,j,j,NA,NA,NA,NA,7,"13,10,14,8,6,2,9,5,11,12,1,3,4,7,15"
14157,commdev-image-keyboard-response,391,7822212,learnblock2,685,img/planet11_right.png,11,Community 2,NA,TRUE,j,j,NA,NA,NA,NA,7,"13,10,14,8,6,2,9,5,11,12,1,3,4,7,15"
14157,commdev-image-keyboard-response,392,7823472,learnblock2,452.7000000476837,img/planet2_right.png,2,Community 2,NA,TRUE,j,j,NA,NA,NA,NA,7,"13,10,14,8,6,2,9,5,11,12,1,3,4,7,15"
14157,commdev-image-keyboard-response,393,7824736,learnblock2,494.40000009536743,img/planet9_right.png,9,Community 2,NA,TRUE,j,j,NA,NA,NA,NA,7,"13,10,14,8,6,2,9,5,11,12,1,3,4,7,15"
14157,commdev-image-keyboard-response,394,7825989,learnblock2,454.10000002384186,img/planet12_left.png,12,Community 2,NA,TRUE,f,f,NA,NA,NA,NA,7,"13,10,14,8,6,2,9,5,11,12,1,3,4,7,15"
14157,commdev-image-keyboard-response,395,7827248,learnblock2,521.6999999284744,img/planet5_right.png,5,Community 2,NA,TRUE,j,j,NA,NA,NA,NA,7,"13,10,14,8,6,2,9,5,11,12,1,3,4,7,15"
14157,commdev-image-keyboard-response,396,7828505,learnblock2,448.10000002384186,img/planet3_left.png,3,Community 3,NA,TRUE,f,f,NA,NA,NA,NA,7,"13,10,14,8,6,2,9,5,11,12,1,3,4,7,15"
14157,commdev-image-keyboard-response,397,7829771,learnblock2,554.3999999761581,img/planet15_left.png,15,Community 3,NA,TRUE,f,f,NA,NA,NA,NA,7,"13,10,14,8,6,2,9,5,11,12,1,3,4,7,15"
14157,commdev-image-keyboard-response,398,7831033,learnblock2,623,img/planet3_left.png,3,Community 3,NA,TRUE,f,f,NA,NA,NA,NA,7,"13,10,14,8,6,2,9,5,11,12,1,3,4,7,15"
14157,commdev-image-keyboard-response,399,7832297,learnblock2,632.5999999046326,img/planet7_right.png,7,Community 3,NA,TRUE,j,j,NA,NA,NA,NA,7,"13,10,14,8,6,2,9,5,11,12,1,3,4,7,15"
14157,commdev-image-keyboard-response,400,7833556,learnblock2,473.89999997615814,img/planet3_right.png,3,Community 3,NA,FALSE,f,j,NA,NA,NA,NA,7,"13,10,14,8,6,2,9,5,11,12,1,3,4,7,15"
14157,commdev-image-keyboard-response,401,7834814,learnblock2,null,img/planet7_left.png,7,Community 3,NA,FALSE,null,f,NA,NA,NA,NA,7,"13,10,14,8,6,2,9,5,11,12,1,3,4,7,15"
14157,commdev-image-keyboard-response,402,7836073,learnblock2,550.1000000238419,img/planet4_right.png,4,Community 3,NA,TRUE,j,j,NA,NA,NA,NA,7,"13,10,14,8,6,2,9,5,11,12,1,3,4,7,15"
14157,commdev-image-keyboard-response,403,7837333,learnblock2,569.3000000715256,img/planet3_left.png,3,Community 3,NA,TRUE,f,f,NA,NA,NA,NA,7,"13,10,14,8,6,2,9,5,11,12,1,3,4,7,15"
14157,commdev-image-keyboard-response,404,7838589,learnblock2,504,img/planet7_right.png,7,Community 3,NA,TRUE,j,j,NA,NA,NA,NA,7,"13,10,14,8,6,2,9,5,11,12,1,3,4,7,15"
14157,commdev-image-keyboard-response,405,7839852,learnblock2,570.3999999761581,img/planet4_right.png,4,Community 3,NA,TRUE,j,j,NA,NA,NA,NA,7,"13,10,14,8,6,2,9,5,11,12,1,3,4,7,15"
14157,commdev-image-keyboard-response,406,7841119,learnblock2,576.3999999761581,img/planet7_left.png,7,Community 3,NA,TRUE,f,f,NA,NA,NA,NA,7,"13,10,14,8,6,2,9,5,11,12,1,3,4,7,15"
14157,commdev-image-keyboard-response,407,7842376,learnblock2,537.2999999523163,img/planet15_left.png,15,Community 3,NA,TRUE,f,f,NA,NA,NA,NA,7,"13,10,14,8,6,2,9,5,11,12,1,3,4,7,15"
14157,commdev-image-keyboard-response,408,7843637,learnblock2,620.2999999523163,img/planet7_right.png,7,Community 3,NA,TRUE,j,j,NA,NA,NA,NA,7,"13,10,14,8,6,2,9,5,11,12,1,3,4,7,15"
14157,commdev-image-keyboard-response,409,7844905,learnblock2,511.7000000476837,img/planet1_left.png,1,Community 3,NA,TRUE,f,f,NA,NA,NA,NA,7,"13,10,14,8,6,2,9,5,11,12,1,3,4,7,15"
14157,commdev-image-keyboard-response,410,7846174,learnblock2,502,img/planet4_right.png,4,Community 3,NA,TRUE,j,j,NA,NA,NA,NA,7,"13,10,14,8,6,2,9,5,11,12,1,3,4,7,15"
14157,commdev-image-keyboard-response,411,7847427,learnblock2,506,img/planet1_right.png,1,Community 3,NA,TRUE,j,j,NA,NA,NA,NA,7,"13,10,14,8,6,2,9,5,11,12,1,3,4,7,15"
14157,commdev-image-keyboard-response,412,7848687,learnblock2,551.7999999523163,img/planet15_left.png,15,Community 3,NA,TRUE,f,f,NA,NA,NA,NA,7,"13,10,14,8,6,2,9,5,11,12,1,3,4,7,15"
14157,commdev-image-keyboard-response,413,7849951,learnblock2,452.5,img/planet1_right.png,1,Community 3,NA,TRUE,j,j,NA,NA,NA,NA,7,"13,10,14,8,6,2,9,5,11,12,1,3,4,7,15"
14157,commdev-image-keyboard-response,414,7851204,learnblock2,416.39999997615814,img/planet15_right.png,15,Community 3,NA,FALSE,f,j,NA,NA,NA,NA,7,"13,10,14,8,6,2,9,5,11,12,1,3,4,7,15"
14157,commdev-image-keyboard-response,415,7852462,learnblock2,null,img/planet1_left.png,1,Community 3,NA,FALSE,null,f,NA,NA,NA,NA,7,"13,10,14,8,6,2,9,5,11,12,1,3,4,7,15"
14157,commdev-image-keyboard-response,416,7853727,learnblock2,473.7999999523163,img/planet7_right.png,7,Community 3,NA,TRUE,j,j,NA,NA,NA,NA,7,"13,10,14,8,6,2,9,5,11,12,1,3,4,7,15"
14157,commdev-image-keyboard-response,417,7854994,learnblock2,557.9000000953674,img/planet4_left.png,4,Community 3,NA,TRUE,f,f,NA,NA,NA,NA,7,"13,10,14,8,6,2,9,5,11,12,1,3,4,7,15"
14157,commdev-image-keyboard-response,418,7856263,learnblock2,609.0999999046326,img/planet3_left.png,3,Community 3,NA,TRUE,f,f,NA,NA,NA,NA,7,"13,10,14,8,6,2,9,5,11,12,1,3,4,7,15"
14157,commdev-image-keyboard-response,419,7857552,learnblock2,475.7000000476837,img/planet7_left.png,7,Community 3,NA,TRUE,f,f,NA,NA,NA,NA,7,"13,10,14,8,6,2,9,5,11,12,1,3,4,7,15"
14157,commdev-image-keyboard-response,420,7858805,learnblock2,472.89999997615814,img/planet15_right.png,15,Community 3,NA,TRUE,j,j,NA,NA,NA,NA,7,"13,10,14,8,6,2,9,5,11,12,1,3,4,7,15"
14157,commdev-image-keyboard-response,421,7860061,learnblock2,427.5,img/planet7_right.png,7,Community 3,NA,TRUE,j,j,NA,NA,NA,NA,7,"13,10,14,8,6,2,9,5,11,12,1,3,4,7,15"
14157,commdev-image-keyboard-response,422,7861319,learnblock2,686.4000000953674,img/planet15_right.png,15,Community 3,NA,TRUE,j,j,NA,NA,NA,NA,7,"13,10,14,8,6,2,9,5,11,12,1,3,4,7,15"
14157,commdev-image-keyboard-response,423,7862594,learnblock2,468.39999997615814,img/planet4_right.png,4,Community 3,NA,TRUE,j,j,NA,NA,NA,NA,7,"13,10,14,8,6,2,9,5,11,12,1,3,4,7,15"
14157,commdev-image-keyboard-response,424,7863850,learnblock2,509,img/planet7_right.png,7,Community 3,NA,TRUE,j,j,NA,NA,NA,NA,7,"13,10,14,8,6,2,9,5,11,12,1,3,4,7,15"
14157,commdev-image-keyboard-response,425,7865105,learnblock2,640.6999999284744,img/planet3_left.png,3,Community 3,NA,TRUE,f,f,NA,NA,NA,NA,7,"13,10,14,8,6,2,9,5,11,12,1,3,4,7,15"
14157,commdev-image-keyboard-response,426,7866365,learnblock2,550,img/planet4_left.png,4,Community 3,NA,TRUE,f,f,NA,NA,NA,NA,7,"13,10,14,8,6,2,9,5,11,12,1,3,4,7,15"
14157,commdev-image-keyboard-response,427,7867624,learnblock2,591,img/planet1_right.png,1,Community 3,NA,TRUE,j,j,NA,NA,NA,NA,7,"13,10,14,8,6,2,9,5,11,12,1,3,4,7,15"
14157,commdev-image-keyboard-response,428,7868877,learnblock2,583,img/planet6_left.png,6,Community 1,NA,TRUE,f,f,NA,NA,NA,NA,7,"13,10,14,8,6,2,9,5,11,12,1,3,4,7,15"
14157,commdev-image-keyboard-response,429,7870133,learnblock2,569.7999999523163,img/planet10_right.png,10,Community 1,NA,TRUE,j,j,NA,NA,NA,NA,7,"13,10,14,8,6,2,9,5,11,12,1,3,4,7,15"
14157,commdev-image-keyboard-response,430,7871391,learnblock2,501.7000000476837,img/planet6_left.png,6,Community 1,NA,TRUE,f,f,NA,NA,NA,NA,7,"13,10,14,8,6,2,9,5,11,12,1,3,4,7,15"
14157,commdev-image-keyboard-response,431,7872651,learnblock2,690,img/planet1_left.png,1,Community 3,NA,TRUE,f,f,NA,NA,NA,NA,7,"13,10,14,8,6,2,9,5,11,12,1,3,4,7,15"
14157,commdev-image-keyboard-response,432,7873919,learnblock2,531.1999999284744,img/planet6_left.png,6,Community 1,NA,TRUE,f,f,NA,NA,NA,NA,7,"13,10,14,8,6,2,9,5,11,12,1,3,4,7,15"
14157,commdev-image-keyboard-response,433,7875178,learnblock2,855.3999999761581,img/planet10_right.png,10,Community 1,NA,TRUE,j,j,NA,NA,NA,NA,7,"13,10,14,8,6,2,9,5,11,12,1,3,4,7,15"
14157,commdev-image-keyboard-response,434,7876437,learnblock2,907,img/planet8_left.png,8,Community 1,NA,TRUE,f,f,NA,NA,NA,NA,7,"13,10,14,8,6,2,9,5,11,12,1,3,4,7,15"
14157,commdev-image-keyboard-response,435,7877691,learnblock2,645.2999999523163,img/planet13_right.png,13,Community 1,NA,TRUE,j,j,NA,NA,NA,NA,7,"13,10,14,8,6,2,9,5,11,12,1,3,4,7,15"
14157,commdev-image-keyboard-response,436,7878951,learnblock2,486.60000002384186,img/planet6_right.png,6,Community 1,NA,TRUE,j,j,NA,NA,NA,NA,7,"13,10,14,8,6,2,9,5,11,12,1,3,4,7,15"
14157,commdev-image-keyboard-response,437,7880223,learnblock2,579.5,img/planet10_left.png,10,Community 1,NA,TRUE,f,f,NA,NA,NA,NA,7,"13,10,14,8,6,2,9,5,11,12,1,3,4,7,15"
14157,commdev-image-keyboard-response,438,7881481,learnblock2,840.2999999523163,img/planet8_right.png,8,Community 1,NA,TRUE,j,j,NA,NA,NA,NA,7,"13,10,14,8,6,2,9,5,11,12,1,3,4,7,15"
14157,commdev-image-keyboard-response,439,7882747,learnblock2,599.1999999284744,img/planet2_left.png,2,Community 2,NA,TRUE,f,f,NA,NA,NA,NA,7,"13,10,14,8,6,2,9,5,11,12,1,3,4,7,15"
14157,commdev-image-keyboard-response,440,7884004,learnblock2,1051.2999999523163,img/planet8_left.png,8,Community 1,NA,TRUE,f,f,NA,NA,NA,NA,7,"13,10,14,8,6,2,9,5,11,12,1,3,4,7,15"
14157,commdev-image-keyboard-response,441,7885257,learnblock2,621.8999999761581,img/planet10_left.png,10,Community 1,NA,TRUE,f,f,NA,NA,NA,NA,7,"13,10,14,8,6,2,9,5,11,12,1,3,4,7,15"
14157,commdev-image-keyboard-response,442,7886523,learnblock2,521.0999999046326,img/planet13_left.png,13,Community 1,NA,TRUE,f,f,NA,NA,NA,NA,7,"13,10,14,8,6,2,9,5,11,12,1,3,4,7,15"
14157,commdev-image-keyboard-response,443,7887778,learnblock2,663.1000000238419,img/planet14_right.png,14,Community 1,NA,TRUE,j,j,NA,NA,NA,NA,7,"13,10,14,8,6,2,9,5,11,12,1,3,4,7,15"
14157,commdev-image-keyboard-response,444,7889034,learnblock2,446,img/planet8_right.png,8,Community 1,NA,TRUE,j,j,NA,NA,NA,NA,7,"13,10,14,8,6,2,9,5,11,12,1,3,4,7,15"
14157,commdev-image-keyboard-response,445,7890299,learnblock2,377.7999999523163,img/planet2_left.png,2,Community 2,NA,TRUE,f,f,NA,NA,NA,NA,7,"13,10,14,8,6,2,9,5,11,12,1,3,4,7,15"
14157,commdev-image-keyboard-response,446,7891559,learnblock2,721.1000000238419,img/planet8_left.png,8,Community 1,NA,TRUE,f,f,NA,NA,NA,NA,7,"13,10,14,8,6,2,9,5,11,12,1,3,4,7,15"
14157,commdev-image-keyboard-response,447,7892828,learnblock2,451.60000002384186,img/planet13_left.png,13,Community 1,NA,TRUE,f,f,NA,NA,NA,NA,7,"13,10,14,8,6,2,9,5,11,12,1,3,4,7,15"
14157,commdev-image-keyboard-response,448,7894087,learnblock2,522.5,img/planet8_right.png,8,Community 1,NA,TRUE,j,j,NA,NA,NA,NA,7,"13,10,14,8,6,2,9,5,11,12,1,3,4,7,15"
14157,commdev-image-keyboard-response,449,7895341,learnblock2,407.09999990463257,img/planet13_left.png,13,Community 1,NA,TRUE,f,f,NA,NA,NA,NA,7,"13,10,14,8,6,2,9,5,11,12,1,3,4,7,15"
14157,commdev-image-keyboard-response,450,7896596,learnblock2,450,img/planet14_left.png,14,Community 1,NA,FALSE,j,f,NA,NA,NA,NA,7,"13,10,14,8,6,2,9,5,11,12,1,3,4,7,15"
14157,commdev-image-keyboard-response,451,7897857,learnblock2,545.1999999284744,img/planet13_left.png,13,Community 1,NA,TRUE,f,f,NA,NA,NA,NA,7,"13,10,14,8,6,2,9,5,11,12,1,3,4,7,15"
14157,commdev-image-keyboard-response,452,7899112,learnblock2,642.2000000476837,img/planet14_left.png,14,Community 1,NA,TRUE,f,f,NA,NA,NA,NA,7,"13,10,14,8,6,2,9,5,11,12,1,3,4,7,15"
14157,commdev-image-keyboard-response,453,7900366,learnblock2,420.7999999523163,img/planet10_left.png,10,Community 1,NA,TRUE,f,f,NA,NA,NA,NA,7,"13,10,14,8,6,2,9,5,11,12,1,3,4,7,15"
14157,commdev-image-keyboard-response,454,7901624,learnblock2,505.39999997615814,img/planet8_left.png,8,Community 1,NA,TRUE,f,f,NA,NA,NA,NA,7,"13,10,14,8,6,2,9,5,11,12,1,3,4,7,15"
14157,commdev-image-keyboard-response,455,7902887,learnblock2,331.2999999523163,img/planet10_left.png,10,Community 1,NA,TRUE,f,f,NA,NA,NA,NA,7,"13,10,14,8,6,2,9,5,11,12,1,3,4,7,15"
14157,commdev-image-keyboard-response,456,7904152,learnblock2,null,img/planet13_right.png,13,Community 1,NA,FALSE,null,j,NA,NA,NA,NA,7,"13,10,14,8,6,2,9,5,11,12,1,3,4,7,15"
14157,commdev-image-keyboard-response,457,7905412,learnblock2,417.60000002384186,img/planet6_right.png,6,Community 1,NA,TRUE,j,j,NA,NA,NA,NA,7,"13,10,14,8,6,2,9,5,11,12,1,3,4,7,15"
14157,commdev-image-keyboard-response,458,7906677,learnblock2,510.7000000476837,img/planet1_right.png,1,Community 3,NA,TRUE,j,j,NA,NA,NA,NA,7,"13,10,14,8,6,2,9,5,11,12,1,3,4,7,15"
14157,commdev-image-keyboard-response,459,7907933,learnblock2,426.09999990463257,img/planet4_right.png,4,Community 3,NA,TRUE,j,j,NA,NA,NA,NA,7,"13,10,14,8,6,2,9,5,11,12,1,3,4,7,15"
14157,commdev-image-keyboard-response,460,7909187,learnblock2,495.5,img/planet7_left.png,7,Community 3,NA,TRUE,f,f,NA,NA,NA,NA,7,"13,10,14,8,6,2,9,5,11,12,1,3,4,7,15"
14157,commdev-image-keyboard-response,461,7910444,learnblock2,625.6000000238419,img/planet3_right.png,3,Community 3,NA,TRUE,j,j,NA,NA,NA,NA,7,"13,10,14,8,6,2,9,5,11,12,1,3,4,7,15"
14157,commdev-image-keyboard-response,462,7911710,learnblock2,568.2999999523163,img/planet7_left.png,7,Community 3,NA,TRUE,f,f,NA,NA,NA,NA,7,"13,10,14,8,6,2,9,5,11,12,1,3,4,7,15"
14157,commdev-image-keyboard-response,463,7912964,learnblock2,617.3000000715256,img/planet4_left.png,4,Community 3,NA,TRUE,f,f,NA,NA,NA,NA,7,"13,10,14,8,6,2,9,5,11,12,1,3,4,7,15"
14157,commdev-image-keyboard-response,464,7914225,learnblock2,535.5,img/planet1_right.png,1,Community 3,NA,TRUE,j,j,NA,NA,NA,NA,7,"13,10,14,8,6,2,9,5,11,12,1,3,4,7,15"
14157,commdev-image-keyboard-response,465,7915488,learnblock2,570.3999999761581,img/planet15_right.png,15,Community 3,NA,FALSE,f,j,NA,NA,NA,NA,7,"13,10,14,8,6,2,9,5,11,12,1,3,4,7,15"
14157,commdev-image-keyboard-response,466,7916744,learnblock2,null,img/planet3_right.png,3,Community 3,NA,FALSE,null,j,NA,NA,NA,NA,7,"13,10,14,8,6,2,9,5,11,12,1,3,4,7,15"
14157,commdev-image-keyboard-response,467,7918004,learnblock2,538.8999999761581,img/planet7_right.png,7,Community 3,NA,TRUE,j,j,NA,NA,NA,NA,7,"13,10,14,8,6,2,9,5,11,12,1,3,4,7,15"
14157,commdev-image-keyboard-response,468,7919258,learnblock2,494.7000000476837,img/planet4_left.png,4,Community 3,NA,FALSE,j,f,NA,NA,NA,NA,7,"13,10,14,8,6,2,9,5,11,12,1,3,4,7,15"
14157,commdev-image-keyboard-response,469,7920512,learnblock2,755.1000000238419,img/planet3_left.png,3,Community 3,NA,TRUE,f,f,NA,NA,NA,NA,7,"13,10,14,8,6,2,9,5,11,12,1,3,4,7,15"
14157,commdev-image-keyboard-response,470,7921776,learnblock2,null,img/planet4_right.png,4,Community 3,NA,FALSE,null,j,NA,NA,NA,NA,7,"13,10,14,8,6,2,9,5,11,12,1,3,4,7,15"
14157,commdev-image-keyboard-response,471,7923038,learnblock2,605,img/planet1_right.png,1,Community 3,NA,TRUE,j,j,NA,NA,NA,NA,7,"13,10,14,8,6,2,9,5,11,12,1,3,4,7,15"
14157,commdev-image-keyboard-response,472,7924293,learnblock2,653.6999999284744,img/planet15_left.png,15,Community 3,NA,TRUE,f,f,NA,NA,NA,NA,7,"13,10,14,8,6,2,9,5,11,12,1,3,4,7,15"
14157,commdev-image-keyboard-response,473,7925551,learnblock2,568.2999999523163,img/planet3_left.png,3,Community 3,NA,TRUE,f,f,NA,NA,NA,NA,7,"13,10,14,8,6,2,9,5,11,12,1,3,4,7,15"
14157,commdev-image-keyboard-response,474,7926810,learnblock2,561,img/planet5_left.png,5,Community 2,NA,TRUE,f,f,NA,NA,NA,NA,7,"13,10,14,8,6,2,9,5,11,12,1,3,4,7,15"
14157,commdev-image-keyboard-response,475,7928067,learnblock2,436.2000000476837,img/planet11_left.png,11,Community 2,NA,TRUE,f,f,NA,NA,NA,NA,7,"13,10,14,8,6,2,9,5,11,12,1,3,4,7,15"
14157,commdev-image-keyboard-response,476,7929325,learnblock2,400.60000002384186,img/planet9_left.png,9,Community 2,NA,TRUE,f,f,NA,NA,NA,NA,7,"13,10,14,8,6,2,9,5,11,12,1,3,4,7,15"
14157,commdev-image-keyboard-response,477,7930579,learnblock2,468.10000002384186,img/planet5_left.png,5,Community 2,NA,TRUE,f,f,NA,NA,NA,NA,7,"13,10,14,8,6,2,9,5,11,12,1,3,4,7,15"
14157,commdev-image-keyboard-response,478,7931841,learnblock2,511.60000002384186,img/planet3_right.png,3,Community 3,NA,TRUE,j,j,NA,NA,NA,NA,7,"13,10,14,8,6,2,9,5,11,12,1,3,4,7,15"
14157,commdev-image-keyboard-response,479,7933109,learnblock2,576,img/planet15_right.png,15,Community 3,NA,FALSE,f,j,NA,NA,NA,NA,7,"13,10,14,8,6,2,9,5,11,12,1,3,4,7,15"
14157,commdev-image-keyboard-response,480,7934368,learnblock2,671,img/planet4_right.png,4,Community 3,NA,TRUE,j,j,NA,NA,NA,NA,7,"13,10,14,8,6,2,9,5,11,12,1,3,4,7,15"
14157,commdev-image-keyboard-response,481,7935631,learnblock2,null,img/planet15_left.png,15,Community 3,NA,FALSE,null,f,NA,NA,NA,NA,7,"13,10,14,8,6,2,9,5,11,12,1,3,4,7,15"
14157,commdev-image-keyboard-response,482,7936891,learnblock2,602.6999999284744,img/planet3_right.png,3,Community 3,NA,TRUE,j,j,NA,NA,NA,NA,7,"13,10,14,8,6,2,9,5,11,12,1,3,4,7,15"
14157,commdev-image-keyboard-response,483,7938148,learnblock2,593.3999999761581,img/planet7_left.png,7,Community 3,NA,TRUE,f,f,NA,NA,NA,NA,7,"13,10,14,8,6,2,9,5,11,12,1,3,4,7,15"
14157,commdev-image-keyboard-response,484,7939401,learnblock2,479.2000000476837,img/planet4_right.png,4,Community 3,NA,TRUE,j,j,NA,NA,NA,NA,7,"13,10,14,8,6,2,9,5,11,12,1,3,4,7,15"
14157,commdev-image-keyboard-response,485,7940657,learnblock2,623.2999999523163,img/planet3_right.png,3,Community 3,NA,TRUE,j,j,NA,NA,NA,NA,7,"13,10,14,8,6,2,9,5,11,12,1,3,4,7,15"
14157,commdev-image-keyboard-response,486,7941916,learnblock2,649.1000000238419,img/planet5_left.png,5,Community 2,NA,TRUE,f,f,NA,NA,NA,NA,7,"13,10,14,8,6,2,9,5,11,12,1,3,4,7,15"
14157,commdev-image-keyboard-response,487,7943178,learnblock2,578.8999999761581,img/planet12_right.png,12,Community 2,NA,TRUE,j,j,NA,NA,NA,NA,7,"13,10,14,8,6,2,9,5,11,12,1,3,4,7,15"
14157,commdev-image-keyboard-response,488,7944433,learnblock2,544.8000000715256,img/planet11_right.png,11,Community 2,NA,TRUE,j,j,NA,NA,NA,NA,7,"13,10,14,8,6,2,9,5,11,12,1,3,4,7,15"
14157,commdev-image-keyboard-response,489,7945689,learnblock2,454,img/planet5_right.png,5,Community 2,NA,TRUE,j,j,NA,NA,NA,NA,7,"13,10,14,8,6,2,9,5,11,12,1,3,4,7,15"
14157,commdev-image-keyboard-response,490,7946945,learnblock2,763.6999999284744,img/planet12_right.png,12,Community 2,NA,TRUE,j,j,NA,NA,NA,NA,7,"13,10,14,8,6,2,9,5,11,12,1,3,4,7,15"
14157,commdev-image-keyboard-response,491,7948205,learnblock2,453.7999999523163,img/planet2_left.png,2,Community 2,NA,TRUE,f,f,NA,NA,NA,NA,7,"13,10,14,8,6,2,9,5,11,12,1,3,4,7,15"
14157,commdev-image-keyboard-response,492,7949462,learnblock2,387.90000009536743,img/planet9_left.png,9,Community 2,NA,TRUE,f,f,NA,NA,NA,NA,7,"13,10,14,8,6,2,9,5,11,12,1,3,4,7,15"
14157,commdev-image-keyboard-response,493,7950753,learnblock2,433.6999999284744,img/planet2_left.png,2,Community 2,NA,FALSE,j,f,NA,NA,NA,NA,7,"13,10,14,8,6,2,9,5,11,12,1,3,4,7,15"
14157,commdev-image-keyboard-response,494,7952014,learnblock2,null,img/planet11_right.png,11,Community 2,NA,FALSE,null,j,NA,NA,NA,NA,7,"13,10,14,8,6,2,9,5,11,12,1,3,4,7,15"
14157,commdev-image-keyboard-response,495,7953282,learnblock2,464.89999997615814,img/planet2_left.png,2,Community 2,NA,TRUE,f,f,NA,NA,NA,NA,7,"13,10,14,8,6,2,9,5,11,12,1,3,4,7,15"
14157,commdev-image-keyboard-response,496,7954543,learnblock2,514,img/planet11_right.png,11,Community 2,NA,TRUE,j,j,NA,NA,NA,NA,7,"13,10,14,8,6,2,9,5,11,12,1,3,4,7,15"
14157,commdev-image-keyboard-response,497,7955803,learnblock2,515.3999999761581,img/planet5_right.png,5,Community 2,NA,TRUE,j,j,NA,NA,NA,NA,7,"13,10,14,8,6,2,9,5,11,12,1,3,4,7,15"
14157,commdev-image-keyboard-response,498,7957062,learnblock2,596.6000000238419,img/planet12_left.png,12,Community 2,NA,TRUE,f,f,NA,NA,NA,NA,7,"13,10,14,8,6,2,9,5,11,12,1,3,4,7,15"
14157,commdev-image-keyboard-response,499,7958317,learnblock2,629.7000000476837,img/planet5_right.png,5,Community 2,NA,FALSE,f,j,NA,NA,NA,NA,7,"13,10,14,8,6,2,9,5,11,12,1,3,4,7,15"
14157,commdev-image-keyboard-response,500,7959577,learnblock2,547.1999999284744,img/planet11_right.png,11,Community 2,NA,TRUE,j,j,NA,NA,NA,NA,7,"13,10,14,8,6,2,9,5,11,12,1,3,4,7,15"
14157,commdev-image-keyboard-response,501,7960834,learnblock2,454,img/planet9_right.png,9,Community 2,NA,TRUE,j,j,NA,NA,NA,NA,7,"13,10,14,8,6,2,9,5,11,12,1,3,4,7,15"
14157,commdev-image-keyboard-response,502,7962094,learnblock2,354.59999990463257,img/planet2_right.png,2,Community 2,NA,TRUE,j,j,NA,NA,NA,NA,7,"13,10,14,8,6,2,9,5,11,12,1,3,4,7,15"
14157,commdev-image-keyboard-response,503,7963355,learnblock2,374.60000002384186,img/planet12_right.png,12,Community 2,NA,TRUE,j,j,NA,NA,NA,NA,7,"13,10,14,8,6,2,9,5,11,12,1,3,4,7,15"
14157,commdev-image-keyboard-response,504,7964612,learnblock2,null,img/planet2_left.png,2,Community 2,NA,FALSE,null,f,NA,NA,NA,NA,7,"13,10,14,8,6,2,9,5,11,12,1,3,4,7,15"
14157,commdev-image-keyboard-response,505,7965865,learnblock2,529.2999999523163,img/planet11_left.png,11,Community 2,NA,FALSE,j,f,NA,NA,NA,NA,7,"13,10,14,8,6,2,9,5,11,12,1,3,4,7,15"
14157,commdev-image-keyboard-response,506,7967124,learnblock2,null,img/planet9_right.png,9,Community 2,NA,FALSE,null,j,NA,NA,NA,NA,7,"13,10,14,8,6,2,9,5,11,12,1,3,4,7,15"
14157,commdev-image-keyboard-response,507,7968380,learnblock2,659.8000000715256,img/planet12_right.png,12,Community 2,NA,TRUE,j,j,NA,NA,NA,NA,7,"13,10,14,8,6,2,9,5,11,12,1,3,4,7,15"
14157,commdev-image-keyboard-response,508,7969638,learnblock2,531.2999999523163,img/planet9_left.png,9,Community 2,NA,TRUE,f,f,NA,NA,NA,NA,7,"13,10,14,8,6,2,9,5,11,12,1,3,4,7,15"
14157,commdev-image-keyboard-response,509,7970903,learnblock2,641.3999999761581,img/planet11_left.png,11,Community 2,NA,TRUE,f,f,NA,NA,NA,NA,7,"13,10,14,8,6,2,9,5,11,12,1,3,4,7,15"
14157,commdev-image-keyboard-response,510,7972160,learnblock2,479.89999997615814,img/planet12_left.png,12,Community 2,NA,TRUE,f,f,NA,NA,NA,NA,7,"13,10,14,8,6,2,9,5,11,12,1,3,4,7,15"
14157,commdev-image-keyboard-response,511,7973416,learnblock2,656.5,img/planet9_left.png,9,Community 2,NA,TRUE,f,f,NA,NA,NA,NA,7,"13,10,14,8,6,2,9,5,11,12,1,3,4,7,15"
14157,commdev-image-keyboard-response,512,7974676,learnblock2,599.8999999761581,img/planet12_right.png,12,Community 2,NA,TRUE,j,j,NA,NA,NA,NA,7,"13,10,14,8,6,2,9,5,11,12,1,3,4,7,15"
14157,commdev-image-keyboard-response,513,7975929,learnblock2,475.2000000476837,img/planet11_left.png,11,Community 2,NA,TRUE,f,f,NA,NA,NA,NA,7,"13,10,14,8,6,2,9,5,11,12,1,3,4,7,15"
14157,commdev-image-keyboard-response,514,7977189,learnblock2,453.2000000476837,img/planet9_right.png,9,Community 2,NA,TRUE,j,j,NA,NA,NA,NA,7,"13,10,14,8,6,2,9,5,11,12,1,3,4,7,15"
14157,commdev-image-keyboard-response,515,7978458,learnblock2,416.60000002384186,img/planet12_left.png,12,Community 2,NA,TRUE,f,f,NA,NA,NA,NA,7,"13,10,14,8,6,2,9,5,11,12,1,3,4,7,15"
14157,commdev-image-keyboard-response,516,7979719,learnblock2,560.1999999284744,img/planet11_left.png,11,Community 2,NA,TRUE,f,f,NA,NA,NA,NA,7,"13,10,14,8,6,2,9,5,11,12,1,3,4,7,15"
14157,commdev-image-keyboard-response,517,7980972,learnblock2,521.2999999523163,img/planet5_right.png,5,Community 2,NA,TRUE,j,j,NA,NA,NA,NA,7,"13,10,14,8,6,2,9,5,11,12,1,3,4,7,15"
14157,commdev-image-keyboard-response,518,7982237,learnblock2,360.7000000476837,img/planet11_right.png,11,Community 2,NA,TRUE,j,j,NA,NA,NA,NA,7,"13,10,14,8,6,2,9,5,11,12,1,3,4,7,15"
14157,commdev-image-keyboard-response,519,7983490,learnblock2,396.10000002384186,img/planet12_right.png,12,Community 2,NA,TRUE,j,j,NA,NA,NA,NA,7,"13,10,14,8,6,2,9,5,11,12,1,3,4,7,15"
14157,commdev-image-keyboard-response,520,7984749,learnblock2,468.6999999284744,img/planet5_left.png,5,Community 2,NA,TRUE,f,f,NA,NA,NA,NA,7,"13,10,14,8,6,2,9,5,11,12,1,3,4,7,15"
14157,commdev-image-keyboard-response,521,7986003,learnblock2,514.8999999761581,img/planet11_left.png,11,Community 2,NA,TRUE,f,f,NA,NA,NA,NA,7,"13,10,14,8,6,2,9,5,11,12,1,3,4,7,15"
14157,commdev-image-keyboard-response,522,7987262,learnblock2,638.1000000238419,img/planet5_left.png,5,Community 2,NA,TRUE,f,f,NA,NA,NA,NA,7,"13,10,14,8,6,2,9,5,11,12,1,3,4,7,15"
14157,commdev-image-keyboard-response,523,7988521,learnblock2,467.7999999523163,img/planet3_right.png,3,Community 3,NA,TRUE,j,j,NA,NA,NA,NA,7,"13,10,14,8,6,2,9,5,11,12,1,3,4,7,15"
14157,commdev-image-keyboard-response,524,7989779,learnblock2,445.7999999523163,img/planet4_right.png,4,Community 3,NA,TRUE,j,j,NA,NA,NA,NA,7,"13,10,14,8,6,2,9,5,11,12,1,3,4,7,15"
14157,commdev-image-keyboard-response,525,7991035,learnblock2,490.60000002384186,img/planet7_right.png,7,Community 3,NA,TRUE,j,j,NA,NA,NA,NA,7,"13,10,14,8,6,2,9,5,11,12,1,3,4,7,15"
14157,commdev-image-keyboard-response,526,7992292,learnblock2,624.8999999761581,img/planet15_right.png,15,Community 3,NA,TRUE,j,j,NA,NA,NA,NA,7,"13,10,14,8,6,2,9,5,11,12,1,3,4,7,15"
14157,commdev-image-keyboard-response,527,7993546,learnblock2,486.1999999284744,img/planet1_right.png,1,Community 3,NA,TRUE,j,j,NA,NA,NA,NA,7,"13,10,14,8,6,2,9,5,11,12,1,3,4,7,15"
14157,commdev-image-keyboard-response,528,7994802,learnblock2,456.7000000476837,img/planet4_left.png,4,Community 3,NA,TRUE,f,f,NA,NA,NA,NA,7,"13,10,14,8,6,2,9,5,11,12,1,3,4,7,15"
14157,commdev-image-keyboard-response,529,7996070,learnblock2,523.8000000715256,img/planet3_right.png,3,Community 3,NA,TRUE,j,j,NA,NA,NA,NA,7,"13,10,14,8,6,2,9,5,11,12,1,3,4,7,15"
14157,commdev-image-keyboard-response,530,7997331,learnblock2,502.1999999284744,img/planet5_right.png,5,Community 2,NA,TRUE,j,j,NA,NA,NA,NA,7,"13,10,14,8,6,2,9,5,11,12,1,3,4,7,15"
14157,commdev-image-keyboard-response,531,7998585,learnblock2,506.39999997615814,img/planet11_left.png,11,Community 2,NA,TRUE,f,f,NA,NA,NA,NA,7,"13,10,14,8,6,2,9,5,11,12,1,3,4,7,15"
14157,commdev-image-keyboard-response,532,7999853,learnblock2,384.5,img/planet2_left.png,2,Community 2,NA,TRUE,f,f,NA,NA,NA,NA,7,"13,10,14,8,6,2,9,5,11,12,1,3,4,7,15"
14157,commdev-image-keyboard-response,533,8001108,learnblock2,420.6999999284744,img/planet9_right.png,9,Community 2,NA,TRUE,j,j,NA,NA,NA,NA,7,"13,10,14,8,6,2,9,5,11,12,1,3,4,7,15"
14157,commdev-image-keyboard-response,534,8002361,learnblock2,481.39999997615814,img/planet2_right.png,2,Community 2,NA,TRUE,j,j,NA,NA,NA,NA,7,"13,10,14,8,6,2,9,5,11,12,1,3,4,7,15"
14157,commdev-image-keyboard-response,535,8003616,learnblock2,468.39999997615814,img/planet12_left.png,12,Community 2,NA,TRUE,f,f,NA,NA,NA,NA,7,"13,10,14,8,6,2,9,5,11,12,1,3,4,7,15"
14157,commdev-image-keyboard-response,536,8004870,learnblock2,500.7999999523163,img/planet9_right.png,9,Community 2,NA,TRUE,j,j,NA,NA,NA,NA,7,"13,10,14,8,6,2,9,5,11,12,1,3,4,7,15"
14157,commdev-image-keyboard-response,537,8006138,learnblock2,481.1999999284744,img/planet2_left.png,2,Community 2,NA,FALSE,j,f,NA,NA,NA,NA,7,"13,10,14,8,6,2,9,5,11,12,1,3,4,7,15"
14157,commdev-image-keyboard-response,538,8007393,learnblock2,873.8999999761581,img/planet11_right.png,11,Community 2,NA,TRUE,j,j,NA,NA,NA,NA,7,"13,10,14,8,6,2,9,5,11,12,1,3,4,7,15"
14157,commdev-image-keyboard-response,539,8008654,learnblock2,517.7999999523163,img/planet12_left.png,12,Community 2,NA,TRUE,f,f,NA,NA,NA,NA,7,"13,10,14,8,6,2,9,5,11,12,1,3,4,7,15"
14157,commdev-image-keyboard-response,540,8009909,learnblock2,534.8999999761581,img/planet9_right.png,9,Community 2,NA,TRUE,j,j,NA,NA,NA,NA,7,"13,10,14,8,6,2,9,5,11,12,1,3,4,7,15"
14157,commdev-image-keyboard-response,541,8011166,learnblock2,577.2999999523163,img/planet11_right.png,11,Community 2,NA,TRUE,j,j,NA,NA,NA,NA,7,"13,10,14,8,6,2,9,5,11,12,1,3,4,7,15"
14157,commdev-image-keyboard-response,542,8012422,learnblock2,482.60000002384186,img/planet9_right.png,9,Community 2,NA,TRUE,j,j,NA,NA,NA,NA,7,"13,10,14,8,6,2,9,5,11,12,1,3,4,7,15"
14157,commdev-image-keyboard-response,543,8013686,learnblock2,526.6999999284744,img/planet5_right.png,5,Community 2,NA,TRUE,j,j,NA,NA,NA,NA,7,"13,10,14,8,6,2,9,5,11,12,1,3,4,7,15"
14157,commdev-image-keyboard-response,544,8014944,learnblock2,513.2000000476837,img/planet12_left.png,12,Community 2,NA,TRUE,f,f,NA,NA,NA,NA,7,"13,10,14,8,6,2,9,5,11,12,1,3,4,7,15"
14157,commdev-image-keyboard-response,545,8016206,learnblock2,674,img/planet5_left.png,5,Community 2,NA,TRUE,f,f,NA,NA,NA,NA,7,"13,10,14,8,6,2,9,5,11,12,1,3,4,7,15"
14157,commdev-image-keyboard-response,546,8017467,learnblock2,551.9000000953674,img/planet11_right.png,11,Community 2,NA,TRUE,j,j,NA,NA,NA,NA,7,"13,10,14,8,6,2,9,5,11,12,1,3,4,7,15"
14157,commdev-image-keyboard-response,547,8018725,learnblock2,364.7000000476837,img/planet9_left.png,9,Community 2,NA,TRUE,f,f,NA,NA,NA,NA,7,"13,10,14,8,6,2,9,5,11,12,1,3,4,7,15"
14157,commdev-image-keyboard-response,548,8019984,learnblock2,391.10000002384186,img/planet11_left.png,11,Community 2,NA,FALSE,j,f,NA,NA,NA,NA,7,"13,10,14,8,6,2,9,5,11,12,1,3,4,7,15"
14157,commdev-image-keyboard-response,549,8021241,learnblock2,null,img/planet9_right.png,9,Community 2,NA,FALSE,null,j,NA,NA,NA,NA,7,"13,10,14,8,6,2,9,5,11,12,1,3,4,7,15"
14157,commdev-image-keyboard-response,550,8022502,learnblock2,384,img/planet12_left.png,12,Community 2,NA,TRUE,f,f,NA,NA,NA,NA,7,"13,10,14,8,6,2,9,5,11,12,1,3,4,7,15"
14157,commdev-image-keyboard-response,551,8023768,learnblock2,544.8999999761581,img/planet11_left.png,11,Community 2,NA,TRUE,f,f,NA,NA,NA,NA,7,"13,10,14,8,6,2,9,5,11,12,1,3,4,7,15"
14157,commdev-image-keyboard-response,552,8025024,learnblock2,446.5,img/planet12_left.png,12,Community 2,NA,TRUE,f,f,NA,NA,NA,NA,7,"13,10,14,8,6,2,9,5,11,12,1,3,4,7,15"
14157,commdev-image-keyboard-response,553,8026285,learnblock2,424.89999997615814,img/planet11_right.png,11,Community 2,NA,FALSE,f,j,NA,NA,NA,NA,7,"13,10,14,8,6,2,9,5,11,12,1,3,4,7,15"
14157,commdev-image-keyboard-response,554,8027542,learnblock2,null,img/planet2_left.png,2,Community 2,NA,FALSE,null,f,NA,NA,NA,NA,7,"13,10,14,8,6,2,9,5,11,12,1,3,4,7,15"
14157,commdev-image-keyboard-response,555,8028796,learnblock2,682.5,img/planet8_left.png,8,Community 1,NA,TRUE,f,f,NA,NA,NA,NA,7,"13,10,14,8,6,2,9,5,11,12,1,3,4,7,15"
14157,commdev-image-keyboard-response,556,8030057,learnblock2,637.2000000476837,img/planet14_right.png,14,Community 1,NA,TRUE,j,j,NA,NA,NA,NA,7,"13,10,14,8,6,2,9,5,11,12,1,3,4,7,15"
14157,commdev-image-keyboard-response,557,8031313,learnblock2,492.2999999523163,img/planet10_right.png,10,Community 1,NA,TRUE,j,j,NA,NA,NA,NA,7,"13,10,14,8,6,2,9,5,11,12,1,3,4,7,15"
14157,commdev-image-keyboard-response,558,8032577,learnblock2,349.60000002384186,img/planet13_left.png,13,Community 1,NA,TRUE,f,f,NA,NA,NA,NA,7,"13,10,14,8,6,2,9,5,11,12,1,3,4,7,15"
14157,commdev-image-keyboard-response,559,8033836,learnblock2,542.6000000238419,img/planet14_left.png,14,Community 1,NA,TRUE,f,f,NA,NA,NA,NA,7,"13,10,14,8,6,2,9,5,11,12,1,3,4,7,15"
14157,commdev-image-keyboard-response,560,8035098,learnblock2,499,img/planet10_right.png,10,Community 1,NA,TRUE,j,j,NA,NA,NA,NA,7,"13,10,14,8,6,2,9,5,11,12,1,3,4,7,15"
14157,commdev-image-keyboard-response,561,8036361,learnblock2,558.2000000476837,img/planet6_right.png,6,Community 1,NA,TRUE,j,j,NA,NA,NA,NA,7,"13,10,14,8,6,2,9,5,11,12,1,3,4,7,15"
14157,commdev-image-keyboard-response,562,8037617,learnblock2,422.6999999284744,img/planet13_left.png,13,Community 1,NA,TRUE,f,f,NA,NA,NA,NA,7,"13,10,14,8,6,2,9,5,11,12,1,3,4,7,15"
14157,commdev-image-keyboard-response,563,8038882,learnblock2,710,img/planet14_right.png,14,Community 1,NA,TRUE,j,j,NA,NA,NA,NA,7,"13,10,14,8,6,2,9,5,11,12,1,3,4,7,15"
14157,commdev-image-keyboard-response,564,8040135,learnblock2,359.6999999284744,img/planet6_left.png,6,Community 1,NA,TRUE,f,f,NA,NA,NA,NA,7,"13,10,14,8,6,2,9,5,11,12,1,3,4,7,15"
14157,commdev-image-keyboard-response,565,8041390,learnblock2,617.2000000476837,img/planet10_right.png,10,Community 1,NA,TRUE,j,j,NA,NA,NA,NA,7,"13,10,14,8,6,2,9,5,11,12,1,3,4,7,15"
14157,commdev-image-keyboard-response,566,8042644,learnblock2,523.7999999523163,img/planet14_left.png,14,Community 1,NA,TRUE,f,f,NA,NA,NA,NA,7,"13,10,14,8,6,2,9,5,11,12,1,3,4,7,15"
14157,commdev-image-keyboard-response,567,8043903,learnblock2,539.3999999761581,img/planet10_left.png,10,Community 1,NA,TRUE,f,f,NA,NA,NA,NA,7,"13,10,14,8,6,2,9,5,11,12,1,3,4,7,15"
14157,commdev-image-keyboard-response,568,8045159,learnblock2,730.5,img/planet8_left.png,8,Community 1,NA,TRUE,f,f,NA,NA,NA,NA,7,"13,10,14,8,6,2,9,5,11,12,1,3,4,7,15"
14157,commdev-image-keyboard-response,569,8046421,learnblock2,629.8999999761581,img/planet13_right.png,13,Community 1,NA,TRUE,j,j,NA,NA,NA,NA,7,"13,10,14,8,6,2,9,5,11,12,1,3,4,7,15"
14157,commdev-image-keyboard-response,570,8047676,learnblock2,532.6000000238419,img/planet10_right.png,10,Community 1,NA,TRUE,j,j,NA,NA,NA,NA,7,"13,10,14,8,6,2,9,5,11,12,1,3,4,7,15"
14157,commdev-image-keyboard-response,571,8048937,learnblock2,528.1000000238419,img/planet6_left.png,6,Community 1,NA,TRUE,f,f,NA,NA,NA,NA,7,"13,10,14,8,6,2,9,5,11,12,1,3,4,7,15"
14157,commdev-image-keyboard-response,572,8050198,learnblock2,413,img/planet14_right.png,14,Community 1,NA,TRUE,j,j,NA,NA,NA,NA,7,"13,10,14,8,6,2,9,5,11,12,1,3,4,7,15"
14157,commdev-image-keyboard-response,573,8051457,learnblock2,558.3999999761581,img/planet8_left.png,8,Community 1,NA,TRUE,f,f,NA,NA,NA,NA,7,"13,10,14,8,6,2,9,5,11,12,1,3,4,7,15"
14157,commdev-image-keyboard-response,574,8052714,learnblock2,537.3000000715256,img/planet10_left.png,10,Community 1,NA,TRUE,f,f,NA,NA,NA,NA,7,"13,10,14,8,6,2,9,5,11,12,1,3,4,7,15"
14157,commdev-image-keyboard-response,575,8053981,learnblock2,668.5,img/planet8_left.png,8,Community 1,NA,TRUE,f,f,NA,NA,NA,NA,7,"13,10,14,8,6,2,9,5,11,12,1,3,4,7,15"
14157,commdev-image-keyboard-response,576,8055235,learnblock2,549.6000000238419,img/planet10_right.png,10,Community 1,NA,TRUE,j,j,NA,NA,NA,NA,7,"13,10,14,8,6,2,9,5,11,12,1,3,4,7,15"
14157,commdev-image-keyboard-response,577,8056492,learnblock2,675.2999999523163,img/planet6_left.png,6,Community 1,NA,TRUE,f,f,NA,NA,NA,NA,7,"13,10,14,8,6,2,9,5,11,12,1,3,4,7,15"
14157,commdev-image-keyboard-response,578,8057748,learnblock2,491.89999997615814,img/planet10_right.png,10,Community 1,NA,TRUE,j,j,NA,NA,NA,NA,7,"13,10,14,8,6,2,9,5,11,12,1,3,4,7,15"
14157,commdev-image-keyboard-response,579,8059013,learnblock2,486.89999997615814,img/planet6_left.png,6,Community 1,NA,TRUE,f,f,NA,NA,NA,NA,7,"13,10,14,8,6,2,9,5,11,12,1,3,4,7,15"
14157,commdev-image-keyboard-response,580,8060273,learnblock2,421.7000000476837,img/planet10_left.png,10,Community 1,NA,TRUE,f,f,NA,NA,NA,NA,7,"13,10,14,8,6,2,9,5,11,12,1,3,4,7,15"
14157,commdev-image-keyboard-response,581,8061539,learnblock2,749.2999999523163,img/planet8_left.png,8,Community 1,NA,TRUE,f,f,NA,NA,NA,NA,7,"13,10,14,8,6,2,9,5,11,12,1,3,4,7,15"
14157,commdev-image-keyboard-response,582,8062793,learnblock2,950.6000000238419,img/planet2_right.png,2,Community 2,NA,FALSE,f,j,NA,NA,NA,NA,7,"13,10,14,8,6,2,9,5,11,12,1,3,4,7,15"
14157,commdev-image-keyboard-response,583,8064048,learnblock2,1051.2000000476837,img/planet9_left.png,9,Community 2,NA,TRUE,f,f,NA,NA,NA,NA,7,"13,10,14,8,6,2,9,5,11,12,1,3,4,7,15"
14157,commdev-image-keyboard-response,584,8065304,learnblock2,653.5,img/planet11_left.png,11,Community 2,NA,TRUE,f,f,NA,NA,NA,NA,7,"13,10,14,8,6,2,9,5,11,12,1,3,4,7,15"
