subject_id,trial_type,trial_index,time_elapsed,block,rt,stimulus,planet,community,response,correct,key_press,learning_correct_response,parse,init_locations,final_locations,browser_interactions,num_comp,planet_map
14085,commdev-instructions,7,31180,NA,1950.5,"<p>In this game, you are a scientist on board a space shuttle. </p><p> On each mission, you will visit planets all across the universe.</p><img src=""img/controlroom.jpg"" width=300vw>",NA,NA,NA,NA,NA,NA,NA,NA,NA,NA,6,"1,5,7,13,9,2,12,8,15,14,3,6,10,11,4"
14085,commdev-instructions,8,35406,NA,2155.5,"<p>Here are a few planets you might see:</p><img src=""img/practice1.png"" width=200vw><img src=""img/practice2.png"" width=200vw><img src=""img/practice3.png"" width=200vw>",NA,NA,NA,NA,NA,NA,NA,NA,NA,NA,6,"1,5,7,13,9,2,12,8,15,14,3,6,10,11,4"
14085,commdev-instructions,9,45612,NA,2792.1999999999825,"<p>Your job as a scientist is to record which direction the winds are moving on each planet.</p><p>There are two types of wind directions:</p><img src=""img/practice1_left.png"" width=200vw><img src=""img/practice1_right.png"" width=200vw>",NA,NA,NA,NA,NA,NA,NA,NA,NA,NA,6,"1,5,7,13,9,2,12,8,15,14,3,6,10,11,4"
14085,commdev-instructions,10,52617,NA,2116,"<p>If the winds are moving this way, press the letter <strong>F</strong> on the keyboard as fast as you can.</p><img src=""img/leftwind.png"" width=250vw>",NA,NA,NA,NA,NA,NA,NA,NA,NA,NA,6,"1,5,7,13,9,2,12,8,15,14,3,6,10,11,4"
14085,commdev-instructions,11,57833,NA,698.6999999999825,"<p>If the winds are moving this way, press the letter <strong>J</strong> on the keyboard as fast as you can.</p><img src=""img/rightwind.png"" width=350vw>",NA,NA,NA,NA,NA,NA,NA,NA,NA,NA,6,"1,5,7,13,9,2,12,8,15,14,3,6,10,11,4"
14085,commdev-instructions,12,64892,NA,2637.7999999999884,<p>You will have 1 second to respond. Try to respond before the time runs out!,NA,NA,NA,NA,NA,NA,NA,NA,NA,NA,6,"1,5,7,13,9,2,12,8,15,14,3,6,10,11,4"
14085,commdev-instructions,13,71662,NA,1337.8000000000175,<p>The planets you will visit will look different from each other.</p><p>You should respond <strong>only</strong> based on wind direction.,NA,NA,NA,NA,NA,NA,NA,NA,NA,NA,6,"1,5,7,13,9,2,12,8,15,14,3,6,10,11,4"
14085,commdev-instructions,14,80071,NA,3235.7999999999884,"<p> Ready to start the practice round? </p><p> Remember, press <strong>F</strong> or <strong>J</strong> depending on the wind direction.<br><img src=""img/categorize_planet_example.png""",NA,NA,NA,NA,NA,NA,NA,NA,NA,NA,6,"1,5,7,13,9,2,12,8,15,14,3,6,10,11,4"
14085,commdev-instructions,26,131038,NA,1944.1000000000058,"<p>Great, now try a short practice mission. </p><p> This time, you will have 1 second to respond and you won't know whether you pressed the right or wrong key for each planet.</p>",NA,NA,NA,NA,NA,NA,NA,NA,NA,NA,6,"1,5,7,13,9,2,12,8,15,14,3,6,10,11,4"
14085,commdev-image-keyboard-response,27,132419,practice,207.10000000000582,img/practice1_left.png,NA,Number not found in mappings,NA,TRUE,f,f,NA,NA,NA,NA,6,"1,5,7,13,9,2,12,8,15,14,3,6,10,11,4"
14085,commdev-image-keyboard-response,28,133673,practice,182.10000000000582,img/practice4_left.png,NA,Number not found in mappings,NA,TRUE,f,f,NA,NA,NA,NA,6,"1,5,7,13,9,2,12,8,15,14,3,6,10,11,4"
14085,commdev-image-keyboard-response,29,134929,practice,127.5,img/practice1_right.png,NA,Number not found in mappings,NA,FALSE,f,j,NA,NA,NA,NA,6,"1,5,7,13,9,2,12,8,15,14,3,6,10,11,4"
14085,commdev-image-keyboard-response,30,136189,practice,79.60000000000582,img/practice3_left.png,NA,Number not found in mappings,NA,FALSE,j,f,NA,NA,NA,NA,6,"1,5,7,13,9,2,12,8,15,14,3,6,10,11,4"
14085,commdev-image-keyboard-response,31,137444,practice,115.20000000001164,img/practice4_left.png,NA,Number not found in mappings,NA,TRUE,f,f,NA,NA,NA,NA,6,"1,5,7,13,9,2,12,8,15,14,3,6,10,11,4"
14085,commdev-image-keyboard-response,32,138709,practice,12.299999999988358,img/practice2_right.png,NA,Number not found in mappings,NA,FALSE,f,j,NA,NA,NA,NA,6,"1,5,7,13,9,2,12,8,15,14,3,6,10,11,4"
14085,commdev-image-keyboard-response,33,139962,practice,84.10000000000582,img/practice4_left.png,NA,Number not found in mappings,NA,FALSE,j,f,NA,NA,NA,NA,6,"1,5,7,13,9,2,12,8,15,14,3,6,10,11,4"
14085,commdev-image-keyboard-response,34,141213,practice,103.5,img/practice3_left.png,NA,Number not found in mappings,NA,TRUE,f,f,NA,NA,NA,NA,6,"1,5,7,13,9,2,12,8,15,14,3,6,10,11,4"
14085,commdev-instructions,35,151233,NA,468.29999999998836,"<p>Great job with the practice round.</p><p>During real missions, you won't know whether you pressed the right or wrong key for each planet.</p><p>But between missions, we will tell you how you did overall.</p>",NA,NA,NA,NA,NA,NA,NA,NA,NA,NA,6,"1,5,7,13,9,2,12,8,15,14,3,6,10,11,4"
14085,commdev-instructions,36,160446,NA,971,<p>Try your best! You will be paid a bonus based on how many correct responses you make!</p><p>Responses that are too slow will not count toward your bonus.</p>,NA,NA,NA,NA,NA,NA,NA,NA,NA,NA,6,"1,5,7,13,9,2,12,8,15,14,3,6,10,11,4"
14085,commdev-instructions,37,167206,NA,550.8999999999942,"<p>You are almost ready to start the real game.</p><p> First, we are going to ask you some questions about how the game works.</p>",NA,NA,NA,NA,NA,NA,NA,NA,NA,NA,6,"1,5,7,13,9,2,12,8,15,14,3,6,10,11,4"
14085,commdev-instructions,46,243897,NA,2238.9000000000233,"<p> Nice work! It is now time to start the real game.<p></p>You will go on two missions to record wind directions of different planets.<p></p>Each one will take about 5 minutes. You will get to take a break between missions.<p><p> Remember, press <strong>F</strong> or <strong>J</strong> depending on the wind direction. Good luck!<br><img src=""img/categorize_planet_example.png""",NA,NA,NA,NA,NA,NA,NA,NA,NA,NA,6,"1,5,7,13,9,2,12,8,15,14,3,6,10,11,4"
14085,commdev-image-keyboard-response,48,247711,learnblock1,1007.2000000000116,img/planet10_left.png,10,Community 3,NA,TRUE,f,f,NA,NA,NA,NA,6,"1,5,7,13,9,2,12,8,15,14,3,6,10,11,4"
14085,commdev-image-keyboard-response,49,248966,learnblock1,846.0999999999767,img/planet6_right.png,6,Community 3,NA,TRUE,j,j,NA,NA,NA,NA,6,"1,5,7,13,9,2,12,8,15,14,3,6,10,11,4"
14085,commdev-image-keyboard-response,50,250230,learnblock1,679.2999999999884,img/planet4_left.png,4,Community 3,NA,TRUE,f,f,NA,NA,NA,NA,6,"1,5,7,13,9,2,12,8,15,14,3,6,10,11,4"
14085,commdev-image-keyboard-response,51,251496,learnblock1,695.2999999999884,img/planet6_right.png,6,Community 3,NA,TRUE,j,j,NA,NA,NA,NA,6,"1,5,7,13,9,2,12,8,15,14,3,6,10,11,4"
14085,commdev-image-keyboard-response,52,252760,learnblock1,301.3999999999651,img/planet4_right.png,4,Community 3,NA,FALSE,f,j,NA,NA,NA,NA,6,"1,5,7,13,9,2,12,8,15,14,3,6,10,11,4"
14085,commdev-image-keyboard-response,53,254027,learnblock1,1069.5,img/planet11_right.png,11,Community 3,NA,FALSE,f,j,NA,NA,NA,NA,6,"1,5,7,13,9,2,12,8,15,14,3,6,10,11,4"
14085,commdev-image-keyboard-response,54,255293,learnblock1,161.90000000002328,img/planet6_left.png,6,Community 3,NA,FALSE,j,f,NA,NA,NA,NA,6,"1,5,7,13,9,2,12,8,15,14,3,6,10,11,4"
14085,commdev-image-keyboard-response,55,256545,learnblock1,784,img/planet10_left.png,10,Community 3,NA,TRUE,f,f,NA,NA,NA,NA,6,"1,5,7,13,9,2,12,8,15,14,3,6,10,11,4"
14085,commdev-image-keyboard-response,56,257811,learnblock1,812.5,img/planet4_left.png,4,Community 3,NA,TRUE,f,f,NA,NA,NA,NA,6,"1,5,7,13,9,2,12,8,15,14,3,6,10,11,4"
14085,commdev-image-keyboard-response,57,259064,learnblock1,922.2000000000116,img/planet3_right.png,3,Community 3,NA,TRUE,j,j,NA,NA,NA,NA,6,"1,5,7,13,9,2,12,8,15,14,3,6,10,11,4"
14085,commdev-image-keyboard-response,58,260328,learnblock1,null,img/planet4_right.png,4,Community 3,NA,FALSE,null,j,NA,NA,NA,NA,6,"1,5,7,13,9,2,12,8,15,14,3,6,10,11,4"
14085,commdev-image-keyboard-response,59,261584,learnblock1,93.39999999996508,img/planet6_left.png,6,Community 3,NA,TRUE,f,f,NA,NA,NA,NA,6,"1,5,7,13,9,2,12,8,15,14,3,6,10,11,4"
14085,commdev-image-keyboard-response,60,262848,learnblock1,805.2000000000116,img/planet10_left.png,10,Community 3,NA,TRUE,f,f,NA,NA,NA,NA,6,"1,5,7,13,9,2,12,8,15,14,3,6,10,11,4"
14085,commdev-image-keyboard-response,61,264110,learnblock1,253.5,img/planet11_right.png,11,Community 3,NA,FALSE,f,j,NA,NA,NA,NA,6,"1,5,7,13,9,2,12,8,15,14,3,6,10,11,4"
14085,commdev-image-keyboard-response,62,265362,learnblock1,215.5,img/planet6_right.png,6,Community 3,NA,FALSE,f,j,NA,NA,NA,NA,6,"1,5,7,13,9,2,12,8,15,14,3,6,10,11,4"
14085,commdev-image-keyboard-response,63,266623,learnblock1,667.2999999999884,img/planet8_left.png,8,Community 2,NA,TRUE,f,f,NA,NA,NA,NA,6,"1,5,7,13,9,2,12,8,15,14,3,6,10,11,4"
14085,commdev-image-keyboard-response,64,267886,learnblock1,86.59999999997672,img/planet12_right.png,12,Community 2,NA,TRUE,j,j,NA,NA,NA,NA,6,"1,5,7,13,9,2,12,8,15,14,3,6,10,11,4"
14085,commdev-image-keyboard-response,65,269144,learnblock1,80,img/planet15_right.png,15,Community 2,NA,TRUE,j,j,NA,NA,NA,NA,6,"1,5,7,13,9,2,12,8,15,14,3,6,10,11,4"
14085,commdev-image-keyboard-response,66,270409,learnblock1,117.60000000003492,img/planet8_right.png,8,Community 2,NA,FALSE,f,j,NA,NA,NA,NA,6,"1,5,7,13,9,2,12,8,15,14,3,6,10,11,4"
14085,commdev-image-keyboard-response,67,271675,learnblock1,117,img/planet6_left.png,6,Community 3,NA,FALSE,j,f,NA,NA,NA,NA,6,"1,5,7,13,9,2,12,8,15,14,3,6,10,11,4"
14085,commdev-image-keyboard-response,68,272926,learnblock1,154.20000000001164,img/planet8_right.png,8,Community 2,NA,FALSE,f,j,NA,NA,NA,NA,6,"1,5,7,13,9,2,12,8,15,14,3,6,10,11,4"
14085,commdev-image-keyboard-response,69,274178,learnblock1,64.09999999997672,img/planet12_right.png,12,Community 2,NA,TRUE,j,j,NA,NA,NA,NA,6,"1,5,7,13,9,2,12,8,15,14,3,6,10,11,4"
14085,commdev-image-keyboard-response,70,275430,learnblock1,12,img/planet8_right.png,8,Community 2,NA,TRUE,j,j,NA,NA,NA,NA,6,"1,5,7,13,9,2,12,8,15,14,3,6,10,11,4"
14085,commdev-image-keyboard-response,71,276690,learnblock1,0.8999999999650754,img/planet12_right.png,12,Community 2,NA,FALSE,f,j,NA,NA,NA,NA,6,"1,5,7,13,9,2,12,8,15,14,3,6,10,11,4"
14085,commdev-image-keyboard-response,72,277942,learnblock1,67.90000000002328,img/planet8_left.png,8,Community 2,NA,TRUE,f,f,NA,NA,NA,NA,6,"1,5,7,13,9,2,12,8,15,14,3,6,10,11,4"
14085,commdev-image-keyboard-response,73,279193,learnblock1,88.09999999997672,img/planet6_right.png,6,Community 3,NA,TRUE,j,j,NA,NA,NA,NA,6,"1,5,7,13,9,2,12,8,15,14,3,6,10,11,4"
14085,commdev-image-keyboard-response,74,280444,learnblock1,221.09999999997672,img/planet8_right.png,8,Community 2,NA,TRUE,j,j,NA,NA,NA,NA,6,"1,5,7,13,9,2,12,8,15,14,3,6,10,11,4"
14085,commdev-image-keyboard-response,75,281695,learnblock1,123,img/planet6_right.png,6,Community 3,NA,TRUE,j,j,NA,NA,NA,NA,6,"1,5,7,13,9,2,12,8,15,14,3,6,10,11,4"
14085,commdev-image-keyboard-response,76,282951,learnblock1,6.2999999999883585,img/planet11_left.png,11,Community 3,NA,FALSE,j,f,NA,NA,NA,NA,6,"1,5,7,13,9,2,12,8,15,14,3,6,10,11,4"
14085,commdev-image-keyboard-response,77,284203,learnblock1,760,img/planet10_left.png,10,Community 3,NA,TRUE,f,f,NA,NA,NA,NA,6,"1,5,7,13,9,2,12,8,15,14,3,6,10,11,4"
14085,commdev-image-keyboard-response,78,285455,learnblock1,939.5999999999767,img/planet6_left.png,6,Community 3,NA,TRUE,f,f,NA,NA,NA,NA,6,"1,5,7,13,9,2,12,8,15,14,3,6,10,11,4"
14085,commdev-image-keyboard-response,79,286707,learnblock1,759.2999999999884,img/planet4_right.png,4,Community 3,NA,TRUE,j,j,NA,NA,NA,NA,6,"1,5,7,13,9,2,12,8,15,14,3,6,10,11,4"
14085,commdev-image-keyboard-response,80,287959,learnblock1,723.4000000000233,img/planet3_right.png,3,Community 3,NA,TRUE,j,j,NA,NA,NA,NA,6,"1,5,7,13,9,2,12,8,15,14,3,6,10,11,4"
14085,commdev-image-keyboard-response,81,289211,learnblock1,null,img/planet4_right.png,4,Community 3,NA,FALSE,null,j,NA,NA,NA,NA,6,"1,5,7,13,9,2,12,8,15,14,3,6,10,11,4"
14085,commdev-image-keyboard-response,82,290463,learnblock1,2.599999999976717,img/planet10_right.png,10,Community 3,NA,TRUE,j,j,NA,NA,NA,NA,6,"1,5,7,13,9,2,12,8,15,14,3,6,10,11,4"
14085,commdev-image-keyboard-response,83,291715,learnblock1,912.0999999999767,img/planet3_left.png,3,Community 3,NA,TRUE,f,f,NA,NA,NA,NA,6,"1,5,7,13,9,2,12,8,15,14,3,6,10,11,4"
14085,commdev-image-keyboard-response,84,292967,learnblock1,636,img/planet10_left.png,10,Community 3,NA,TRUE,f,f,NA,NA,NA,NA,6,"1,5,7,13,9,2,12,8,15,14,3,6,10,11,4"
14085,commdev-image-keyboard-response,85,294219,learnblock1,320.29999999998836,img/planet4_right.png,4,Community 3,NA,FALSE,f,j,NA,NA,NA,NA,6,"1,5,7,13,9,2,12,8,15,14,3,6,10,11,4"
14085,commdev-image-keyboard-response,86,295471,learnblock1,723.4000000000233,img/planet11_left.png,11,Community 3,NA,TRUE,f,f,NA,NA,NA,NA,6,"1,5,7,13,9,2,12,8,15,14,3,6,10,11,4"
14085,commdev-image-keyboard-response,87,296723,learnblock1,56.90000000002328,img/planet4_right.png,4,Community 3,NA,TRUE,j,j,NA,NA,NA,NA,6,"1,5,7,13,9,2,12,8,15,14,3,6,10,11,4"
14085,commdev-image-keyboard-response,88,297975,learnblock1,null,img/planet11_right.png,11,Community 3,NA,FALSE,null,j,NA,NA,NA,NA,6,"1,5,7,13,9,2,12,8,15,14,3,6,10,11,4"
14085,commdev-image-keyboard-response,89,299227,learnblock1,87.20000000001164,img/planet10_left.png,10,Community 3,NA,FALSE,j,f,NA,NA,NA,NA,6,"1,5,7,13,9,2,12,8,15,14,3,6,10,11,4"
14085,commdev-image-keyboard-response,90,300479,learnblock1,843.8000000000466,img/planet6_right.png,6,Community 3,NA,FALSE,f,j,NA,NA,NA,NA,6,"1,5,7,13,9,2,12,8,15,14,3,6,10,11,4"
14085,commdev-image-keyboard-response,91,301732,learnblock1,55.59999999997672,img/planet10_left.png,10,Community 3,NA,FALSE,j,f,NA,NA,NA,NA,6,"1,5,7,13,9,2,12,8,15,14,3,6,10,11,4"
14085,commdev-image-keyboard-response,92,302984,learnblock1,883.1000000000349,img/planet6_left.png,6,Community 3,NA,TRUE,f,f,NA,NA,NA,NA,6,"1,5,7,13,9,2,12,8,15,14,3,6,10,11,4"
14085,commdev-image-keyboard-response,93,304235,learnblock1,735.5999999999767,img/planet11_left.png,11,Community 3,NA,TRUE,f,f,NA,NA,NA,NA,6,"1,5,7,13,9,2,12,8,15,14,3,6,10,11,4"
14085,commdev-image-keyboard-response,94,305487,learnblock1,515.1000000000349,img/planet6_right.png,6,Community 3,NA,FALSE,f,j,NA,NA,NA,NA,6,"1,5,7,13,9,2,12,8,15,14,3,6,10,11,4"
14085,commdev-image-keyboard-response,95,306738,learnblock1,720.2999999999884,img/planet11_left.png,11,Community 3,NA,TRUE,f,f,NA,NA,NA,NA,6,"1,5,7,13,9,2,12,8,15,14,3,6,10,11,4"
14085,commdev-image-keyboard-response,96,307990,learnblock1,916.2999999999884,img/planet3_left.png,3,Community 3,NA,TRUE,f,f,NA,NA,NA,NA,6,"1,5,7,13,9,2,12,8,15,14,3,6,10,11,4"
14085,commdev-image-keyboard-response,97,309242,learnblock1,713.1000000000349,img/planet10_left.png,10,Community 3,NA,TRUE,f,f,NA,NA,NA,NA,6,"1,5,7,13,9,2,12,8,15,14,3,6,10,11,4"
14085,commdev-image-keyboard-response,98,310492,learnblock1,821.9000000000233,img/planet11_right.png,11,Community 3,NA,TRUE,j,j,NA,NA,NA,NA,6,"1,5,7,13,9,2,12,8,15,14,3,6,10,11,4"
14085,commdev-image-keyboard-response,99,311744,learnblock1,754.6999999999534,img/planet3_left.png,3,Community 3,NA,FALSE,j,f,NA,NA,NA,NA,6,"1,5,7,13,9,2,12,8,15,14,3,6,10,11,4"
14085,commdev-image-keyboard-response,100,312995,learnblock1,1039.3000000000466,img/planet11_right.png,11,Community 3,NA,FALSE,f,j,NA,NA,NA,NA,6,"1,5,7,13,9,2,12,8,15,14,3,6,10,11,4"
14085,commdev-image-keyboard-response,101,314248,learnblock1,212,img/planet4_left.png,4,Community 3,NA,FALSE,j,f,NA,NA,NA,NA,6,"1,5,7,13,9,2,12,8,15,14,3,6,10,11,4"
14085,commdev-image-keyboard-response,102,315514,learnblock1,959.5,img/planet3_right.png,3,Community 3,NA,FALSE,f,j,NA,NA,NA,NA,6,"1,5,7,13,9,2,12,8,15,14,3,6,10,11,4"
14085,commdev-image-keyboard-response,103,316766,learnblock1,437.4000000000233,img/planet10_left.png,10,Community 3,NA,TRUE,f,f,NA,NA,NA,NA,6,"1,5,7,13,9,2,12,8,15,14,3,6,10,11,4"
14085,commdev-image-keyboard-response,104,318019,learnblock1,0.19999999995343387,img/planet3_left.png,3,Community 3,NA,TRUE,f,f,NA,NA,NA,NA,6,"1,5,7,13,9,2,12,8,15,14,3,6,10,11,4"
14085,commdev-image-keyboard-response,105,319271,learnblock1,140.5,img/planet4_left.png,4,Community 3,NA,TRUE,f,f,NA,NA,NA,NA,6,"1,5,7,13,9,2,12,8,15,14,3,6,10,11,4"
14085,commdev-image-keyboard-response,106,320522,learnblock1,33.20000000001164,img/planet10_right.png,10,Community 3,NA,TRUE,j,j,NA,NA,NA,NA,6,"1,5,7,13,9,2,12,8,15,14,3,6,10,11,4"
14085,commdev-image-keyboard-response,107,321774,learnblock1,109.39999999996508,img/planet4_left.png,4,Community 3,NA,FALSE,j,f,NA,NA,NA,NA,6,"1,5,7,13,9,2,12,8,15,14,3,6,10,11,4"
14085,commdev-image-keyboard-response,108,323026,learnblock1,56.90000000002328,img/planet11_left.png,11,Community 3,NA,FALSE,j,f,NA,NA,NA,NA,6,"1,5,7,13,9,2,12,8,15,14,3,6,10,11,4"
14085,commdev-image-keyboard-response,109,324278,learnblock1,637.5,img/planet6_right.png,6,Community 3,NA,FALSE,f,j,NA,NA,NA,NA,6,"1,5,7,13,9,2,12,8,15,14,3,6,10,11,4"
14085,commdev-image-keyboard-response,110,325531,learnblock1,384.8999999999651,img/planet10_left.png,10,Community 3,NA,TRUE,f,f,NA,NA,NA,NA,6,"1,5,7,13,9,2,12,8,15,14,3,6,10,11,4"
14085,commdev-image-keyboard-response,111,326782,learnblock1,null,img/planet6_right.png,6,Community 3,NA,FALSE,null,j,NA,NA,NA,NA,6,"1,5,7,13,9,2,12,8,15,14,3,6,10,11,4"
14085,commdev-image-keyboard-response,112,328034,learnblock1,null,img/planet10_left.png,10,Community 3,NA,FALSE,null,f,NA,NA,NA,NA,6,"1,5,7,13,9,2,12,8,15,14,3,6,10,11,4"
14085,commdev-image-keyboard-response,113,329285,learnblock1,null,img/planet3_left.png,3,Community 3,NA,FALSE,null,f,NA,NA,NA,NA,6,"1,5,7,13,9,2,12,8,15,14,3,6,10,11,4"
14085,commdev-image-keyboard-response,114,330546,learnblock1,null,img/planet11_left.png,11,Community 3,NA,FALSE,null,f,NA,NA,NA,NA,6,"1,5,7,13,9,2,12,8,15,14,3,6,10,11,4"
14085,commdev-image-keyboard-response,115,331797,learnblock1,null,img/planet6_right.png,6,Community 3,NA,FALSE,null,j,NA,NA,NA,NA,6,"1,5,7,13,9,2,12,8,15,14,3,6,10,11,4"
14085,commdev-image-keyboard-response,116,333052,learnblock1,null,img/planet11_left.png,11,Community 3,NA,FALSE,null,f,NA,NA,NA,NA,6,"1,5,7,13,9,2,12,8,15,14,3,6,10,11,4"
14085,commdev-image-keyboard-response,117,334303,learnblock1,null,img/planet6_left.png,6,Community 3,NA,FALSE,null,f,NA,NA,NA,NA,6,"1,5,7,13,9,2,12,8,15,14,3,6,10,11,4"
14085,commdev-image-keyboard-response,118,335554,learnblock1,null,img/planet4_right.png,4,Community 3,NA,FALSE,null,j,NA,NA,NA,NA,6,"1,5,7,13,9,2,12,8,15,14,3,6,10,11,4"
14085,commdev-image-keyboard-response,119,336808,learnblock1,null,img/planet6_left.png,6,Community 3,NA,FALSE,null,f,NA,NA,NA,NA,6,"1,5,7,13,9,2,12,8,15,14,3,6,10,11,4"
14085,commdev-image-keyboard-response,120,338059,learnblock1,null,img/planet11_left.png,11,Community 3,NA,FALSE,null,f,NA,NA,NA,NA,6,"1,5,7,13,9,2,12,8,15,14,3,6,10,11,4"
14085,commdev-image-keyboard-response,121,339310,learnblock1,null,img/planet4_right.png,4,Community 3,NA,FALSE,null,j,NA,NA,NA,NA,6,"1,5,7,13,9,2,12,8,15,14,3,6,10,11,4"
14085,commdev-image-keyboard-response,122,340562,learnblock1,null,img/planet11_left.png,11,Community 3,NA,FALSE,null,f,NA,NA,NA,NA,6,"1,5,7,13,9,2,12,8,15,14,3,6,10,11,4"
14085,commdev-image-keyboard-response,123,341813,learnblock1,null,img/planet3_right.png,3,Community 3,NA,FALSE,null,j,NA,NA,NA,NA,6,"1,5,7,13,9,2,12,8,15,14,3,6,10,11,4"
14085,commdev-image-keyboard-response,124,343064,learnblock1,null,img/planet10_left.png,10,Community 3,NA,FALSE,null,f,NA,NA,NA,NA,6,"1,5,7,13,9,2,12,8,15,14,3,6,10,11,4"
14085,commdev-image-keyboard-response,125,344319,learnblock1,null,img/planet3_left.png,3,Community 3,NA,FALSE,null,f,NA,NA,NA,NA,6,"1,5,7,13,9,2,12,8,15,14,3,6,10,11,4"
14085,commdev-image-keyboard-response,126,345572,learnblock1,null,img/planet9_right.png,9,Community 1,NA,FALSE,null,j,NA,NA,NA,NA,6,"1,5,7,13,9,2,12,8,15,14,3,6,10,11,4"
14085,commdev-image-keyboard-response,127,346824,learnblock1,null,img/planet5_right.png,5,Community 1,NA,FALSE,null,j,NA,NA,NA,NA,6,"1,5,7,13,9,2,12,8,15,14,3,6,10,11,4"
14085,commdev-image-keyboard-response,128,348075,learnblock1,null,img/planet13_left.png,13,Community 1,NA,FALSE,null,f,NA,NA,NA,NA,6,"1,5,7,13,9,2,12,8,15,14,3,6,10,11,4"
14085,commdev-image-keyboard-response,129,349331,learnblock1,null,img/planet1_left.png,1,Community 1,NA,FALSE,null,f,NA,NA,NA,NA,6,"1,5,7,13,9,2,12,8,15,14,3,6,10,11,4"
14085,commdev-image-keyboard-response,130,350583,learnblock1,null,img/planet5_left.png,5,Community 1,NA,FALSE,null,f,NA,NA,NA,NA,6,"1,5,7,13,9,2,12,8,15,14,3,6,10,11,4"
14085,commdev-image-keyboard-response,131,351834,learnblock1,null,img/planet13_right.png,13,Community 1,NA,FALSE,null,j,NA,NA,NA,NA,6,"1,5,7,13,9,2,12,8,15,14,3,6,10,11,4"
14085,commdev-image-keyboard-response,132,353085,learnblock1,null,img/planet1_left.png,1,Community 1,NA,FALSE,null,f,NA,NA,NA,NA,6,"1,5,7,13,9,2,12,8,15,14,3,6,10,11,4"
14085,commdev-image-keyboard-response,133,354336,learnblock1,null,img/planet9_right.png,9,Community 1,NA,FALSE,null,j,NA,NA,NA,NA,6,"1,5,7,13,9,2,12,8,15,14,3,6,10,11,4"
14085,commdev-image-keyboard-response,134,355589,learnblock1,null,img/planet5_right.png,5,Community 1,NA,FALSE,null,j,NA,NA,NA,NA,6,"1,5,7,13,9,2,12,8,15,14,3,6,10,11,4"
14085,commdev-image-keyboard-response,135,356841,learnblock1,null,img/planet13_left.png,13,Community 1,NA,FALSE,null,f,NA,NA,NA,NA,6,"1,5,7,13,9,2,12,8,15,14,3,6,10,11,4"
14085,commdev-image-keyboard-response,136,358093,learnblock1,null,img/planet2_left.png,2,Community 2,NA,FALSE,null,f,NA,NA,NA,NA,6,"1,5,7,13,9,2,12,8,15,14,3,6,10,11,4"
14085,commdev-image-keyboard-response,137,359345,learnblock1,null,img/planet15_left.png,15,Community 2,NA,FALSE,null,f,NA,NA,NA,NA,6,"1,5,7,13,9,2,12,8,15,14,3,6,10,11,4"
14085,commdev-image-keyboard-response,138,360597,learnblock1,null,img/planet8_right.png,8,Community 2,NA,FALSE,null,j,NA,NA,NA,NA,6,"1,5,7,13,9,2,12,8,15,14,3,6,10,11,4"
14085,commdev-image-keyboard-response,139,361850,learnblock1,659.2999999999884,img/planet12_right.png,12,Community 2,NA,FALSE,f,j,NA,NA,NA,NA,6,"1,5,7,13,9,2,12,8,15,14,3,6,10,11,4"
14085,commdev-image-keyboard-response,140,363101,learnblock1,1103.4000000000233,img/planet8_left.png,8,Community 2,NA,FALSE,j,f,NA,NA,NA,NA,6,"1,5,7,13,9,2,12,8,15,14,3,6,10,11,4"
14085,commdev-image-keyboard-response,141,364354,learnblock1,66.79999999998836,img/planet15_left.png,15,Community 2,NA,TRUE,f,f,NA,NA,NA,NA,6,"1,5,7,13,9,2,12,8,15,14,3,6,10,11,4"
14085,commdev-image-keyboard-response,142,365607,learnblock1,70.59999999997672,img/planet12_right.png,12,Community 2,NA,FALSE,f,j,NA,NA,NA,NA,6,"1,5,7,13,9,2,12,8,15,14,3,6,10,11,4"
14085,commdev-image-keyboard-response,143,366859,learnblock1,10.699999999953434,img/planet2_left.png,2,Community 2,NA,TRUE,f,f,NA,NA,NA,NA,6,"1,5,7,13,9,2,12,8,15,14,3,6,10,11,4"
14085,commdev-image-keyboard-response,144,368111,learnblock1,null,img/planet14_right.png,14,Community 2,NA,FALSE,null,j,NA,NA,NA,NA,6,"1,5,7,13,9,2,12,8,15,14,3,6,10,11,4"
14085,commdev-image-keyboard-response,145,369363,learnblock1,385.9000000000233,img/planet2_left.png,2,Community 2,NA,FALSE,j,f,NA,NA,NA,NA,6,"1,5,7,13,9,2,12,8,15,14,3,6,10,11,4"
14085,commdev-image-keyboard-response,146,370614,learnblock1,1037.9000000000233,img/planet12_left.png,12,Community 2,NA,TRUE,f,f,NA,NA,NA,NA,6,"1,5,7,13,9,2,12,8,15,14,3,6,10,11,4"
14085,commdev-image-keyboard-response,147,371866,learnblock1,1099.600000000035,img/planet14_left.png,14,Community 2,NA,TRUE,f,f,NA,NA,NA,NA,6,"1,5,7,13,9,2,12,8,15,14,3,6,10,11,4"
14085,commdev-image-keyboard-response,148,373118,learnblock1,943.4000000000233,img/planet12_right.png,12,Community 2,NA,TRUE,j,j,NA,NA,NA,NA,6,"1,5,7,13,9,2,12,8,15,14,3,6,10,11,4"
14085,commdev-image-keyboard-response,149,374371,learnblock1,746.7000000000116,img/planet2_left.png,2,Community 2,NA,TRUE,f,f,NA,NA,NA,NA,6,"1,5,7,13,9,2,12,8,15,14,3,6,10,11,4"
14085,commdev-image-keyboard-response,150,375623,learnblock1,1142,img/planet12_right.png,12,Community 2,NA,TRUE,j,j,NA,NA,NA,NA,6,"1,5,7,13,9,2,12,8,15,14,3,6,10,11,4"
14085,commdev-image-keyboard-response,151,376874,learnblock1,579,img/planet8_right.png,8,Community 2,NA,FALSE,f,j,NA,NA,NA,NA,6,"1,5,7,13,9,2,12,8,15,14,3,6,10,11,4"
14085,commdev-image-keyboard-response,152,378126,learnblock1,423.3999999999651,img/planet6_left.png,6,Community 3,NA,TRUE,f,f,NA,NA,NA,NA,6,"1,5,7,13,9,2,12,8,15,14,3,6,10,11,4"
14085,commdev-image-keyboard-response,153,379379,learnblock1,652.0999999999767,img/planet11_left.png,11,Community 3,NA,TRUE,f,f,NA,NA,NA,NA,6,"1,5,7,13,9,2,12,8,15,14,3,6,10,11,4"
14085,commdev-image-keyboard-response,154,380631,learnblock1,958.6999999999534,img/planet4_right.png,4,Community 3,NA,TRUE,j,j,NA,NA,NA,NA,6,"1,5,7,13,9,2,12,8,15,14,3,6,10,11,4"
14085,commdev-image-keyboard-response,155,381882,learnblock1,779.7000000000116,img/planet10_left.png,10,Community 3,NA,TRUE,f,f,NA,NA,NA,NA,6,"1,5,7,13,9,2,12,8,15,14,3,6,10,11,4"
14085,commdev-image-keyboard-response,156,383133,learnblock1,1056.600000000035,img/planet4_left.png,4,Community 3,NA,TRUE,f,f,NA,NA,NA,NA,6,"1,5,7,13,9,2,12,8,15,14,3,6,10,11,4"
14085,commdev-image-keyboard-response,157,384386,learnblock1,819.9000000000233,img/planet3_left.png,3,Community 3,NA,TRUE,f,f,NA,NA,NA,NA,6,"1,5,7,13,9,2,12,8,15,14,3,6,10,11,4"
14085,commdev-image-keyboard-response,158,385637,learnblock1,944.3000000000466,img/planet11_right.png,11,Community 3,NA,TRUE,j,j,NA,NA,NA,NA,6,"1,5,7,13,9,2,12,8,15,14,3,6,10,11,4"
14085,commdev-image-keyboard-response,159,386889,learnblock1,908.3999999999651,img/planet6_left.png,6,Community 3,NA,TRUE,f,f,NA,NA,NA,NA,6,"1,5,7,13,9,2,12,8,15,14,3,6,10,11,4"
14085,commdev-image-keyboard-response,160,388140,learnblock1,825.2999999999884,img/planet11_left.png,11,Community 3,NA,TRUE,f,f,NA,NA,NA,NA,6,"1,5,7,13,9,2,12,8,15,14,3,6,10,11,4"
14085,commdev-image-keyboard-response,161,389393,learnblock1,829.5999999999767,img/planet6_right.png,6,Community 3,NA,TRUE,j,j,NA,NA,NA,NA,6,"1,5,7,13,9,2,12,8,15,14,3,6,10,11,4"
14085,commdev-image-keyboard-response,162,390645,learnblock1,545.4000000000233,img/planet4_left.png,4,Community 3,NA,TRUE,f,f,NA,NA,NA,NA,6,"1,5,7,13,9,2,12,8,15,14,3,6,10,11,4"
14085,commdev-image-keyboard-response,163,391897,learnblock1,349,img/planet10_left.png,10,Community 3,NA,TRUE,f,f,NA,NA,NA,NA,6,"1,5,7,13,9,2,12,8,15,14,3,6,10,11,4"
14085,commdev-image-keyboard-response,164,393164,learnblock1,121.09999999997672,img/planet11_left.png,11,Community 3,NA,TRUE,f,f,NA,NA,NA,NA,6,"1,5,7,13,9,2,12,8,15,14,3,6,10,11,4"
14085,commdev-image-keyboard-response,165,394416,learnblock1,1055,img/planet4_left.png,4,Community 3,NA,TRUE,f,f,NA,NA,NA,NA,6,"1,5,7,13,9,2,12,8,15,14,3,6,10,11,4"
14085,commdev-image-keyboard-response,166,395668,learnblock1,690.8000000000466,img/planet10_right.png,10,Community 3,NA,FALSE,f,j,NA,NA,NA,NA,6,"1,5,7,13,9,2,12,8,15,14,3,6,10,11,4"
14085,commdev-image-keyboard-response,167,396932,learnblock1,null,img/planet4_right.png,4,Community 3,NA,FALSE,null,j,NA,NA,NA,NA,6,"1,5,7,13,9,2,12,8,15,14,3,6,10,11,4"
14085,commdev-image-keyboard-response,168,398185,learnblock1,228.90000000002328,img/planet11_left.png,11,Community 3,NA,TRUE,f,f,NA,NA,NA,NA,6,"1,5,7,13,9,2,12,8,15,14,3,6,10,11,4"
14085,commdev-image-keyboard-response,169,399437,learnblock1,864.7000000000116,img/planet3_left.png,3,Community 3,NA,TRUE,f,f,NA,NA,NA,NA,6,"1,5,7,13,9,2,12,8,15,14,3,6,10,11,4"
14085,commdev-image-keyboard-response,170,400689,learnblock1,null,img/planet11_right.png,11,Community 3,NA,FALSE,null,j,NA,NA,NA,NA,6,"1,5,7,13,9,2,12,8,15,14,3,6,10,11,4"
14085,commdev-image-keyboard-response,171,401941,learnblock1,800.1000000000349,img/planet4_right.png,4,Community 3,NA,TRUE,j,j,NA,NA,NA,NA,6,"1,5,7,13,9,2,12,8,15,14,3,6,10,11,4"
14085,commdev-image-keyboard-response,172,403193,learnblock1,420.5,img/planet10_left.png,10,Community 3,NA,FALSE,j,f,NA,NA,NA,NA,6,"1,5,7,13,9,2,12,8,15,14,3,6,10,11,4"
14085,commdev-image-keyboard-response,173,404444,learnblock1,89.20000000001164,img/planet11_right.png,11,Community 3,NA,TRUE,j,j,NA,NA,NA,NA,6,"1,5,7,13,9,2,12,8,15,14,3,6,10,11,4"
14085,commdev-image-keyboard-response,174,405696,learnblock1,166.29999999998836,img/planet10_right.png,10,Community 3,NA,TRUE,j,j,NA,NA,NA,NA,6,"1,5,7,13,9,2,12,8,15,14,3,6,10,11,4"
14085,commdev-image-keyboard-response,175,406947,learnblock1,null,img/planet3_left.png,3,Community 3,NA,FALSE,null,f,NA,NA,NA,NA,6,"1,5,7,13,9,2,12,8,15,14,3,6,10,11,4"
14085,commdev-image-keyboard-response,176,408199,learnblock1,334.70000000001164,img/planet9_left.png,9,Community 1,NA,TRUE,f,f,NA,NA,NA,NA,6,"1,5,7,13,9,2,12,8,15,14,3,6,10,11,4"
14085,commdev-image-keyboard-response,177,409450,learnblock1,163.20000000001164,img/planet3_left.png,3,Community 3,NA,TRUE,f,f,NA,NA,NA,NA,6,"1,5,7,13,9,2,12,8,15,14,3,6,10,11,4"
14085,commdev-image-keyboard-response,178,410701,learnblock1,1023.7999999999884,img/planet10_right.png,10,Community 3,NA,FALSE,f,j,NA,NA,NA,NA,6,"1,5,7,13,9,2,12,8,15,14,3,6,10,11,4"
14085,commdev-image-keyboard-response,179,411952,learnblock1,76.70000000001164,img/planet11_left.png,11,Community 3,NA,FALSE,j,f,NA,NA,NA,NA,6,"1,5,7,13,9,2,12,8,15,14,3,6,10,11,4"
14085,commdev-image-keyboard-response,180,413203,learnblock1,1.7999999999883585,img/planet6_left.png,6,Community 3,NA,FALSE,j,f,NA,NA,NA,NA,6,"1,5,7,13,9,2,12,8,15,14,3,6,10,11,4"
14085,commdev-image-keyboard-response,181,414455,learnblock1,38.70000000001164,img/planet10_right.png,10,Community 3,NA,TRUE,j,j,NA,NA,NA,NA,6,"1,5,7,13,9,2,12,8,15,14,3,6,10,11,4"
14085,commdev-image-keyboard-response,182,415706,learnblock1,1003.8999999999651,img/planet6_left.png,6,Community 3,NA,TRUE,f,f,NA,NA,NA,NA,6,"1,5,7,13,9,2,12,8,15,14,3,6,10,11,4"
14085,commdev-image-keyboard-response,183,416958,learnblock1,528.3000000000466,img/planet10_left.png,10,Community 3,NA,FALSE,j,f,NA,NA,NA,NA,6,"1,5,7,13,9,2,12,8,15,14,3,6,10,11,4"
14085,commdev-image-keyboard-response,184,418210,learnblock1,797,img/planet6_right.png,6,Community 3,NA,TRUE,j,j,NA,NA,NA,NA,6,"1,5,7,13,9,2,12,8,15,14,3,6,10,11,4"
14085,commdev-image-keyboard-response,185,419462,learnblock1,960.5,img/planet8_right.png,8,Community 2,NA,TRUE,j,j,NA,NA,NA,NA,6,"1,5,7,13,9,2,12,8,15,14,3,6,10,11,4"
14085,commdev-image-keyboard-response,186,420713,learnblock1,1244.899999999965,img/planet6_left.png,6,Community 3,NA,FALSE,j,f,NA,NA,NA,NA,6,"1,5,7,13,9,2,12,8,15,14,3,6,10,11,4"
14085,commdev-image-keyboard-response,187,421965,learnblock1,872.6999999999534,img/planet8_right.png,8,Community 2,NA,TRUE,j,j,NA,NA,NA,NA,6,"1,5,7,13,9,2,12,8,15,14,3,6,10,11,4"
14085,commdev-image-keyboard-response,188,423216,learnblock1,645.0999999999767,img/planet15_right.png,15,Community 2,NA,TRUE,j,j,NA,NA,NA,NA,6,"1,5,7,13,9,2,12,8,15,14,3,6,10,11,4"
14085,commdev-image-keyboard-response,189,424468,learnblock1,674.3999999999651,img/planet2_left.png,2,Community 2,NA,TRUE,f,f,NA,NA,NA,NA,6,"1,5,7,13,9,2,12,8,15,14,3,6,10,11,4"
14085,commdev-image-keyboard-response,190,425719,learnblock1,710.7000000000116,img/planet15_right.png,15,Community 2,NA,TRUE,j,j,NA,NA,NA,NA,6,"1,5,7,13,9,2,12,8,15,14,3,6,10,11,4"
14085,commdev-image-keyboard-response,191,426971,learnblock1,731.6000000000349,img/planet14_left.png,14,Community 2,NA,TRUE,f,f,NA,NA,NA,NA,6,"1,5,7,13,9,2,12,8,15,14,3,6,10,11,4"
14085,commdev-image-keyboard-response,192,428223,learnblock1,783.8000000000466,img/planet12_right.png,12,Community 2,NA,TRUE,j,j,NA,NA,NA,NA,6,"1,5,7,13,9,2,12,8,15,14,3,6,10,11,4"
14085,commdev-image-keyboard-response,193,429474,learnblock1,779.5,img/planet2_left.png,2,Community 2,NA,TRUE,f,f,NA,NA,NA,NA,6,"1,5,7,13,9,2,12,8,15,14,3,6,10,11,4"
14085,commdev-image-keyboard-response,194,430726,learnblock1,672.1000000000349,img/planet12_right.png,12,Community 2,NA,FALSE,f,j,NA,NA,NA,NA,6,"1,5,7,13,9,2,12,8,15,14,3,6,10,11,4"
14085,commdev-image-keyboard-response,195,431977,learnblock1,636.5999999999767,img/planet14_left.png,14,Community 2,NA,TRUE,f,f,NA,NA,NA,NA,6,"1,5,7,13,9,2,12,8,15,14,3,6,10,11,4"
14085,commdev-image-keyboard-response,196,433230,learnblock1,753.8000000000466,img/planet8_right.png,8,Community 2,NA,TRUE,j,j,NA,NA,NA,NA,6,"1,5,7,13,9,2,12,8,15,14,3,6,10,11,4"
14085,commdev-image-keyboard-response,197,434481,learnblock1,741.3999999999069,img/planet6_left.png,6,Community 3,NA,TRUE,f,f,NA,NA,NA,NA,6,"1,5,7,13,9,2,12,8,15,14,3,6,10,11,4"
14085,commdev-image-keyboard-response,198,435732,learnblock1,746.0999999999767,img/planet8_left.png,8,Community 2,NA,TRUE,f,f,NA,NA,NA,NA,6,"1,5,7,13,9,2,12,8,15,14,3,6,10,11,4"
14085,commdev-image-keyboard-response,199,436983,learnblock1,639.0999999999767,img/planet15_right.png,15,Community 2,NA,FALSE,f,j,NA,NA,NA,NA,6,"1,5,7,13,9,2,12,8,15,14,3,6,10,11,4"
14085,commdev-image-keyboard-response,200,438235,learnblock1,1236.5,img/planet2_right.png,2,Community 2,NA,TRUE,j,j,NA,NA,NA,NA,6,"1,5,7,13,9,2,12,8,15,14,3,6,10,11,4"
14085,commdev-image-keyboard-response,201,439487,learnblock1,816.3000000000466,img/planet12_right.png,12,Community 2,NA,TRUE,j,j,NA,NA,NA,NA,6,"1,5,7,13,9,2,12,8,15,14,3,6,10,11,4"
14085,commdev-image-keyboard-response,202,440738,learnblock1,732.1000000000931,img/planet15_right.png,15,Community 2,NA,TRUE,j,j,NA,NA,NA,NA,6,"1,5,7,13,9,2,12,8,15,14,3,6,10,11,4"
14085,commdev-image-keyboard-response,203,441989,learnblock1,720.8999999999069,img/planet12_left.png,12,Community 2,NA,TRUE,f,f,NA,NA,NA,NA,6,"1,5,7,13,9,2,12,8,15,14,3,6,10,11,4"
14085,commdev-image-keyboard-response,204,443242,learnblock1,614.6999999999534,img/planet15_right.png,15,Community 2,NA,TRUE,j,j,NA,NA,NA,NA,6,"1,5,7,13,9,2,12,8,15,14,3,6,10,11,4"
14085,commdev-image-keyboard-response,205,444493,learnblock1,745.4000000000233,img/planet8_right.png,8,Community 2,NA,TRUE,j,j,NA,NA,NA,NA,6,"1,5,7,13,9,2,12,8,15,14,3,6,10,11,4"
14085,commdev-image-keyboard-response,206,445745,learnblock1,557.8000000000466,img/planet15_right.png,15,Community 2,NA,TRUE,j,j,NA,NA,NA,NA,6,"1,5,7,13,9,2,12,8,15,14,3,6,10,11,4"
14085,commdev-image-keyboard-response,207,446997,learnblock1,762.5,img/planet14_left.png,14,Community 2,NA,TRUE,f,f,NA,NA,NA,NA,6,"1,5,7,13,9,2,12,8,15,14,3,6,10,11,4"
14085,commdev-image-keyboard-response,208,448249,learnblock1,654.9000000000233,img/planet8_right.png,8,Community 2,NA,TRUE,j,j,NA,NA,NA,NA,6,"1,5,7,13,9,2,12,8,15,14,3,6,10,11,4"
14085,commdev-image-keyboard-response,209,449501,learnblock1,746,img/planet14_left.png,14,Community 2,NA,TRUE,f,f,NA,NA,NA,NA,6,"1,5,7,13,9,2,12,8,15,14,3,6,10,11,4"
14085,commdev-image-keyboard-response,210,450752,learnblock1,670.7000000000698,img/planet12_right.png,12,Community 2,NA,TRUE,j,j,NA,NA,NA,NA,6,"1,5,7,13,9,2,12,8,15,14,3,6,10,11,4"
14085,commdev-image-keyboard-response,211,452004,learnblock1,764.1999999999534,img/planet2_left.png,2,Community 2,NA,TRUE,f,f,NA,NA,NA,NA,6,"1,5,7,13,9,2,12,8,15,14,3,6,10,11,4"
14085,commdev-image-keyboard-response,212,453255,learnblock1,599.9000000000233,img/planet14_right.png,14,Community 2,NA,TRUE,j,j,NA,NA,NA,NA,6,"1,5,7,13,9,2,12,8,15,14,3,6,10,11,4"
14085,commdev-image-keyboard-response,213,454509,learnblock1,652.1999999999534,img/planet8_left.png,8,Community 2,NA,TRUE,f,f,NA,NA,NA,NA,6,"1,5,7,13,9,2,12,8,15,14,3,6,10,11,4"
14085,commdev-image-keyboard-response,214,455761,learnblock1,902.1999999999534,img/planet6_left.png,6,Community 3,NA,TRUE,f,f,NA,NA,NA,NA,6,"1,5,7,13,9,2,12,8,15,14,3,6,10,11,4"
14085,commdev-image-keyboard-response,215,457012,learnblock1,674.3999999999069,img/planet11_right.png,11,Community 3,NA,TRUE,j,j,NA,NA,NA,NA,6,"1,5,7,13,9,2,12,8,15,14,3,6,10,11,4"
14085,commdev-image-keyboard-response,216,458263,learnblock1,943.2000000000698,img/planet4_right.png,4,Community 3,NA,TRUE,j,j,NA,NA,NA,NA,6,"1,5,7,13,9,2,12,8,15,14,3,6,10,11,4"
14085,commdev-image-keyboard-response,217,459514,learnblock1,1060.7000000000698,img/planet3_right.png,3,Community 3,NA,TRUE,j,j,NA,NA,NA,NA,6,"1,5,7,13,9,2,12,8,15,14,3,6,10,11,4"
14085,commdev-image-keyboard-response,218,460773,learnblock1,569.0999999999767,img/planet11_left.png,11,Community 3,NA,TRUE,f,f,NA,NA,NA,NA,6,"1,5,7,13,9,2,12,8,15,14,3,6,10,11,4"
14085,commdev-image-keyboard-response,219,462028,learnblock1,575.3000000000466,img/planet4_right.png,4,Community 3,NA,TRUE,j,j,NA,NA,NA,NA,6,"1,5,7,13,9,2,12,8,15,14,3,6,10,11,4"
14085,commdev-image-keyboard-response,220,463281,learnblock1,1160.5999999999767,img/planet11_left.png,11,Community 3,NA,TRUE,f,f,NA,NA,NA,NA,6,"1,5,7,13,9,2,12,8,15,14,3,6,10,11,4"
14085,commdev-image-keyboard-response,221,464534,learnblock1,675.2000000000698,img/planet10_left.png,10,Community 3,NA,TRUE,f,f,NA,NA,NA,NA,6,"1,5,7,13,9,2,12,8,15,14,3,6,10,11,4"
14085,commdev-image-keyboard-response,222,465785,learnblock1,622.8000000000466,img/planet3_left.png,3,Community 3,NA,TRUE,f,f,NA,NA,NA,NA,6,"1,5,7,13,9,2,12,8,15,14,3,6,10,11,4"
14085,commdev-image-keyboard-response,223,467037,learnblock1,514.9000000000233,img/planet10_left.png,10,Community 3,NA,TRUE,f,f,NA,NA,NA,NA,6,"1,5,7,13,9,2,12,8,15,14,3,6,10,11,4"
14085,commdev-image-keyboard-response,224,468289,learnblock1,718.8999999999069,img/planet3_left.png,3,Community 3,NA,TRUE,f,f,NA,NA,NA,NA,6,"1,5,7,13,9,2,12,8,15,14,3,6,10,11,4"
14085,commdev-image-keyboard-response,225,469543,learnblock1,539.1000000000931,img/planet9_right.png,9,Community 1,NA,TRUE,j,j,NA,NA,NA,NA,6,"1,5,7,13,9,2,12,8,15,14,3,6,10,11,4"
14085,commdev-image-keyboard-response,226,470794,learnblock1,557.3000000000466,img/planet3_right.png,3,Community 3,NA,TRUE,j,j,NA,NA,NA,NA,6,"1,5,7,13,9,2,12,8,15,14,3,6,10,11,4"
14085,commdev-image-keyboard-response,227,472045,learnblock1,617.5,img/planet11_left.png,11,Community 3,NA,FALSE,j,f,NA,NA,NA,NA,6,"1,5,7,13,9,2,12,8,15,14,3,6,10,11,4"
14085,commdev-image-keyboard-response,228,473296,learnblock1,591,img/planet3_right.png,3,Community 3,NA,TRUE,j,j,NA,NA,NA,NA,6,"1,5,7,13,9,2,12,8,15,14,3,6,10,11,4"
14085,commdev-image-keyboard-response,229,474548,learnblock1,539.8000000000466,img/planet9_right.png,9,Community 1,NA,TRUE,j,j,NA,NA,NA,NA,6,"1,5,7,13,9,2,12,8,15,14,3,6,10,11,4"
14085,commdev-image-keyboard-response,230,475799,learnblock1,665.0999999999767,img/planet1_right.png,1,Community 1,NA,TRUE,j,j,NA,NA,NA,NA,6,"1,5,7,13,9,2,12,8,15,14,3,6,10,11,4"
14085,commdev-image-keyboard-response,231,477052,learnblock1,613.7000000000698,img/planet9_left.png,9,Community 1,NA,TRUE,f,f,NA,NA,NA,NA,6,"1,5,7,13,9,2,12,8,15,14,3,6,10,11,4"
14085,commdev-image-keyboard-response,232,478303,learnblock1,649.5999999999767,img/planet7_right.png,7,Community 1,NA,TRUE,j,j,NA,NA,NA,NA,6,"1,5,7,13,9,2,12,8,15,14,3,6,10,11,4"
14085,commdev-image-keyboard-response,233,479554,learnblock1,613.3000000000466,img/planet1_left.png,1,Community 1,NA,TRUE,f,f,NA,NA,NA,NA,6,"1,5,7,13,9,2,12,8,15,14,3,6,10,11,4"
14085,commdev-image-keyboard-response,234,480806,learnblock1,713.7999999999302,img/planet7_right.png,7,Community 1,NA,TRUE,j,j,NA,NA,NA,NA,6,"1,5,7,13,9,2,12,8,15,14,3,6,10,11,4"
14085,commdev-image-keyboard-response,235,482057,learnblock1,567,img/planet13_left.png,13,Community 1,NA,TRUE,f,f,NA,NA,NA,NA,6,"1,5,7,13,9,2,12,8,15,14,3,6,10,11,4"
14085,commdev-image-keyboard-response,236,483309,learnblock1,611.9000000000233,img/planet1_left.png,1,Community 1,NA,TRUE,f,f,NA,NA,NA,NA,6,"1,5,7,13,9,2,12,8,15,14,3,6,10,11,4"
14085,commdev-image-keyboard-response,237,484561,learnblock1,776.1999999999534,img/planet5_right.png,5,Community 1,NA,TRUE,j,j,NA,NA,NA,NA,6,"1,5,7,13,9,2,12,8,15,14,3,6,10,11,4"
14085,commdev-image-keyboard-response,238,485813,learnblock1,868.5,img/planet7_right.png,7,Community 1,NA,TRUE,j,j,NA,NA,NA,NA,6,"1,5,7,13,9,2,12,8,15,14,3,6,10,11,4"
14085,commdev-image-keyboard-response,239,487066,learnblock1,519.6999999999534,img/planet9_right.png,9,Community 1,NA,TRUE,j,j,NA,NA,NA,NA,6,"1,5,7,13,9,2,12,8,15,14,3,6,10,11,4"
14085,commdev-image-keyboard-response,240,488318,learnblock1,619.6000000000931,img/planet5_left.png,5,Community 1,NA,TRUE,f,f,NA,NA,NA,NA,6,"1,5,7,13,9,2,12,8,15,14,3,6,10,11,4"
14085,commdev-image-keyboard-response,241,489571,learnblock1,743.2000000000698,img/planet7_left.png,7,Community 1,NA,TRUE,f,f,NA,NA,NA,NA,6,"1,5,7,13,9,2,12,8,15,14,3,6,10,11,4"
14085,commdev-image-keyboard-response,242,490824,learnblock1,673.2999999999302,img/planet1_right.png,1,Community 1,NA,TRUE,j,j,NA,NA,NA,NA,6,"1,5,7,13,9,2,12,8,15,14,3,6,10,11,4"
14085,commdev-image-keyboard-response,243,492076,learnblock1,829,img/planet7_right.png,7,Community 1,NA,TRUE,j,j,NA,NA,NA,NA,6,"1,5,7,13,9,2,12,8,15,14,3,6,10,11,4"
14085,commdev-image-keyboard-response,244,493328,learnblock1,592.6999999999534,img/planet5_left.png,5,Community 1,NA,TRUE,f,f,NA,NA,NA,NA,6,"1,5,7,13,9,2,12,8,15,14,3,6,10,11,4"
14085,commdev-image-keyboard-response,245,494581,learnblock1,725.3000000000466,img/planet13_left.png,13,Community 1,NA,TRUE,f,f,NA,NA,NA,NA,6,"1,5,7,13,9,2,12,8,15,14,3,6,10,11,4"
14085,commdev-image-keyboard-response,246,495833,learnblock1,720.4000000000233,img/planet7_left.png,7,Community 1,NA,TRUE,f,f,NA,NA,NA,NA,6,"1,5,7,13,9,2,12,8,15,14,3,6,10,11,4"
14085,commdev-image-keyboard-response,247,497085,learnblock1,829.2999999999302,img/planet5_right.png,5,Community 1,NA,TRUE,j,j,NA,NA,NA,NA,6,"1,5,7,13,9,2,12,8,15,14,3,6,10,11,4"
14085,commdev-image-keyboard-response,248,498337,learnblock1,752.5999999999767,img/planet7_left.png,7,Community 1,NA,TRUE,f,f,NA,NA,NA,NA,6,"1,5,7,13,9,2,12,8,15,14,3,6,10,11,4"
14085,commdev-image-keyboard-response,249,499589,learnblock1,636.7999999999302,img/planet13_left.png,13,Community 1,NA,TRUE,f,f,NA,NA,NA,NA,6,"1,5,7,13,9,2,12,8,15,14,3,6,10,11,4"
14085,commdev-image-keyboard-response,250,500841,learnblock1,656.2999999999302,img/planet2_right.png,2,Community 2,NA,TRUE,j,j,NA,NA,NA,NA,6,"1,5,7,13,9,2,12,8,15,14,3,6,10,11,4"
14085,commdev-image-keyboard-response,251,502094,learnblock1,588.8000000000466,img/planet13_right.png,13,Community 1,NA,TRUE,j,j,NA,NA,NA,NA,6,"1,5,7,13,9,2,12,8,15,14,3,6,10,11,4"
14085,commdev-image-keyboard-response,252,503346,learnblock1,537.1000000000931,img/planet2_left.png,2,Community 2,NA,TRUE,f,f,NA,NA,NA,NA,6,"1,5,7,13,9,2,12,8,15,14,3,6,10,11,4"
14085,commdev-image-keyboard-response,253,504598,learnblock1,580.8000000000466,img/planet14_left.png,14,Community 2,NA,TRUE,f,f,NA,NA,NA,NA,6,"1,5,7,13,9,2,12,8,15,14,3,6,10,11,4"
14085,commdev-image-keyboard-response,254,505850,learnblock1,768.2000000000698,img/planet8_left.png,8,Community 2,NA,TRUE,f,f,NA,NA,NA,NA,6,"1,5,7,13,9,2,12,8,15,14,3,6,10,11,4"
14085,commdev-image-keyboard-response,255,507102,learnblock1,779.0999999999767,img/planet12_left.png,12,Community 2,NA,TRUE,f,f,NA,NA,NA,NA,6,"1,5,7,13,9,2,12,8,15,14,3,6,10,11,4"
14085,commdev-image-keyboard-response,256,508354,learnblock1,1039.7999999999302,img/planet8_right.png,8,Community 2,NA,TRUE,j,j,NA,NA,NA,NA,6,"1,5,7,13,9,2,12,8,15,14,3,6,10,11,4"
14085,commdev-image-keyboard-response,257,509605,learnblock1,null,img/planet6_left.png,6,Community 3,NA,FALSE,null,f,NA,NA,NA,NA,6,"1,5,7,13,9,2,12,8,15,14,3,6,10,11,4"
14085,commdev-image-keyboard-response,258,510858,learnblock1,56.40000000002328,img/planet8_right.png,8,Community 2,NA,FALSE,f,j,NA,NA,NA,NA,6,"1,5,7,13,9,2,12,8,15,14,3,6,10,11,4"
14085,commdev-image-keyboard-response,259,512110,learnblock1,684.5,img/planet15_left.png,15,Community 2,NA,TRUE,f,f,NA,NA,NA,NA,6,"1,5,7,13,9,2,12,8,15,14,3,6,10,11,4"
14085,commdev-image-keyboard-response,260,513362,learnblock1,665.3000000000466,img/planet8_left.png,8,Community 2,NA,TRUE,f,f,NA,NA,NA,NA,6,"1,5,7,13,9,2,12,8,15,14,3,6,10,11,4"
14085,commdev-image-keyboard-response,261,514613,learnblock1,684.6999999999534,img/planet14_right.png,14,Community 2,NA,TRUE,j,j,NA,NA,NA,NA,6,"1,5,7,13,9,2,12,8,15,14,3,6,10,11,4"
14085,commdev-image-keyboard-response,262,515866,learnblock1,808.9000000000233,img/planet15_left.png,15,Community 2,NA,TRUE,f,f,NA,NA,NA,NA,6,"1,5,7,13,9,2,12,8,15,14,3,6,10,11,4"
14085,commdev-image-keyboard-response,263,517117,learnblock1,517.0999999999767,img/planet2_right.png,2,Community 2,NA,TRUE,j,j,NA,NA,NA,NA,6,"1,5,7,13,9,2,12,8,15,14,3,6,10,11,4"
14085,commdev-image-keyboard-response,264,518369,learnblock1,665.7000000000698,img/planet12_left.png,12,Community 2,NA,TRUE,f,f,NA,NA,NA,NA,6,"1,5,7,13,9,2,12,8,15,14,3,6,10,11,4"
14085,commdev-image-keyboard-response,265,519622,learnblock1,null,img/planet8_right.png,8,Community 2,NA,FALSE,null,j,NA,NA,NA,NA,6,"1,5,7,13,9,2,12,8,15,14,3,6,10,11,4"
14085,commdev-image-keyboard-response,266,520874,learnblock1,24.899999999906868,img/planet12_left.png,12,Community 2,NA,FALSE,j,f,NA,NA,NA,NA,6,"1,5,7,13,9,2,12,8,15,14,3,6,10,11,4"
14085,commdev-image-keyboard-response,267,522126,learnblock1,724.8000000000466,img/planet2_left.png,2,Community 2,NA,TRUE,f,f,NA,NA,NA,NA,6,"1,5,7,13,9,2,12,8,15,14,3,6,10,11,4"
14085,commdev-image-keyboard-response,268,523378,learnblock1,632.5999999999767,img/planet14_right.png,14,Community 2,NA,TRUE,j,j,NA,NA,NA,NA,6,"1,5,7,13,9,2,12,8,15,14,3,6,10,11,4"
14085,commdev-image-keyboard-response,269,524631,learnblock1,884.9000000000233,img/planet15_right.png,15,Community 2,NA,TRUE,j,j,NA,NA,NA,NA,6,"1,5,7,13,9,2,12,8,15,14,3,6,10,11,4"
14085,commdev-image-keyboard-response,270,525883,learnblock1,975,img/planet14_right.png,14,Community 2,NA,TRUE,j,j,NA,NA,NA,NA,6,"1,5,7,13,9,2,12,8,15,14,3,6,10,11,4"
14085,commdev-image-keyboard-response,271,527135,learnblock1,699.3000000000466,img/planet15_left.png,15,Community 2,NA,TRUE,f,f,NA,NA,NA,NA,6,"1,5,7,13,9,2,12,8,15,14,3,6,10,11,4"
14085,commdev-image-keyboard-response,272,528386,learnblock1,656,img/planet2_right.png,2,Community 2,NA,TRUE,j,j,NA,NA,NA,NA,6,"1,5,7,13,9,2,12,8,15,14,3,6,10,11,4"
14085,commdev-image-keyboard-response,273,529639,learnblock1,684.1000000000931,img/planet14_right.png,14,Community 2,NA,TRUE,j,j,NA,NA,NA,NA,6,"1,5,7,13,9,2,12,8,15,14,3,6,10,11,4"
14085,commdev-image-keyboard-response,274,530891,learnblock1,711.7999999999302,img/planet15_left.png,15,Community 2,NA,TRUE,f,f,NA,NA,NA,NA,6,"1,5,7,13,9,2,12,8,15,14,3,6,10,11,4"
14085,commdev-image-keyboard-response,275,532142,learnblock1,731.8000000000466,img/planet14_left.png,14,Community 2,NA,TRUE,f,f,NA,NA,NA,NA,6,"1,5,7,13,9,2,12,8,15,14,3,6,10,11,4"
14085,commdev-image-keyboard-response,276,533394,learnblock1,824.7000000000698,img/planet8_right.png,8,Community 2,NA,TRUE,j,j,NA,NA,NA,NA,6,"1,5,7,13,9,2,12,8,15,14,3,6,10,11,4"
14085,commdev-image-keyboard-response,277,534646,learnblock1,684.8000000000466,img/planet12_right.png,12,Community 2,NA,TRUE,j,j,NA,NA,NA,NA,6,"1,5,7,13,9,2,12,8,15,14,3,6,10,11,4"
14085,commdev-image-keyboard-response,278,535898,learnblock1,745.3999999999069,img/planet15_right.png,15,Community 2,NA,TRUE,j,j,NA,NA,NA,NA,6,"1,5,7,13,9,2,12,8,15,14,3,6,10,11,4"
14085,commdev-image-keyboard-response,279,537149,learnblock1,649.4000000000233,img/planet12_left.png,12,Community 2,NA,TRUE,f,f,NA,NA,NA,NA,6,"1,5,7,13,9,2,12,8,15,14,3,6,10,11,4"
14085,commdev-image-keyboard-response,280,538414,learnblock1,585.8000000000466,img/planet14_right.png,14,Community 2,NA,TRUE,j,j,NA,NA,NA,NA,6,"1,5,7,13,9,2,12,8,15,14,3,6,10,11,4"
14085,commdev-image-keyboard-response,281,539666,learnblock1,809,img/planet15_left.png,15,Community 2,NA,TRUE,f,f,NA,NA,NA,NA,6,"1,5,7,13,9,2,12,8,15,14,3,6,10,11,4"
14085,commdev-image-keyboard-response,282,540917,learnblock1,676.5,img/planet14_left.png,14,Community 2,NA,TRUE,f,f,NA,NA,NA,NA,6,"1,5,7,13,9,2,12,8,15,14,3,6,10,11,4"
14085,commdev-image-keyboard-response,283,542168,learnblock1,626.3999999999069,img/planet8_right.png,8,Community 2,NA,TRUE,j,j,NA,NA,NA,NA,6,"1,5,7,13,9,2,12,8,15,14,3,6,10,11,4"
14085,commdev-image-keyboard-response,284,543420,learnblock1,662.6000000000931,img/planet6_left.png,6,Community 3,NA,TRUE,f,f,NA,NA,NA,NA,6,"1,5,7,13,9,2,12,8,15,14,3,6,10,11,4"
14085,commdev-image-keyboard-response,285,544672,learnblock1,689.5999999999767,img/planet8_left.png,8,Community 2,NA,TRUE,f,f,NA,NA,NA,NA,6,"1,5,7,13,9,2,12,8,15,14,3,6,10,11,4"
14085,commdev-image-keyboard-response,286,545924,learnblock1,663.0999999999767,img/planet12_left.png,12,Community 2,NA,TRUE,f,f,NA,NA,NA,NA,6,"1,5,7,13,9,2,12,8,15,14,3,6,10,11,4"
14085,commdev-image-keyboard-response,287,547176,learnblock1,844,img/planet2_left.png,2,Community 2,NA,TRUE,f,f,NA,NA,NA,NA,6,"1,5,7,13,9,2,12,8,15,14,3,6,10,11,4"
14085,commdev-image-keyboard-response,288,548428,learnblock1,751.0999999999767,img/planet15_right.png,15,Community 2,NA,TRUE,j,j,NA,NA,NA,NA,6,"1,5,7,13,9,2,12,8,15,14,3,6,10,11,4"
14085,commdev-image-keyboard-response,289,549680,learnblock1,675,img/planet12_left.png,12,Community 2,NA,TRUE,f,f,NA,NA,NA,NA,6,"1,5,7,13,9,2,12,8,15,14,3,6,10,11,4"
14085,commdev-image-keyboard-response,290,550931,learnblock1,647.7000000000698,img/planet2_left.png,2,Community 2,NA,TRUE,f,f,NA,NA,NA,NA,6,"1,5,7,13,9,2,12,8,15,14,3,6,10,11,4"
14085,commdev-image-keyboard-response,291,552184,learnblock1,548.2000000000698,img/planet13_left.png,13,Community 1,NA,TRUE,f,f,NA,NA,NA,NA,6,"1,5,7,13,9,2,12,8,15,14,3,6,10,11,4"
14085,commdev-image-keyboard-response,292,553436,learnblock1,535.2999999999302,img/planet5_left.png,5,Community 1,NA,TRUE,f,f,NA,NA,NA,NA,6,"1,5,7,13,9,2,12,8,15,14,3,6,10,11,4"
14085,commdev-image-keyboard-response,293,554689,learnblock1,634.5999999999767,img/planet13_left.png,13,Community 1,NA,TRUE,f,f,NA,NA,NA,NA,6,"1,5,7,13,9,2,12,8,15,14,3,6,10,11,4"
14085,commdev-image-keyboard-response,294,555947,learnblock1,719,img/planet7_left.png,7,Community 1,NA,TRUE,f,f,NA,NA,NA,NA,6,"1,5,7,13,9,2,12,8,15,14,3,6,10,11,4"
14085,commdev-image-keyboard-response,295,557198,learnblock1,596.4000000000233,img/planet1_right.png,1,Community 1,NA,TRUE,j,j,NA,NA,NA,NA,6,"1,5,7,13,9,2,12,8,15,14,3,6,10,11,4"
14085,commdev-image-keyboard-response,296,558451,learnblock1,546.5999999999767,img/planet13_right.png,13,Community 1,NA,TRUE,j,j,NA,NA,NA,NA,6,"1,5,7,13,9,2,12,8,15,14,3,6,10,11,4"
14085,commdev-image-keyboard-response,297,559703,learnblock1,644.2000000000698,img/planet5_left.png,5,Community 1,NA,TRUE,f,f,NA,NA,NA,NA,6,"1,5,7,13,9,2,12,8,15,14,3,6,10,11,4"
14085,commdev-image-keyboard-response,298,560955,learnblock1,887.7999999999302,img/planet9_right.png,9,Community 1,NA,TRUE,j,j,NA,NA,NA,NA,6,"1,5,7,13,9,2,12,8,15,14,3,6,10,11,4"
14085,commdev-image-keyboard-response,299,562207,learnblock1,740.5,img/planet1_left.png,1,Community 1,NA,TRUE,f,f,NA,NA,NA,NA,6,"1,5,7,13,9,2,12,8,15,14,3,6,10,11,4"
14085,commdev-image-keyboard-response,300,563459,learnblock1,688.0999999999767,img/planet13_left.png,13,Community 1,NA,TRUE,f,f,NA,NA,NA,NA,6,"1,5,7,13,9,2,12,8,15,14,3,6,10,11,4"
14085,commdev-image-keyboard-response,301,564711,learnblock1,643.6999999999534,img/planet5_right.png,5,Community 1,NA,TRUE,j,j,NA,NA,NA,NA,6,"1,5,7,13,9,2,12,8,15,14,3,6,10,11,4"
14085,commdev-image-keyboard-response,302,565963,learnblock1,1241.4000000000233,img/planet13_left.png,13,Community 1,NA,FALSE,j,f,NA,NA,NA,NA,6,"1,5,7,13,9,2,12,8,15,14,3,6,10,11,4"
14085,commdev-image-keyboard-response,303,567215,learnblock1,797.3000000000466,img/planet5_left.png,5,Community 1,NA,TRUE,f,f,NA,NA,NA,NA,6,"1,5,7,13,9,2,12,8,15,14,3,6,10,11,4"
14085,commdev-image-keyboard-response,304,568466,learnblock1,897.3999999999069,img/planet1_left.png,1,Community 1,NA,TRUE,f,f,NA,NA,NA,NA,6,"1,5,7,13,9,2,12,8,15,14,3,6,10,11,4"
14085,commdev-image-keyboard-response,305,569718,learnblock1,644.1999999999534,img/planet5_left.png,5,Community 1,NA,TRUE,f,f,NA,NA,NA,NA,6,"1,5,7,13,9,2,12,8,15,14,3,6,10,11,4"
14085,commdev-image-keyboard-response,306,570970,learnblock1,578.0999999999767,img/planet1_left.png,1,Community 1,NA,TRUE,f,f,NA,NA,NA,NA,6,"1,5,7,13,9,2,12,8,15,14,3,6,10,11,4"
14085,commdev-image-keyboard-response,307,572222,learnblock1,756.5999999999767,img/planet7_left.png,7,Community 1,NA,TRUE,f,f,NA,NA,NA,NA,6,"1,5,7,13,9,2,12,8,15,14,3,6,10,11,4"
14085,commdev-image-keyboard-response,308,573474,learnblock1,761.3000000000466,img/planet13_right.png,13,Community 1,NA,TRUE,j,j,NA,NA,NA,NA,6,"1,5,7,13,9,2,12,8,15,14,3,6,10,11,4"
14085,commdev-image-keyboard-response,309,574727,learnblock1,725.9000000000233,img/planet2_right.png,2,Community 2,NA,TRUE,j,j,NA,NA,NA,NA,6,"1,5,7,13,9,2,12,8,15,14,3,6,10,11,4"
14085,commdev-image-keyboard-response,310,575979,learnblock1,705.4000000000233,img/planet14_right.png,14,Community 2,NA,TRUE,j,j,NA,NA,NA,NA,6,"1,5,7,13,9,2,12,8,15,14,3,6,10,11,4"
14085,commdev-image-keyboard-response,311,577231,learnblock1,764.6999999999534,img/planet12_right.png,12,Community 2,NA,TRUE,j,j,NA,NA,NA,NA,6,"1,5,7,13,9,2,12,8,15,14,3,6,10,11,4"
14085,commdev-image-keyboard-response,312,578482,learnblock1,633.9000000000233,img/planet8_left.png,8,Community 2,NA,TRUE,f,f,NA,NA,NA,NA,6,"1,5,7,13,9,2,12,8,15,14,3,6,10,11,4"
14085,commdev-image-keyboard-response,313,579734,learnblock1,646.8000000000466,img/planet12_right.png,12,Community 2,NA,TRUE,j,j,NA,NA,NA,NA,6,"1,5,7,13,9,2,12,8,15,14,3,6,10,11,4"
14085,commdev-image-keyboard-response,314,580986,learnblock1,817.5,img/planet2_right.png,2,Community 2,NA,TRUE,j,j,NA,NA,NA,NA,6,"1,5,7,13,9,2,12,8,15,14,3,6,10,11,4"
14085,commdev-image-keyboard-response,315,582239,learnblock1,1190.5999999999767,img/planet13_left.png,13,Community 1,NA,TRUE,f,f,NA,NA,NA,NA,6,"1,5,7,13,9,2,12,8,15,14,3,6,10,11,4"
14085,commdev-image-keyboard-response,316,583491,learnblock1,593.4000000000233,img/planet2_right.png,2,Community 2,NA,TRUE,j,j,NA,NA,NA,NA,6,"1,5,7,13,9,2,12,8,15,14,3,6,10,11,4"
14085,commdev-image-keyboard-response,317,584743,learnblock1,797,img/planet14_right.png,14,Community 2,NA,TRUE,j,j,NA,NA,NA,NA,6,"1,5,7,13,9,2,12,8,15,14,3,6,10,11,4"
14085,commdev-image-keyboard-response,318,585995,learnblock1,713.5,img/planet12_left.png,12,Community 2,NA,TRUE,f,f,NA,NA,NA,NA,6,"1,5,7,13,9,2,12,8,15,14,3,6,10,11,4"
14085,commdev-image-keyboard-response,319,587247,learnblock1,749,img/planet2_left.png,2,Community 2,NA,TRUE,f,f,NA,NA,NA,NA,6,"1,5,7,13,9,2,12,8,15,14,3,6,10,11,4"
14085,commdev-image-keyboard-response,320,588499,learnblock1,529.4000000000233,img/planet13_right.png,13,Community 1,NA,TRUE,j,j,NA,NA,NA,NA,6,"1,5,7,13,9,2,12,8,15,14,3,6,10,11,4"
14085,commdev-image-keyboard-response,321,589751,learnblock1,605.3000000000466,img/planet1_left.png,1,Community 1,NA,TRUE,f,f,NA,NA,NA,NA,6,"1,5,7,13,9,2,12,8,15,14,3,6,10,11,4"
14085,commdev-image-keyboard-response,322,591002,learnblock1,801.9000000000233,img/planet7_left.png,7,Community 1,NA,TRUE,f,f,NA,NA,NA,NA,6,"1,5,7,13,9,2,12,8,15,14,3,6,10,11,4"
14085,commdev-image-keyboard-response,323,592254,learnblock1,654.7000000000698,img/planet1_left.png,1,Community 1,NA,TRUE,f,f,NA,NA,NA,NA,6,"1,5,7,13,9,2,12,8,15,14,3,6,10,11,4"
14085,commdev-image-keyboard-response,324,593506,learnblock1,650.9000000000233,img/planet7_left.png,7,Community 1,NA,TRUE,f,f,NA,NA,NA,NA,6,"1,5,7,13,9,2,12,8,15,14,3,6,10,11,4"
14085,commdev-image-keyboard-response,325,594758,learnblock1,766.0999999999767,img/planet5_left.png,5,Community 1,NA,TRUE,f,f,NA,NA,NA,NA,6,"1,5,7,13,9,2,12,8,15,14,3,6,10,11,4"
14085,commdev-image-keyboard-response,326,596010,learnblock1,707.0999999999767,img/planet1_left.png,1,Community 1,NA,TRUE,f,f,NA,NA,NA,NA,6,"1,5,7,13,9,2,12,8,15,14,3,6,10,11,4"
14085,commdev-image-keyboard-response,327,597261,learnblock1,551.2999999999302,img/planet7_left.png,7,Community 1,NA,TRUE,f,f,NA,NA,NA,NA,6,"1,5,7,13,9,2,12,8,15,14,3,6,10,11,4"
14085,commdev-image-keyboard-response,328,598514,learnblock1,675.1999999999534,img/planet1_right.png,1,Community 1,NA,TRUE,j,j,NA,NA,NA,NA,6,"1,5,7,13,9,2,12,8,15,14,3,6,10,11,4"
14085,commdev-image-keyboard-response,329,599765,learnblock1,647.2999999999302,img/planet7_right.png,7,Community 1,NA,TRUE,j,j,NA,NA,NA,NA,6,"1,5,7,13,9,2,12,8,15,14,3,6,10,11,4"
14085,commdev-image-keyboard-response,330,601023,learnblock1,932.0999999999767,img/planet5_left.png,5,Community 1,NA,TRUE,f,f,NA,NA,NA,NA,6,"1,5,7,13,9,2,12,8,15,14,3,6,10,11,4"
14085,commdev-image-keyboard-response,331,602274,learnblock1,577.3000000000466,img/planet1_left.png,1,Community 1,NA,TRUE,f,f,NA,NA,NA,NA,6,"1,5,7,13,9,2,12,8,15,14,3,6,10,11,4"
14085,commdev-image-keyboard-response,332,603527,learnblock1,632.0999999999767,img/planet7_left.png,7,Community 1,NA,TRUE,f,f,NA,NA,NA,NA,6,"1,5,7,13,9,2,12,8,15,14,3,6,10,11,4"
14085,commdev-image-keyboard-response,333,604779,learnblock1,506.80000000004657,img/planet9_right.png,9,Community 1,NA,FALSE,f,j,NA,NA,NA,NA,6,"1,5,7,13,9,2,12,8,15,14,3,6,10,11,4"
14085,commdev-image-keyboard-response,334,606031,learnblock1,711,img/planet7_left.png,7,Community 1,NA,TRUE,f,f,NA,NA,NA,NA,6,"1,5,7,13,9,2,12,8,15,14,3,6,10,11,4"
14085,commdev-image-keyboard-response,335,607284,learnblock1,577.6999999999534,img/planet1_right.png,1,Community 1,NA,TRUE,j,j,NA,NA,NA,NA,6,"1,5,7,13,9,2,12,8,15,14,3,6,10,11,4"
14085,commdev-image-keyboard-response,336,608536,learnblock1,677,img/planet9_left.png,9,Community 1,NA,FALSE,j,f,NA,NA,NA,NA,6,"1,5,7,13,9,2,12,8,15,14,3,6,10,11,4"
14085,commdev-image-keyboard-response,337,609788,learnblock1,801.3000000000466,img/planet1_left.png,1,Community 1,NA,TRUE,f,f,NA,NA,NA,NA,6,"1,5,7,13,9,2,12,8,15,14,3,6,10,11,4"
14085,commdev-image-keyboard-response,338,611040,learnblock1,605.4000000000233,img/planet13_right.png,13,Community 1,NA,TRUE,j,j,NA,NA,NA,NA,6,"1,5,7,13,9,2,12,8,15,14,3,6,10,11,4"
14085,commdev-image-keyboard-response,339,612297,learnblock1,578.1999999999534,img/planet1_left.png,1,Community 1,NA,TRUE,f,f,NA,NA,NA,NA,6,"1,5,7,13,9,2,12,8,15,14,3,6,10,11,4"
14085,commdev-image-keyboard-response,340,613548,learnblock1,600.5999999999767,img/planet13_right.png,13,Community 1,NA,TRUE,j,j,NA,NA,NA,NA,6,"1,5,7,13,9,2,12,8,15,14,3,6,10,11,4"
14085,commdev-image-keyboard-response,341,614801,learnblock1,565.6999999999534,img/planet5_left.png,5,Community 1,NA,TRUE,f,f,NA,NA,NA,NA,6,"1,5,7,13,9,2,12,8,15,14,3,6,10,11,4"
14085,commdev-image-keyboard-response,342,616052,learnblock1,584.6999999999534,img/planet13_right.png,13,Community 1,NA,TRUE,j,j,NA,NA,NA,NA,6,"1,5,7,13,9,2,12,8,15,14,3,6,10,11,4"
14085,commdev-image-keyboard-response,343,617304,learnblock1,613.5999999999767,img/planet2_left.png,2,Community 2,NA,TRUE,f,f,NA,NA,NA,NA,6,"1,5,7,13,9,2,12,8,15,14,3,6,10,11,4"
14085,commdev-image-keyboard-response,344,618556,learnblock1,641.4000000000233,img/planet14_right.png,14,Community 2,NA,TRUE,j,j,NA,NA,NA,NA,6,"1,5,7,13,9,2,12,8,15,14,3,6,10,11,4"
14085,commdev-image-keyboard-response,345,619808,learnblock1,854,img/planet2_right.png,2,Community 2,NA,TRUE,j,j,NA,NA,NA,NA,6,"1,5,7,13,9,2,12,8,15,14,3,6,10,11,4"
14085,commdev-image-keyboard-response,346,621061,learnblock1,689.9000000000233,img/planet14_left.png,14,Community 2,NA,TRUE,f,f,NA,NA,NA,NA,6,"1,5,7,13,9,2,12,8,15,14,3,6,10,11,4"
14085,commdev-image-keyboard-response,347,622313,learnblock1,709.1000000000931,img/planet2_left.png,2,Community 2,NA,TRUE,f,f,NA,NA,NA,NA,6,"1,5,7,13,9,2,12,8,15,14,3,6,10,11,4"
14085,commdev-image-keyboard-response,351,653332,learnblock2,946.2999999999302,img/planet4_left.png,4,Community 3,NA,TRUE,f,f,NA,NA,NA,NA,6,"1,5,7,13,9,2,12,8,15,14,3,6,10,11,4"
14085,commdev-image-keyboard-response,352,654584,learnblock2,674.8000000000466,img/planet11_right.png,11,Community 3,NA,TRUE,j,j,NA,NA,NA,NA,6,"1,5,7,13,9,2,12,8,15,14,3,6,10,11,4"
14085,commdev-image-keyboard-response,353,655837,learnblock2,802.6999999999534,img/planet3_right.png,3,Community 3,NA,TRUE,j,j,NA,NA,NA,NA,6,"1,5,7,13,9,2,12,8,15,14,3,6,10,11,4"
14085,commdev-image-keyboard-response,354,657089,learnblock2,573.9000000000233,img/planet4_left.png,4,Community 3,NA,TRUE,f,f,NA,NA,NA,NA,6,"1,5,7,13,9,2,12,8,15,14,3,6,10,11,4"
14085,commdev-image-keyboard-response,355,658341,learnblock2,594.2000000000698,img/planet10_right.png,10,Community 3,NA,TRUE,j,j,NA,NA,NA,NA,6,"1,5,7,13,9,2,12,8,15,14,3,6,10,11,4"
14085,commdev-image-keyboard-response,356,659593,learnblock2,621.6999999999534,img/planet11_left.png,11,Community 3,NA,TRUE,f,f,NA,NA,NA,NA,6,"1,5,7,13,9,2,12,8,15,14,3,6,10,11,4"
14085,commdev-image-keyboard-response,357,660845,learnblock2,602,img/planet6_left.png,6,Community 3,NA,TRUE,f,f,NA,NA,NA,NA,6,"1,5,7,13,9,2,12,8,15,14,3,6,10,11,4"
14085,commdev-image-keyboard-response,358,662097,learnblock2,654,img/planet8_left.png,8,Community 2,NA,TRUE,f,f,NA,NA,NA,NA,6,"1,5,7,13,9,2,12,8,15,14,3,6,10,11,4"
14085,commdev-image-keyboard-response,359,663349,learnblock2,513.9000000000233,img/planet15_left.png,15,Community 2,NA,TRUE,f,f,NA,NA,NA,NA,6,"1,5,7,13,9,2,12,8,15,14,3,6,10,11,4"
14085,commdev-image-keyboard-response,360,664601,learnblock2,534.7000000000698,img/planet14_left.png,14,Community 2,NA,TRUE,f,f,NA,NA,NA,NA,6,"1,5,7,13,9,2,12,8,15,14,3,6,10,11,4"
14085,commdev-image-keyboard-response,361,665853,learnblock2,649.7000000000698,img/planet8_left.png,8,Community 2,NA,TRUE,f,f,NA,NA,NA,NA,6,"1,5,7,13,9,2,12,8,15,14,3,6,10,11,4"
14085,commdev-image-keyboard-response,362,667105,learnblock2,709.7999999999302,img/planet14_left.png,14,Community 2,NA,TRUE,f,f,NA,NA,NA,NA,6,"1,5,7,13,9,2,12,8,15,14,3,6,10,11,4"
14085,commdev-image-keyboard-response,363,668357,learnblock2,593.9000000000233,img/planet8_left.png,8,Community 2,NA,TRUE,f,f,NA,NA,NA,NA,6,"1,5,7,13,9,2,12,8,15,14,3,6,10,11,4"
14085,commdev-image-keyboard-response,364,669609,learnblock2,733.9000000000233,img/planet15_left.png,15,Community 2,NA,TRUE,f,f,NA,NA,NA,NA,6,"1,5,7,13,9,2,12,8,15,14,3,6,10,11,4"
14085,commdev-image-keyboard-response,365,670861,learnblock2,578,img/planet12_right.png,12,Community 2,NA,TRUE,j,j,NA,NA,NA,NA,6,"1,5,7,13,9,2,12,8,15,14,3,6,10,11,4"
14085,commdev-image-keyboard-response,366,672113,learnblock2,670,img/planet2_left.png,2,Community 2,NA,TRUE,f,f,NA,NA,NA,NA,6,"1,5,7,13,9,2,12,8,15,14,3,6,10,11,4"
14085,commdev-image-keyboard-response,367,673365,learnblock2,523.3000000000466,img/planet14_left.png,14,Community 2,NA,TRUE,f,f,NA,NA,NA,NA,6,"1,5,7,13,9,2,12,8,15,14,3,6,10,11,4"
14085,commdev-image-keyboard-response,368,674616,learnblock2,542.5,img/planet12_right.png,12,Community 2,NA,TRUE,j,j,NA,NA,NA,NA,6,"1,5,7,13,9,2,12,8,15,14,3,6,10,11,4"
14085,commdev-image-keyboard-response,369,675869,learnblock2,618.9000000000233,img/planet14_left.png,14,Community 2,NA,TRUE,f,f,NA,NA,NA,NA,6,"1,5,7,13,9,2,12,8,15,14,3,6,10,11,4"
14085,commdev-image-keyboard-response,370,677121,learnblock2,662.6999999999534,img/planet15_left.png,15,Community 2,NA,TRUE,f,f,NA,NA,NA,NA,6,"1,5,7,13,9,2,12,8,15,14,3,6,10,11,4"
14085,commdev-image-keyboard-response,371,678372,learnblock2,602.1000000000931,img/planet2_right.png,2,Community 2,NA,TRUE,j,j,NA,NA,NA,NA,6,"1,5,7,13,9,2,12,8,15,14,3,6,10,11,4"
14085,commdev-image-keyboard-response,372,679624,learnblock2,815.8000000000466,img/planet14_left.png,14,Community 2,NA,TRUE,f,f,NA,NA,NA,NA,6,"1,5,7,13,9,2,12,8,15,14,3,6,10,11,4"
14085,commdev-image-keyboard-response,373,680876,learnblock2,691.6999999999534,img/planet8_left.png,8,Community 2,NA,TRUE,f,f,NA,NA,NA,NA,6,"1,5,7,13,9,2,12,8,15,14,3,6,10,11,4"
14085,commdev-image-keyboard-response,374,682128,learnblock2,583.2000000000698,img/planet12_right.png,12,Community 2,NA,TRUE,j,j,NA,NA,NA,NA,6,"1,5,7,13,9,2,12,8,15,14,3,6,10,11,4"
14085,commdev-image-keyboard-response,375,683380,learnblock2,668,img/planet2_left.png,2,Community 2,NA,TRUE,f,f,NA,NA,NA,NA,6,"1,5,7,13,9,2,12,8,15,14,3,6,10,11,4"
14085,commdev-image-keyboard-response,376,684631,learnblock2,544.7000000000698,img/planet13_right.png,13,Community 1,NA,TRUE,j,j,NA,NA,NA,NA,6,"1,5,7,13,9,2,12,8,15,14,3,6,10,11,4"
14085,commdev-image-keyboard-response,377,685884,learnblock2,645,img/planet7_left.png,7,Community 1,NA,TRUE,f,f,NA,NA,NA,NA,6,"1,5,7,13,9,2,12,8,15,14,3,6,10,11,4"
14085,commdev-image-keyboard-response,378,687136,learnblock2,591.8000000000466,img/planet9_right.png,9,Community 1,NA,TRUE,j,j,NA,NA,NA,NA,6,"1,5,7,13,9,2,12,8,15,14,3,6,10,11,4"
14085,commdev-image-keyboard-response,379,688388,learnblock2,587.6999999999534,img/planet5_left.png,5,Community 1,NA,TRUE,f,f,NA,NA,NA,NA,6,"1,5,7,13,9,2,12,8,15,14,3,6,10,11,4"
14085,commdev-image-keyboard-response,380,689642,learnblock2,688,img/planet7_left.png,7,Community 1,NA,TRUE,f,f,NA,NA,NA,NA,6,"1,5,7,13,9,2,12,8,15,14,3,6,10,11,4"
14085,commdev-image-keyboard-response,381,690894,learnblock2,634.5,img/planet5_left.png,5,Community 1,NA,TRUE,f,f,NA,NA,NA,NA,6,"1,5,7,13,9,2,12,8,15,14,3,6,10,11,4"
14085,commdev-image-keyboard-response,382,692146,learnblock2,542.0999999999767,img/planet9_left.png,9,Community 1,NA,TRUE,f,f,NA,NA,NA,NA,6,"1,5,7,13,9,2,12,8,15,14,3,6,10,11,4"
14085,commdev-image-keyboard-response,383,693398,learnblock2,657.6999999999534,img/planet7_left.png,7,Community 1,NA,TRUE,f,f,NA,NA,NA,NA,6,"1,5,7,13,9,2,12,8,15,14,3,6,10,11,4"
14085,commdev-image-keyboard-response,384,694651,learnblock2,661.8000000000466,img/planet13_left.png,13,Community 1,NA,TRUE,f,f,NA,NA,NA,NA,6,"1,5,7,13,9,2,12,8,15,14,3,6,10,11,4"
14085,commdev-image-keyboard-response,385,695903,learnblock2,681.0999999999767,img/planet5_right.png,5,Community 1,NA,TRUE,j,j,NA,NA,NA,NA,6,"1,5,7,13,9,2,12,8,15,14,3,6,10,11,4"
14085,commdev-image-keyboard-response,386,697155,learnblock2,780.7999999999302,img/planet9_left.png,9,Community 1,NA,TRUE,f,f,NA,NA,NA,NA,6,"1,5,7,13,9,2,12,8,15,14,3,6,10,11,4"
14085,commdev-image-keyboard-response,387,698407,learnblock2,705,img/planet5_right.png,5,Community 1,NA,TRUE,j,j,NA,NA,NA,NA,6,"1,5,7,13,9,2,12,8,15,14,3,6,10,11,4"
14085,commdev-image-keyboard-response,388,699659,learnblock2,613.5,img/planet9_right.png,9,Community 1,NA,FALSE,f,j,NA,NA,NA,NA,6,"1,5,7,13,9,2,12,8,15,14,3,6,10,11,4"
14085,commdev-image-keyboard-response,389,700911,learnblock2,905,img/planet7_right.png,7,Community 1,NA,TRUE,j,j,NA,NA,NA,NA,6,"1,5,7,13,9,2,12,8,15,14,3,6,10,11,4"
14085,commdev-image-keyboard-response,390,702164,learnblock2,1004.5999999999767,img/planet9_left.png,9,Community 1,NA,TRUE,f,f,NA,NA,NA,NA,6,"1,5,7,13,9,2,12,8,15,14,3,6,10,11,4"
14085,commdev-image-keyboard-response,391,703416,learnblock2,632.8000000000466,img/planet3_right.png,3,Community 3,NA,TRUE,j,j,NA,NA,NA,NA,6,"1,5,7,13,9,2,12,8,15,14,3,6,10,11,4"
14085,commdev-image-keyboard-response,392,704668,learnblock2,796.2000000000698,img/planet10_left.png,10,Community 3,NA,TRUE,f,f,NA,NA,NA,NA,6,"1,5,7,13,9,2,12,8,15,14,3,6,10,11,4"
14085,commdev-image-keyboard-response,393,705920,learnblock2,584.4000000000233,img/planet4_left.png,4,Community 3,NA,TRUE,f,f,NA,NA,NA,NA,6,"1,5,7,13,9,2,12,8,15,14,3,6,10,11,4"
14085,commdev-image-keyboard-response,394,707173,learnblock2,629.0999999999767,img/planet11_left.png,11,Community 3,NA,TRUE,f,f,NA,NA,NA,NA,6,"1,5,7,13,9,2,12,8,15,14,3,6,10,11,4"
14085,commdev-image-keyboard-response,395,708425,learnblock2,760,img/planet3_left.png,3,Community 3,NA,TRUE,f,f,NA,NA,NA,NA,6,"1,5,7,13,9,2,12,8,15,14,3,6,10,11,4"
14085,commdev-image-keyboard-response,396,709677,learnblock2,636.5999999999767,img/planet10_right.png,10,Community 3,NA,TRUE,j,j,NA,NA,NA,NA,6,"1,5,7,13,9,2,12,8,15,14,3,6,10,11,4"
14085,commdev-image-keyboard-response,397,710928,learnblock2,672,img/planet11_left.png,11,Community 3,NA,TRUE,f,f,NA,NA,NA,NA,6,"1,5,7,13,9,2,12,8,15,14,3,6,10,11,4"
14085,commdev-image-keyboard-response,398,712181,learnblock2,1036.0999999999767,img/planet6_left.png,6,Community 3,NA,FALSE,j,f,NA,NA,NA,NA,6,"1,5,7,13,9,2,12,8,15,14,3,6,10,11,4"
14085,commdev-image-keyboard-response,399,713433,learnblock2,1159,img/planet8_left.png,8,Community 2,NA,TRUE,f,f,NA,NA,NA,NA,6,"1,5,7,13,9,2,12,8,15,14,3,6,10,11,4"
14085,commdev-image-keyboard-response,400,714685,learnblock2,771.7000000000698,img/planet14_right.png,14,Community 2,NA,TRUE,j,j,NA,NA,NA,NA,6,"1,5,7,13,9,2,12,8,15,14,3,6,10,11,4"
14085,commdev-image-keyboard-response,401,715937,learnblock2,720.2999999999302,img/planet15_left.png,15,Community 2,NA,TRUE,f,f,NA,NA,NA,NA,6,"1,5,7,13,9,2,12,8,15,14,3,6,10,11,4"
14085,commdev-image-keyboard-response,402,717189,learnblock2,628,img/planet12_left.png,12,Community 2,NA,TRUE,f,f,NA,NA,NA,NA,6,"1,5,7,13,9,2,12,8,15,14,3,6,10,11,4"
14085,commdev-image-keyboard-response,403,718441,learnblock2,624.1999999999534,img/planet14_left.png,14,Community 2,NA,TRUE,f,f,NA,NA,NA,NA,6,"1,5,7,13,9,2,12,8,15,14,3,6,10,11,4"
14085,commdev-image-keyboard-response,404,719693,learnblock2,619.8000000000466,img/planet15_left.png,15,Community 2,NA,TRUE,f,f,NA,NA,NA,NA,6,"1,5,7,13,9,2,12,8,15,14,3,6,10,11,4"
14085,commdev-image-keyboard-response,405,720946,learnblock2,599.3000000000466,img/planet12_left.png,12,Community 2,NA,TRUE,f,f,NA,NA,NA,NA,6,"1,5,7,13,9,2,12,8,15,14,3,6,10,11,4"
14085,commdev-image-keyboard-response,406,722197,learnblock2,635.4000000000233,img/planet2_left.png,2,Community 2,NA,TRUE,f,f,NA,NA,NA,NA,6,"1,5,7,13,9,2,12,8,15,14,3,6,10,11,4"
14085,commdev-image-keyboard-response,407,723450,learnblock2,712.5,img/planet12_left.png,12,Community 2,NA,TRUE,f,f,NA,NA,NA,NA,6,"1,5,7,13,9,2,12,8,15,14,3,6,10,11,4"
14085,commdev-image-keyboard-response,408,724701,learnblock2,628.2000000000698,img/planet8_left.png,8,Community 2,NA,TRUE,f,f,NA,NA,NA,NA,6,"1,5,7,13,9,2,12,8,15,14,3,6,10,11,4"
14085,commdev-image-keyboard-response,409,725953,learnblock2,592.5999999999767,img/planet12_right.png,12,Community 2,NA,TRUE,j,j,NA,NA,NA,NA,6,"1,5,7,13,9,2,12,8,15,14,3,6,10,11,4"
14085,commdev-image-keyboard-response,410,727206,learnblock2,741.0999999999767,img/planet14_right.png,14,Community 2,NA,TRUE,j,j,NA,NA,NA,NA,6,"1,5,7,13,9,2,12,8,15,14,3,6,10,11,4"
14085,commdev-image-keyboard-response,411,728458,learnblock2,831.6000000000931,img/planet8_right.png,8,Community 2,NA,TRUE,j,j,NA,NA,NA,NA,6,"1,5,7,13,9,2,12,8,15,14,3,6,10,11,4"
14085,commdev-image-keyboard-response,412,729711,learnblock2,770.9000000000233,img/planet15_right.png,15,Community 2,NA,TRUE,j,j,NA,NA,NA,NA,6,"1,5,7,13,9,2,12,8,15,14,3,6,10,11,4"
14085,commdev-image-keyboard-response,413,730964,learnblock2,630.6000000000931,img/planet12_right.png,12,Community 2,NA,TRUE,j,j,NA,NA,NA,NA,6,"1,5,7,13,9,2,12,8,15,14,3,6,10,11,4"
14085,commdev-image-keyboard-response,414,732216,learnblock2,648.9000000000233,img/planet14_left.png,14,Community 2,NA,TRUE,f,f,NA,NA,NA,NA,6,"1,5,7,13,9,2,12,8,15,14,3,6,10,11,4"
14085,commdev-image-keyboard-response,415,733469,learnblock2,805.0999999999767,img/planet2_right.png,2,Community 2,NA,TRUE,j,j,NA,NA,NA,NA,6,"1,5,7,13,9,2,12,8,15,14,3,6,10,11,4"
14085,commdev-image-keyboard-response,416,734721,learnblock2,601.3999999999069,img/planet13_left.png,13,Community 1,NA,TRUE,f,f,NA,NA,NA,NA,6,"1,5,7,13,9,2,12,8,15,14,3,6,10,11,4"
14085,commdev-image-keyboard-response,417,735974,learnblock2,724.1000000000931,img/planet2_left.png,2,Community 2,NA,TRUE,f,f,NA,NA,NA,NA,6,"1,5,7,13,9,2,12,8,15,14,3,6,10,11,4"
14085,commdev-image-keyboard-response,418,737226,learnblock2,631.9000000000233,img/planet14_left.png,14,Community 2,NA,TRUE,f,f,NA,NA,NA,NA,6,"1,5,7,13,9,2,12,8,15,14,3,6,10,11,4"
14085,commdev-image-keyboard-response,419,738484,learnblock2,652.6999999999534,img/planet12_right.png,12,Community 2,NA,TRUE,j,j,NA,NA,NA,NA,6,"1,5,7,13,9,2,12,8,15,14,3,6,10,11,4"
14085,commdev-image-keyboard-response,420,739736,learnblock2,922.1999999999534,img/planet14_left.png,14,Community 2,NA,TRUE,f,f,NA,NA,NA,NA,6,"1,5,7,13,9,2,12,8,15,14,3,6,10,11,4"
14085,commdev-image-keyboard-response,421,740989,learnblock2,870.1000000000931,img/planet2_left.png,2,Community 2,NA,TRUE,f,f,NA,NA,NA,NA,6,"1,5,7,13,9,2,12,8,15,14,3,6,10,11,4"
14085,commdev-image-keyboard-response,422,742242,learnblock2,689.2000000000698,img/planet13_left.png,13,Community 1,NA,TRUE,f,f,NA,NA,NA,NA,6,"1,5,7,13,9,2,12,8,15,14,3,6,10,11,4"
14085,commdev-image-keyboard-response,423,743494,learnblock2,596,img/planet2_right.png,2,Community 2,NA,TRUE,j,j,NA,NA,NA,NA,6,"1,5,7,13,9,2,12,8,15,14,3,6,10,11,4"
14085,commdev-image-keyboard-response,424,744746,learnblock2,623.8000000000466,img/planet14_left.png,14,Community 2,NA,TRUE,f,f,NA,NA,NA,NA,6,"1,5,7,13,9,2,12,8,15,14,3,6,10,11,4"
14085,commdev-image-keyboard-response,425,745999,learnblock2,587.4000000000233,img/planet8_right.png,8,Community 2,NA,TRUE,j,j,NA,NA,NA,NA,6,"1,5,7,13,9,2,12,8,15,14,3,6,10,11,4"
14085,commdev-image-keyboard-response,426,747252,learnblock2,623.5999999999767,img/planet12_right.png,12,Community 2,NA,TRUE,j,j,NA,NA,NA,NA,6,"1,5,7,13,9,2,12,8,15,14,3,6,10,11,4"
14085,commdev-image-keyboard-response,427,748504,learnblock2,714.7999999999302,img/planet14_right.png,14,Community 2,NA,TRUE,j,j,NA,NA,NA,NA,6,"1,5,7,13,9,2,12,8,15,14,3,6,10,11,4"
14085,commdev-image-keyboard-response,428,749755,learnblock2,733.8000000000466,img/planet15_right.png,15,Community 2,NA,TRUE,j,j,NA,NA,NA,NA,6,"1,5,7,13,9,2,12,8,15,14,3,6,10,11,4"
14085,commdev-image-keyboard-response,429,751007,learnblock2,650.1999999999534,img/planet14_left.png,14,Community 2,NA,TRUE,f,f,NA,NA,NA,NA,6,"1,5,7,13,9,2,12,8,15,14,3,6,10,11,4"
14085,commdev-image-keyboard-response,430,752259,learnblock2,622.8000000000466,img/planet8_left.png,8,Community 2,NA,TRUE,f,f,NA,NA,NA,NA,6,"1,5,7,13,9,2,12,8,15,14,3,6,10,11,4"
14085,commdev-image-keyboard-response,431,753512,learnblock2,514.7999999999302,img/planet15_left.png,15,Community 2,NA,TRUE,f,f,NA,NA,NA,NA,6,"1,5,7,13,9,2,12,8,15,14,3,6,10,11,4"
14085,commdev-image-keyboard-response,432,754763,learnblock2,558.9000000000233,img/planet14_left.png,14,Community 2,NA,TRUE,f,f,NA,NA,NA,NA,6,"1,5,7,13,9,2,12,8,15,14,3,6,10,11,4"
14085,commdev-image-keyboard-response,433,756028,learnblock2,531.0999999999767,img/planet12_right.png,12,Community 2,NA,TRUE,j,j,NA,NA,NA,NA,6,"1,5,7,13,9,2,12,8,15,14,3,6,10,11,4"
14085,commdev-image-keyboard-response,434,757281,learnblock2,810.5,img/planet2_right.png,2,Community 2,NA,TRUE,j,j,NA,NA,NA,NA,6,"1,5,7,13,9,2,12,8,15,14,3,6,10,11,4"
14085,commdev-image-keyboard-response,435,758533,learnblock2,550.3000000000466,img/planet15_right.png,15,Community 2,NA,TRUE,j,j,NA,NA,NA,NA,6,"1,5,7,13,9,2,12,8,15,14,3,6,10,11,4"
14085,commdev-image-keyboard-response,436,759785,learnblock2,601.9000000000233,img/planet14_left.png,14,Community 2,NA,TRUE,f,f,NA,NA,NA,NA,6,"1,5,7,13,9,2,12,8,15,14,3,6,10,11,4"
14085,commdev-image-keyboard-response,437,761036,learnblock2,997.2999999999302,img/planet12_right.png,12,Community 2,NA,TRUE,j,j,NA,NA,NA,NA,6,"1,5,7,13,9,2,12,8,15,14,3,6,10,11,4"
14085,commdev-image-keyboard-response,438,762289,learnblock2,578.8000000000466,img/planet2_left.png,2,Community 2,NA,TRUE,f,f,NA,NA,NA,NA,6,"1,5,7,13,9,2,12,8,15,14,3,6,10,11,4"
14085,commdev-image-keyboard-response,439,763541,learnblock2,1014,img/planet13_left.png,13,Community 1,NA,TRUE,f,f,NA,NA,NA,NA,6,"1,5,7,13,9,2,12,8,15,14,3,6,10,11,4"
14085,commdev-image-keyboard-response,440,764793,learnblock2,609.5,img/planet1_left.png,1,Community 1,NA,TRUE,f,f,NA,NA,NA,NA,6,"1,5,7,13,9,2,12,8,15,14,3,6,10,11,4"
14085,commdev-image-keyboard-response,441,766044,learnblock2,590.3000000000466,img/planet13_left.png,13,Community 1,NA,TRUE,f,f,NA,NA,NA,NA,6,"1,5,7,13,9,2,12,8,15,14,3,6,10,11,4"
14085,commdev-image-keyboard-response,442,767297,learnblock2,706.4000000000233,img/planet2_right.png,2,Community 2,NA,TRUE,j,j,NA,NA,NA,NA,6,"1,5,7,13,9,2,12,8,15,14,3,6,10,11,4"
14085,commdev-image-keyboard-response,443,768549,learnblock2,750.1999999999534,img/planet13_right.png,13,Community 1,NA,TRUE,j,j,NA,NA,NA,NA,6,"1,5,7,13,9,2,12,8,15,14,3,6,10,11,4"
14085,commdev-image-keyboard-response,444,769809,learnblock2,650.5,img/planet7_right.png,7,Community 1,NA,TRUE,j,j,NA,NA,NA,NA,6,"1,5,7,13,9,2,12,8,15,14,3,6,10,11,4"
14085,commdev-image-keyboard-response,445,771061,learnblock2,541.8000000000466,img/planet13_right.png,13,Community 1,NA,TRUE,j,j,NA,NA,NA,NA,6,"1,5,7,13,9,2,12,8,15,14,3,6,10,11,4"
14085,commdev-image-keyboard-response,446,772313,learnblock2,658,img/planet5_left.png,5,Community 1,NA,TRUE,f,f,NA,NA,NA,NA,6,"1,5,7,13,9,2,12,8,15,14,3,6,10,11,4"
14085,commdev-image-keyboard-response,447,773565,learnblock2,573.4000000000233,img/planet9_left.png,9,Community 1,NA,TRUE,f,f,NA,NA,NA,NA,6,"1,5,7,13,9,2,12,8,15,14,3,6,10,11,4"
14085,commdev-image-keyboard-response,448,774817,learnblock2,737.6000000000931,img/planet5_right.png,5,Community 1,NA,TRUE,j,j,NA,NA,NA,NA,6,"1,5,7,13,9,2,12,8,15,14,3,6,10,11,4"
14085,commdev-image-keyboard-response,449,776069,learnblock2,622.2000000000698,img/planet9_left.png,9,Community 1,NA,TRUE,f,f,NA,NA,NA,NA,6,"1,5,7,13,9,2,12,8,15,14,3,6,10,11,4"
14085,commdev-image-keyboard-response,450,777322,learnblock2,594.6999999999534,img/planet5_left.png,5,Community 1,NA,TRUE,f,f,NA,NA,NA,NA,6,"1,5,7,13,9,2,12,8,15,14,3,6,10,11,4"
14085,commdev-image-keyboard-response,451,778574,learnblock2,485.4000000000233,img/planet1_left.png,1,Community 1,NA,TRUE,f,f,NA,NA,NA,NA,6,"1,5,7,13,9,2,12,8,15,14,3,6,10,11,4"
14085,commdev-image-keyboard-response,452,779825,learnblock2,561.1000000000931,img/planet13_right.png,13,Community 1,NA,FALSE,f,j,NA,NA,NA,NA,6,"1,5,7,13,9,2,12,8,15,14,3,6,10,11,4"
14085,commdev-image-keyboard-response,453,781077,learnblock2,726.5,img/planet5_right.png,5,Community 1,NA,TRUE,j,j,NA,NA,NA,NA,6,"1,5,7,13,9,2,12,8,15,14,3,6,10,11,4"
14085,commdev-image-keyboard-response,454,782329,learnblock2,817.9000000000233,img/planet7_left.png,7,Community 1,NA,TRUE,f,f,NA,NA,NA,NA,6,"1,5,7,13,9,2,12,8,15,14,3,6,10,11,4"
14085,commdev-image-keyboard-response,455,783581,learnblock2,861.8000000000466,img/planet13_left.png,13,Community 1,NA,TRUE,f,f,NA,NA,NA,NA,6,"1,5,7,13,9,2,12,8,15,14,3,6,10,11,4"
14085,commdev-image-keyboard-response,456,784833,learnblock2,610.5,img/planet7_left.png,7,Community 1,NA,TRUE,f,f,NA,NA,NA,NA,6,"1,5,7,13,9,2,12,8,15,14,3,6,10,11,4"
14085,commdev-image-keyboard-response,457,786084,learnblock2,534.7999999999302,img/planet9_left.png,9,Community 1,NA,TRUE,f,f,NA,NA,NA,NA,6,"1,5,7,13,9,2,12,8,15,14,3,6,10,11,4"
14085,commdev-image-keyboard-response,458,787335,learnblock2,538.8000000000466,img/planet1_left.png,1,Community 1,NA,TRUE,f,f,NA,NA,NA,NA,6,"1,5,7,13,9,2,12,8,15,14,3,6,10,11,4"
14085,commdev-image-keyboard-response,459,788587,learnblock2,447.0999999999767,img/planet9_right.png,9,Community 1,NA,TRUE,j,j,NA,NA,NA,NA,6,"1,5,7,13,9,2,12,8,15,14,3,6,10,11,4"
14085,commdev-image-keyboard-response,460,789839,learnblock2,579.6999999999534,img/planet1_right.png,1,Community 1,NA,TRUE,j,j,NA,NA,NA,NA,6,"1,5,7,13,9,2,12,8,15,14,3,6,10,11,4"
14085,commdev-image-keyboard-response,461,791091,learnblock2,696.8999999999069,img/planet7_left.png,7,Community 1,NA,TRUE,f,f,NA,NA,NA,NA,6,"1,5,7,13,9,2,12,8,15,14,3,6,10,11,4"
14085,commdev-image-keyboard-response,462,792343,learnblock2,588.7000000000698,img/planet13_right.png,13,Community 1,NA,TRUE,j,j,NA,NA,NA,NA,6,"1,5,7,13,9,2,12,8,15,14,3,6,10,11,4"
14085,commdev-image-keyboard-response,463,793596,learnblock2,608.1999999999534,img/planet5_right.png,5,Community 1,NA,TRUE,j,j,NA,NA,NA,NA,6,"1,5,7,13,9,2,12,8,15,14,3,6,10,11,4"
14085,commdev-image-keyboard-response,464,794848,learnblock2,475.4000000000233,img/planet13_right.png,13,Community 1,NA,TRUE,j,j,NA,NA,NA,NA,6,"1,5,7,13,9,2,12,8,15,14,3,6,10,11,4"
14085,commdev-image-keyboard-response,465,796114,learnblock2,639.4000000000233,img/planet7_left.png,7,Community 1,NA,TRUE,f,f,NA,NA,NA,NA,6,"1,5,7,13,9,2,12,8,15,14,3,6,10,11,4"
14085,commdev-image-keyboard-response,466,797366,learnblock2,661.8999999999069,img/planet5_right.png,5,Community 1,NA,TRUE,j,j,NA,NA,NA,NA,6,"1,5,7,13,9,2,12,8,15,14,3,6,10,11,4"
14085,commdev-image-keyboard-response,467,798618,learnblock2,1177.4000000000233,img/planet7_left.png,7,Community 1,NA,FALSE,j,f,NA,NA,NA,NA,6,"1,5,7,13,9,2,12,8,15,14,3,6,10,11,4"
14085,commdev-image-keyboard-response,468,799871,learnblock2,null,img/planet9_right.png,9,Community 1,NA,FALSE,null,j,NA,NA,NA,NA,6,"1,5,7,13,9,2,12,8,15,14,3,6,10,11,4"
14085,commdev-image-keyboard-response,469,801123,learnblock2,113,img/planet5_right.png,5,Community 1,NA,TRUE,j,j,NA,NA,NA,NA,6,"1,5,7,13,9,2,12,8,15,14,3,6,10,11,4"
14085,commdev-image-keyboard-response,470,802375,learnblock2,669,img/planet9_left.png,9,Community 1,NA,TRUE,f,f,NA,NA,NA,NA,6,"1,5,7,13,9,2,12,8,15,14,3,6,10,11,4"
14085,commdev-image-keyboard-response,471,803627,learnblock2,608.5999999999767,img/planet3_right.png,3,Community 3,NA,TRUE,j,j,NA,NA,NA,NA,6,"1,5,7,13,9,2,12,8,15,14,3,6,10,11,4"
14085,commdev-image-keyboard-response,472,804880,learnblock2,627.1999999999534,img/planet4_left.png,4,Community 3,NA,TRUE,f,f,NA,NA,NA,NA,6,"1,5,7,13,9,2,12,8,15,14,3,6,10,11,4"
14085,commdev-image-keyboard-response,473,806132,learnblock2,592,img/planet10_right.png,10,Community 3,NA,TRUE,j,j,NA,NA,NA,NA,6,"1,5,7,13,9,2,12,8,15,14,3,6,10,11,4"
14085,commdev-image-keyboard-response,474,807383,learnblock2,748.8999999999069,img/planet6_left.png,6,Community 3,NA,TRUE,f,f,NA,NA,NA,NA,6,"1,5,7,13,9,2,12,8,15,14,3,6,10,11,4"
14085,commdev-image-keyboard-response,475,808635,learnblock2,552.8999999999069,img/planet10_left.png,10,Community 3,NA,TRUE,f,f,NA,NA,NA,NA,6,"1,5,7,13,9,2,12,8,15,14,3,6,10,11,4"
14085,commdev-image-keyboard-response,476,809887,learnblock2,557,img/planet6_left.png,6,Community 3,NA,TRUE,f,f,NA,NA,NA,NA,6,"1,5,7,13,9,2,12,8,15,14,3,6,10,11,4"
14085,commdev-image-keyboard-response,477,811138,learnblock2,601.5,img/planet11_left.png,11,Community 3,NA,TRUE,f,f,NA,NA,NA,NA,6,"1,5,7,13,9,2,12,8,15,14,3,6,10,11,4"
14085,commdev-image-keyboard-response,478,812390,learnblock2,533.7999999999302,img/planet10_right.png,10,Community 3,NA,FALSE,f,j,NA,NA,NA,NA,6,"1,5,7,13,9,2,12,8,15,14,3,6,10,11,4"
14085,commdev-image-keyboard-response,479,813642,learnblock2,611,img/planet6_right.png,6,Community 3,NA,TRUE,j,j,NA,NA,NA,NA,6,"1,5,7,13,9,2,12,8,15,14,3,6,10,11,4"
14085,commdev-image-keyboard-response,480,814894,learnblock2,669.9000000000233,img/planet4_left.png,4,Community 3,NA,TRUE,f,f,NA,NA,NA,NA,6,"1,5,7,13,9,2,12,8,15,14,3,6,10,11,4"
14085,commdev-image-keyboard-response,481,816145,learnblock2,578.3000000000466,img/planet11_left.png,11,Community 3,NA,TRUE,f,f,NA,NA,NA,NA,6,"1,5,7,13,9,2,12,8,15,14,3,6,10,11,4"
14085,commdev-image-keyboard-response,482,817405,learnblock2,592.0999999999767,img/planet4_right.png,4,Community 3,NA,TRUE,j,j,NA,NA,NA,NA,6,"1,5,7,13,9,2,12,8,15,14,3,6,10,11,4"
14085,commdev-image-keyboard-response,483,818657,learnblock2,706.6999999999534,img/planet3_right.png,3,Community 3,NA,TRUE,j,j,NA,NA,NA,NA,6,"1,5,7,13,9,2,12,8,15,14,3,6,10,11,4"
14085,commdev-image-keyboard-response,484,819909,learnblock2,527.0999999999767,img/planet10_right.png,10,Community 3,NA,TRUE,j,j,NA,NA,NA,NA,6,"1,5,7,13,9,2,12,8,15,14,3,6,10,11,4"
14085,commdev-image-keyboard-response,485,821160,learnblock2,595,img/planet6_left.png,6,Community 3,NA,TRUE,f,f,NA,NA,NA,NA,6,"1,5,7,13,9,2,12,8,15,14,3,6,10,11,4"
14085,commdev-image-keyboard-response,486,822412,learnblock2,631.5999999999767,img/planet8_left.png,8,Community 2,NA,TRUE,f,f,NA,NA,NA,NA,6,"1,5,7,13,9,2,12,8,15,14,3,6,10,11,4"
14085,commdev-image-keyboard-response,487,823663,learnblock2,628.4000000000233,img/planet15_left.png,15,Community 2,NA,TRUE,f,f,NA,NA,NA,NA,6,"1,5,7,13,9,2,12,8,15,14,3,6,10,11,4"
14085,commdev-image-keyboard-response,488,824916,learnblock2,529,img/planet12_right.png,12,Community 2,NA,TRUE,j,j,NA,NA,NA,NA,6,"1,5,7,13,9,2,12,8,15,14,3,6,10,11,4"
14085,commdev-image-keyboard-response,489,826167,learnblock2,628.1999999999534,img/planet8_left.png,8,Community 2,NA,FALSE,j,f,NA,NA,NA,NA,6,"1,5,7,13,9,2,12,8,15,14,3,6,10,11,4"
14085,commdev-image-keyboard-response,490,827419,learnblock2,616.7999999999302,img/planet15_right.png,15,Community 2,NA,TRUE,j,j,NA,NA,NA,NA,6,"1,5,7,13,9,2,12,8,15,14,3,6,10,11,4"
14085,commdev-image-keyboard-response,491,828671,learnblock2,957.6999999999534,img/planet8_left.png,8,Community 2,NA,TRUE,f,f,NA,NA,NA,NA,6,"1,5,7,13,9,2,12,8,15,14,3,6,10,11,4"
14085,commdev-image-keyboard-response,492,829922,learnblock2,601.8000000000466,img/planet14_right.png,14,Community 2,NA,TRUE,j,j,NA,NA,NA,NA,6,"1,5,7,13,9,2,12,8,15,14,3,6,10,11,4"
14085,commdev-image-keyboard-response,493,831174,learnblock2,550.5,img/planet15_right.png,15,Community 2,NA,TRUE,j,j,NA,NA,NA,NA,6,"1,5,7,13,9,2,12,8,15,14,3,6,10,11,4"
14085,commdev-image-keyboard-response,494,832426,learnblock2,603.1999999999534,img/planet14_right.png,14,Community 2,NA,TRUE,j,j,NA,NA,NA,NA,6,"1,5,7,13,9,2,12,8,15,14,3,6,10,11,4"
14085,commdev-image-keyboard-response,495,833678,learnblock2,695,img/planet12_left.png,12,Community 2,NA,TRUE,f,f,NA,NA,NA,NA,6,"1,5,7,13,9,2,12,8,15,14,3,6,10,11,4"
14085,commdev-image-keyboard-response,496,834945,learnblock2,819.0999999999767,img/planet14_left.png,14,Community 2,NA,TRUE,f,f,NA,NA,NA,NA,6,"1,5,7,13,9,2,12,8,15,14,3,6,10,11,4"
14085,commdev-image-keyboard-response,497,836197,learnblock2,679.7999999999302,img/planet8_left.png,8,Community 2,NA,TRUE,f,f,NA,NA,NA,NA,6,"1,5,7,13,9,2,12,8,15,14,3,6,10,11,4"
14085,commdev-image-keyboard-response,498,837448,learnblock2,572.1000000000931,img/planet15_left.png,15,Community 2,NA,TRUE,f,f,NA,NA,NA,NA,6,"1,5,7,13,9,2,12,8,15,14,3,6,10,11,4"
14085,commdev-image-keyboard-response,499,838701,learnblock2,495.5999999999767,img/planet14_right.png,14,Community 2,NA,TRUE,j,j,NA,NA,NA,NA,6,"1,5,7,13,9,2,12,8,15,14,3,6,10,11,4"
14085,commdev-image-keyboard-response,500,839956,learnblock2,572,img/planet12_right.png,12,Community 2,NA,TRUE,j,j,NA,NA,NA,NA,6,"1,5,7,13,9,2,12,8,15,14,3,6,10,11,4"
14085,commdev-image-keyboard-response,501,841208,learnblock2,484.80000000004657,img/planet14_left.png,14,Community 2,NA,FALSE,j,f,NA,NA,NA,NA,6,"1,5,7,13,9,2,12,8,15,14,3,6,10,11,4"
14085,commdev-image-keyboard-response,502,842460,learnblock2,825.5,img/planet15_left.png,15,Community 2,NA,TRUE,f,f,NA,NA,NA,NA,6,"1,5,7,13,9,2,12,8,15,14,3,6,10,11,4"
14085,commdev-image-keyboard-response,503,843721,learnblock2,708.6999999999534,img/planet8_left.png,8,Community 2,NA,TRUE,f,f,NA,NA,NA,NA,6,"1,5,7,13,9,2,12,8,15,14,3,6,10,11,4"
14085,commdev-image-keyboard-response,504,844973,learnblock2,560.8000000000466,img/planet15_right.png,15,Community 2,NA,TRUE,j,j,NA,NA,NA,NA,6,"1,5,7,13,9,2,12,8,15,14,3,6,10,11,4"
14085,commdev-image-keyboard-response,505,846224,learnblock2,661.1000000000931,img/planet14_right.png,14,Community 2,NA,TRUE,j,j,NA,NA,NA,NA,6,"1,5,7,13,9,2,12,8,15,14,3,6,10,11,4"
14085,commdev-image-keyboard-response,506,847477,learnblock2,null,img/planet2_left.png,2,Community 2,NA,FALSE,null,f,NA,NA,NA,NA,6,"1,5,7,13,9,2,12,8,15,14,3,6,10,11,4"
14085,commdev-image-keyboard-response,507,848728,learnblock2,52.199999999953434,img/planet13_left.png,13,Community 1,NA,TRUE,f,f,NA,NA,NA,NA,6,"1,5,7,13,9,2,12,8,15,14,3,6,10,11,4"
14085,commdev-image-keyboard-response,508,849980,learnblock2,545.4000000000233,img/planet1_left.png,1,Community 1,NA,TRUE,f,f,NA,NA,NA,NA,6,"1,5,7,13,9,2,12,8,15,14,3,6,10,11,4"
14085,commdev-image-keyboard-response,509,851233,learnblock2,533.4000000000233,img/planet5_left.png,5,Community 1,NA,TRUE,f,f,NA,NA,NA,NA,6,"1,5,7,13,9,2,12,8,15,14,3,6,10,11,4"
14085,commdev-image-keyboard-response,510,852485,learnblock2,503.69999999995343,img/planet1_left.png,1,Community 1,NA,TRUE,f,f,NA,NA,NA,NA,6,"1,5,7,13,9,2,12,8,15,14,3,6,10,11,4"
14085,commdev-image-keyboard-response,511,853737,learnblock2,548.5,img/planet9_right.png,9,Community 1,NA,TRUE,j,j,NA,NA,NA,NA,6,"1,5,7,13,9,2,12,8,15,14,3,6,10,11,4"
14085,commdev-image-keyboard-response,512,854989,learnblock2,696.1999999999534,img/planet7_left.png,7,Community 1,NA,TRUE,f,f,NA,NA,NA,NA,6,"1,5,7,13,9,2,12,8,15,14,3,6,10,11,4"
14085,commdev-image-keyboard-response,513,856242,learnblock2,596.6999999999534,img/planet1_right.png,1,Community 1,NA,TRUE,j,j,NA,NA,NA,NA,6,"1,5,7,13,9,2,12,8,15,14,3,6,10,11,4"
14085,commdev-image-keyboard-response,514,857495,learnblock2,575.9000000000233,img/planet13_right.png,13,Community 1,NA,TRUE,j,j,NA,NA,NA,NA,6,"1,5,7,13,9,2,12,8,15,14,3,6,10,11,4"
14085,commdev-image-keyboard-response,515,858746,learnblock2,651.3000000000466,img/planet5_right.png,5,Community 1,NA,TRUE,j,j,NA,NA,NA,NA,6,"1,5,7,13,9,2,12,8,15,14,3,6,10,11,4"
14085,commdev-image-keyboard-response,516,859998,learnblock2,744.0999999999767,img/planet7_right.png,7,Community 1,NA,TRUE,j,j,NA,NA,NA,NA,6,"1,5,7,13,9,2,12,8,15,14,3,6,10,11,4"
14085,commdev-image-keyboard-response,517,861251,learnblock2,651.3000000000466,img/planet5_left.png,5,Community 1,NA,TRUE,f,f,NA,NA,NA,NA,6,"1,5,7,13,9,2,12,8,15,14,3,6,10,11,4"
14085,commdev-image-keyboard-response,518,862503,learnblock2,542.5,img/planet7_right.png,7,Community 1,NA,TRUE,j,j,NA,NA,NA,NA,6,"1,5,7,13,9,2,12,8,15,14,3,6,10,11,4"
14085,commdev-image-keyboard-response,519,863756,learnblock2,602.4000000000233,img/planet5_right.png,5,Community 1,NA,TRUE,j,j,NA,NA,NA,NA,6,"1,5,7,13,9,2,12,8,15,14,3,6,10,11,4"
14085,commdev-image-keyboard-response,520,865008,learnblock2,638.2000000000698,img/planet13_right.png,13,Community 1,NA,TRUE,j,j,NA,NA,NA,NA,6,"1,5,7,13,9,2,12,8,15,14,3,6,10,11,4"
14085,commdev-image-keyboard-response,521,866260,learnblock2,578.5999999999767,img/planet5_left.png,5,Community 1,NA,TRUE,f,f,NA,NA,NA,NA,6,"1,5,7,13,9,2,12,8,15,14,3,6,10,11,4"
14085,commdev-image-keyboard-response,522,867513,learnblock2,734,img/planet1_left.png,1,Community 1,NA,FALSE,j,f,NA,NA,NA,NA,6,"1,5,7,13,9,2,12,8,15,14,3,6,10,11,4"
14085,commdev-image-keyboard-response,523,868763,learnblock2,848.5,img/planet13_left.png,13,Community 1,NA,TRUE,f,f,NA,NA,NA,NA,6,"1,5,7,13,9,2,12,8,15,14,3,6,10,11,4"
14085,commdev-image-keyboard-response,524,870015,learnblock2,702.0999999999767,img/planet5_left.png,5,Community 1,NA,TRUE,f,f,NA,NA,NA,NA,6,"1,5,7,13,9,2,12,8,15,14,3,6,10,11,4"
14085,commdev-image-keyboard-response,525,871267,learnblock2,658.5,img/planet9_right.png,9,Community 1,NA,TRUE,j,j,NA,NA,NA,NA,6,"1,5,7,13,9,2,12,8,15,14,3,6,10,11,4"
14085,commdev-image-keyboard-response,526,872520,learnblock2,710.0999999999767,img/planet3_left.png,3,Community 3,NA,TRUE,f,f,NA,NA,NA,NA,6,"1,5,7,13,9,2,12,8,15,14,3,6,10,11,4"
14085,commdev-image-keyboard-response,527,873771,learnblock2,706.5,img/planet4_right.png,4,Community 3,NA,TRUE,j,j,NA,NA,NA,NA,6,"1,5,7,13,9,2,12,8,15,14,3,6,10,11,4"
14085,commdev-image-keyboard-response,528,875023,learnblock2,728.3000000000466,img/planet3_right.png,3,Community 3,NA,TRUE,j,j,NA,NA,NA,NA,6,"1,5,7,13,9,2,12,8,15,14,3,6,10,11,4"
14085,commdev-image-keyboard-response,529,876278,learnblock2,523.8000000000466,img/planet9_right.png,9,Community 1,NA,TRUE,j,j,NA,NA,NA,NA,6,"1,5,7,13,9,2,12,8,15,14,3,6,10,11,4"
14085,commdev-image-keyboard-response,530,877532,learnblock2,548.8000000000466,img/planet1_left.png,1,Community 1,NA,TRUE,f,f,NA,NA,NA,NA,6,"1,5,7,13,9,2,12,8,15,14,3,6,10,11,4"
14085,commdev-image-keyboard-response,531,878783,learnblock2,589.4000000000233,img/planet13_left.png,13,Community 1,NA,TRUE,f,f,NA,NA,NA,NA,6,"1,5,7,13,9,2,12,8,15,14,3,6,10,11,4"
14085,commdev-image-keyboard-response,532,880035,learnblock2,706.9000000000233,img/planet1_right.png,1,Community 1,NA,TRUE,j,j,NA,NA,NA,NA,6,"1,5,7,13,9,2,12,8,15,14,3,6,10,11,4"
14085,commdev-image-keyboard-response,533,881287,learnblock2,704.0999999999767,img/planet13_left.png,13,Community 1,NA,TRUE,f,f,NA,NA,NA,NA,6,"1,5,7,13,9,2,12,8,15,14,3,6,10,11,4"
14085,commdev-image-keyboard-response,534,882539,learnblock2,650.4000000000233,img/planet2_right.png,2,Community 2,NA,TRUE,j,j,NA,NA,NA,NA,6,"1,5,7,13,9,2,12,8,15,14,3,6,10,11,4"
14085,commdev-image-keyboard-response,535,883804,learnblock2,1159.5,img/planet15_right.png,15,Community 2,NA,FALSE,f,j,NA,NA,NA,NA,6,"1,5,7,13,9,2,12,8,15,14,3,6,10,11,4"
14085,commdev-image-keyboard-response,536,885056,learnblock2,806.2000000000698,img/planet2_left.png,2,Community 2,NA,TRUE,f,f,NA,NA,NA,NA,6,"1,5,7,13,9,2,12,8,15,14,3,6,10,11,4"
14085,commdev-image-keyboard-response,537,886308,learnblock2,698.3000000000466,img/planet12_right.png,12,Community 2,NA,TRUE,j,j,NA,NA,NA,NA,6,"1,5,7,13,9,2,12,8,15,14,3,6,10,11,4"
14085,commdev-image-keyboard-response,538,887560,learnblock2,1119.4000000000233,img/planet8_left.png,8,Community 2,NA,TRUE,f,f,NA,NA,NA,NA,6,"1,5,7,13,9,2,12,8,15,14,3,6,10,11,4"
14085,commdev-image-keyboard-response,539,888812,learnblock2,603,img/planet6_right.png,6,Community 3,NA,TRUE,j,j,NA,NA,NA,NA,6,"1,5,7,13,9,2,12,8,15,14,3,6,10,11,4"
14085,commdev-image-keyboard-response,540,890064,learnblock2,670.1999999999534,img/planet4_right.png,4,Community 3,NA,TRUE,j,j,NA,NA,NA,NA,6,"1,5,7,13,9,2,12,8,15,14,3,6,10,11,4"
14085,commdev-image-keyboard-response,541,891317,learnblock2,586.4000000000233,img/planet10_left.png,10,Community 3,NA,TRUE,f,f,NA,NA,NA,NA,6,"1,5,7,13,9,2,12,8,15,14,3,6,10,11,4"
14085,commdev-image-keyboard-response,542,892569,learnblock2,542.4000000000233,img/planet4_right.png,4,Community 3,NA,TRUE,j,j,NA,NA,NA,NA,6,"1,5,7,13,9,2,12,8,15,14,3,6,10,11,4"
14085,commdev-image-keyboard-response,543,893820,learnblock2,762.2000000000698,img/planet10_right.png,10,Community 3,NA,TRUE,j,j,NA,NA,NA,NA,6,"1,5,7,13,9,2,12,8,15,14,3,6,10,11,4"
14085,commdev-image-keyboard-response,544,895072,learnblock2,559.4000000000233,img/planet6_left.png,6,Community 3,NA,TRUE,f,f,NA,NA,NA,NA,6,"1,5,7,13,9,2,12,8,15,14,3,6,10,11,4"
14085,commdev-image-keyboard-response,545,896324,learnblock2,594.8000000000466,img/planet10_left.png,10,Community 3,NA,FALSE,j,f,NA,NA,NA,NA,6,"1,5,7,13,9,2,12,8,15,14,3,6,10,11,4"
14085,commdev-image-keyboard-response,546,897576,learnblock2,886.5,img/planet3_left.png,3,Community 3,NA,TRUE,f,f,NA,NA,NA,NA,6,"1,5,7,13,9,2,12,8,15,14,3,6,10,11,4"
14085,commdev-image-keyboard-response,547,898829,learnblock2,546.3000000000466,img/planet4_right.png,4,Community 3,NA,TRUE,j,j,NA,NA,NA,NA,6,"1,5,7,13,9,2,12,8,15,14,3,6,10,11,4"
14085,commdev-image-keyboard-response,548,900081,learnblock2,598.1999999999534,img/planet10_left.png,10,Community 3,NA,TRUE,f,f,NA,NA,NA,NA,6,"1,5,7,13,9,2,12,8,15,14,3,6,10,11,4"
14085,commdev-image-keyboard-response,549,901332,learnblock2,650.6000000000931,img/planet4_left.png,4,Community 3,NA,TRUE,f,f,NA,NA,NA,NA,6,"1,5,7,13,9,2,12,8,15,14,3,6,10,11,4"
14085,commdev-image-keyboard-response,550,902584,learnblock2,591.2999999999302,img/planet11_right.png,11,Community 3,NA,TRUE,j,j,NA,NA,NA,NA,6,"1,5,7,13,9,2,12,8,15,14,3,6,10,11,4"
14085,commdev-image-keyboard-response,551,903835,learnblock2,996,img/planet4_right.png,4,Community 3,NA,TRUE,j,j,NA,NA,NA,NA,6,"1,5,7,13,9,2,12,8,15,14,3,6,10,11,4"
14085,commdev-image-keyboard-response,552,905087,learnblock2,624.5999999999767,img/planet11_left.png,11,Community 3,NA,TRUE,f,f,NA,NA,NA,NA,6,"1,5,7,13,9,2,12,8,15,14,3,6,10,11,4"
14085,commdev-image-keyboard-response,553,906340,learnblock2,780.3000000000466,img/planet6_right.png,6,Community 3,NA,TRUE,j,j,NA,NA,NA,NA,6,"1,5,7,13,9,2,12,8,15,14,3,6,10,11,4"
14085,commdev-image-keyboard-response,554,907592,learnblock2,608,img/planet4_right.png,4,Community 3,NA,FALSE,f,j,NA,NA,NA,NA,6,"1,5,7,13,9,2,12,8,15,14,3,6,10,11,4"
14085,commdev-image-keyboard-response,555,908844,learnblock2,1212.1999999999534,img/planet3_right.png,3,Community 3,NA,TRUE,j,j,NA,NA,NA,NA,6,"1,5,7,13,9,2,12,8,15,14,3,6,10,11,4"
14085,commdev-image-keyboard-response,556,910096,learnblock2,575.9000000000233,img/planet4_left.png,4,Community 3,NA,TRUE,f,f,NA,NA,NA,NA,6,"1,5,7,13,9,2,12,8,15,14,3,6,10,11,4"
14085,commdev-image-keyboard-response,557,911348,learnblock2,659.3000000000466,img/planet6_right.png,6,Community 3,NA,TRUE,j,j,NA,NA,NA,NA,6,"1,5,7,13,9,2,12,8,15,14,3,6,10,11,4"
14085,commdev-image-keyboard-response,558,912601,learnblock2,511.69999999995343,img/planet10_right.png,10,Community 3,NA,TRUE,j,j,NA,NA,NA,NA,6,"1,5,7,13,9,2,12,8,15,14,3,6,10,11,4"
14085,commdev-image-keyboard-response,559,913854,learnblock2,714.5999999999767,img/planet6_left.png,6,Community 3,NA,TRUE,f,f,NA,NA,NA,NA,6,"1,5,7,13,9,2,12,8,15,14,3,6,10,11,4"
14085,commdev-image-keyboard-response,560,915106,learnblock2,830.1999999999534,img/planet4_left.png,4,Community 3,NA,TRUE,f,f,NA,NA,NA,NA,6,"1,5,7,13,9,2,12,8,15,14,3,6,10,11,4"
14085,commdev-image-keyboard-response,561,916358,learnblock2,529.7999999999302,img/planet11_right.png,11,Community 3,NA,TRUE,j,j,NA,NA,NA,NA,6,"1,5,7,13,9,2,12,8,15,14,3,6,10,11,4"
14085,commdev-image-keyboard-response,562,917614,learnblock2,670.0999999999767,img/planet4_left.png,4,Community 3,NA,TRUE,f,f,NA,NA,NA,NA,6,"1,5,7,13,9,2,12,8,15,14,3,6,10,11,4"
14085,commdev-image-keyboard-response,563,918866,learnblock2,702.0999999999767,img/planet10_right.png,10,Community 3,NA,TRUE,j,j,NA,NA,NA,NA,6,"1,5,7,13,9,2,12,8,15,14,3,6,10,11,4"
14085,commdev-image-keyboard-response,564,920118,learnblock2,683.2999999999302,img/planet3_left.png,3,Community 3,NA,TRUE,f,f,NA,NA,NA,NA,6,"1,5,7,13,9,2,12,8,15,14,3,6,10,11,4"
14085,commdev-image-keyboard-response,565,921370,learnblock2,558,img/planet9_right.png,9,Community 1,NA,FALSE,f,j,NA,NA,NA,NA,6,"1,5,7,13,9,2,12,8,15,14,3,6,10,11,4"
14085,commdev-image-keyboard-response,566,922621,learnblock2,722.5,img/planet1_left.png,1,Community 1,NA,TRUE,f,f,NA,NA,NA,NA,6,"1,5,7,13,9,2,12,8,15,14,3,6,10,11,4"
14085,commdev-image-keyboard-response,567,923873,learnblock2,518.5,img/planet13_right.png,13,Community 1,NA,TRUE,j,j,NA,NA,NA,NA,6,"1,5,7,13,9,2,12,8,15,14,3,6,10,11,4"
14085,commdev-image-keyboard-response,568,925125,learnblock2,787.0999999999767,img/planet5_right.png,5,Community 1,NA,TRUE,j,j,NA,NA,NA,NA,6,"1,5,7,13,9,2,12,8,15,14,3,6,10,11,4"
14085,commdev-image-keyboard-response,569,926377,learnblock2,670.9000000000233,img/planet1_right.png,1,Community 1,NA,TRUE,j,j,NA,NA,NA,NA,6,"1,5,7,13,9,2,12,8,15,14,3,6,10,11,4"
14085,commdev-image-keyboard-response,570,927629,learnblock2,723.0999999999767,img/planet13_left.png,13,Community 1,NA,TRUE,f,f,NA,NA,NA,NA,6,"1,5,7,13,9,2,12,8,15,14,3,6,10,11,4"
14085,commdev-image-keyboard-response,571,928881,learnblock2,566.8999999999069,img/planet2_left.png,2,Community 2,NA,TRUE,f,f,NA,NA,NA,NA,6,"1,5,7,13,9,2,12,8,15,14,3,6,10,11,4"
14085,commdev-image-keyboard-response,572,930133,learnblock2,602.5,img/planet14_right.png,14,Community 2,NA,TRUE,j,j,NA,NA,NA,NA,6,"1,5,7,13,9,2,12,8,15,14,3,6,10,11,4"
14085,commdev-image-keyboard-response,573,931395,learnblock2,975.6999999999534,img/planet15_left.png,15,Community 2,NA,FALSE,j,f,NA,NA,NA,NA,6,"1,5,7,13,9,2,12,8,15,14,3,6,10,11,4"
14085,commdev-image-keyboard-response,574,932647,learnblock2,977.4000000000233,img/planet8_left.png,8,Community 2,NA,TRUE,f,f,NA,NA,NA,NA,6,"1,5,7,13,9,2,12,8,15,14,3,6,10,11,4"
14085,commdev-image-keyboard-response,575,933899,learnblock2,525.0999999999767,img/planet15_right.png,15,Community 2,NA,FALSE,f,j,NA,NA,NA,NA,6,"1,5,7,13,9,2,12,8,15,14,3,6,10,11,4"
14085,commdev-image-keyboard-response,576,935151,learnblock2,866,img/planet14_left.png,14,Community 2,NA,TRUE,f,f,NA,NA,NA,NA,6,"1,5,7,13,9,2,12,8,15,14,3,6,10,11,4"
14085,commdev-image-keyboard-response,577,936404,learnblock2,589.0999999999767,img/planet8_right.png,8,Community 2,NA,TRUE,j,j,NA,NA,NA,NA,6,"1,5,7,13,9,2,12,8,15,14,3,6,10,11,4"
14085,commdev-image-keyboard-response,578,937666,learnblock2,745.5,img/planet12_right.png,12,Community 2,NA,TRUE,j,j,NA,NA,NA,NA,6,"1,5,7,13,9,2,12,8,15,14,3,6,10,11,4"
14085,commdev-image-keyboard-response,579,938918,learnblock2,762.7000000000698,img/planet8_right.png,8,Community 2,NA,TRUE,j,j,NA,NA,NA,NA,6,"1,5,7,13,9,2,12,8,15,14,3,6,10,11,4"
14085,commdev-image-keyboard-response,580,940170,learnblock2,614.7000000000698,img/planet6_right.png,6,Community 3,NA,TRUE,j,j,NA,NA,NA,NA,6,"1,5,7,13,9,2,12,8,15,14,3,6,10,11,4"
14085,commdev-image-keyboard-response,581,941422,learnblock2,554.4000000000233,img/planet10_left.png,10,Community 3,NA,TRUE,f,f,NA,NA,NA,NA,6,"1,5,7,13,9,2,12,8,15,14,3,6,10,11,4"
14085,commdev-image-keyboard-response,582,942674,learnblock2,710,img/planet3_right.png,3,Community 3,NA,TRUE,j,j,NA,NA,NA,NA,6,"1,5,7,13,9,2,12,8,15,14,3,6,10,11,4"
14085,commdev-image-keyboard-response,583,943926,learnblock2,674.8000000000466,img/planet11_left.png,11,Community 3,NA,TRUE,f,f,NA,NA,NA,NA,6,"1,5,7,13,9,2,12,8,15,14,3,6,10,11,4"
14085,commdev-image-keyboard-response,584,945178,learnblock2,598.7999999999302,img/planet10_right.png,10,Community 3,NA,TRUE,j,j,NA,NA,NA,NA,6,"1,5,7,13,9,2,12,8,15,14,3,6,10,11,4"
