subject_id,trial_type,trial_index,time_elapsed,block,rt,stimulus,planet,community,response,correct,key_press,learning_correct_response,parse,init_locations,final_locations,browser_interactions,num_comp,planet_map
15206,commdev-instructions,7,41017,NA,838.3000000000175,"<p>In this game, you are a scientist on board a space shuttle. </p><p> On each mission, you will visit planets all across the universe.</p><img src=""img/controlroom.jpg"" width=300vw>",NA,NA,NA,NA,NA,NA,NA,NA,NA,1,6,"13,14,1,4,12,5,10,9,8,15,7,6,11,3,2"
15206,commdev-instructions,8,44145,NA,1065.7000000000116,"<p>Here are a few planets you might see:</p><img src=""img/practice1.png"" width=200vw><img src=""img/practice2.png"" width=200vw><img src=""img/practice3.png"" width=200vw>",NA,NA,NA,NA,NA,NA,NA,NA,NA,1,6,"13,14,1,4,12,5,10,9,8,15,7,6,11,3,2"
15206,commdev-instructions,9,52294,NA,755.4000000000233,"<p>Your job as a scientist is to record which direction the winds are moving on each planet.</p><p>There are two types of wind directions:</p><img src=""img/practice1_left.png"" width=200vw><img src=""img/practice1_right.png"" width=200vw>",NA,NA,NA,NA,NA,NA,NA,NA,NA,1,6,"13,14,1,4,12,5,10,9,8,15,7,6,11,3,2"
15206,commdev-instructions,10,57787,NA,617.5,"<p>If the winds are moving this way, press the letter <strong>F</strong> on the keyboard as fast as you can.</p><img src=""img/leftwind.png"" width=250vw>",NA,NA,NA,NA,NA,NA,NA,NA,NA,1,6,"13,14,1,4,12,5,10,9,8,15,7,6,11,3,2"
15206,commdev-instructions,11,62793,NA,522.2999999999884,"<p>If the winds are moving this way, press the letter <strong>J</strong> on the keyboard as fast as you can.</p><img src=""img/rightwind.png"" width=350vw>",NA,NA,NA,NA,NA,NA,NA,NA,NA,1,6,"13,14,1,4,12,5,10,9,8,15,7,6,11,3,2"
15206,commdev-instructions,12,70887,NA,3676.5,<p>You will have 1 second to respond. Try to respond before the time runs out!,NA,NA,NA,NA,NA,NA,NA,NA,NA,1,6,"13,14,1,4,12,5,10,9,8,15,7,6,11,3,2"
15206,commdev-instructions,13,134670,NA,58359,<p>The planets you will visit will look different from each other.</p><p>You should respond <strong>only</strong> based on wind direction.,NA,NA,NA,NA,NA,NA,NA,NA,NA,1,6,"13,14,1,4,12,5,10,9,8,15,7,6,11,3,2"
15206,commdev-instructions,14,142509,NA,2638.3000000000175,"<p> Ready to start the practice round? </p><p> Remember, press <strong>F</strong> or <strong>J</strong> depending on the wind direction.<br><img src=""img/categorize_planet_example.png""",NA,NA,NA,NA,NA,NA,NA,NA,NA,1,6,"13,14,1,4,12,5,10,9,8,15,7,6,11,3,2"
15206,commdev-instructions,26,222023,NA,8110,"<p>Great, now try a short practice mission. </p><p> This time, you will have 1 second to respond and you won't know whether you pressed the right or wrong key for each planet.</p>",NA,NA,NA,NA,NA,NA,NA,NA,NA,1,6,"13,14,1,4,12,5,10,9,8,15,7,6,11,3,2"
15206,commdev-image-keyboard-response,27,223377,practice,null,img/practice2_right.png,NA,Number not found in mappings,NA,FALSE,null,j,NA,NA,NA,1,6,"13,14,1,4,12,5,10,9,8,15,7,6,11,3,2"
15206,commdev-image-keyboard-response,28,224641,practice,null,img/practice3_right.png,NA,Number not found in mappings,NA,FALSE,null,j,NA,NA,NA,1,6,"13,14,1,4,12,5,10,9,8,15,7,6,11,3,2"
15206,commdev-image-keyboard-response,29,225905,practice,127.10000000003492,img/practice4_right.png,NA,Number not found in mappings,NA,FALSE,f,j,NA,NA,NA,1,6,"13,14,1,4,12,5,10,9,8,15,7,6,11,3,2"
15206,commdev-image-keyboard-response,30,227168,practice,440.3999999999651,img/practice2_right.png,NA,Number not found in mappings,NA,TRUE,j,j,NA,NA,NA,1,6,"13,14,1,4,12,5,10,9,8,15,7,6,11,3,2"
15206,commdev-image-keyboard-response,31,228428,practice,94.09999999997672,img/practice3_right.png,NA,Number not found in mappings,NA,FALSE,f,j,NA,NA,NA,1,6,"13,14,1,4,12,5,10,9,8,15,7,6,11,3,2"
15206,commdev-image-keyboard-response,32,229685,practice,737.5,img/practice4_right.png,NA,Number not found in mappings,NA,FALSE,f,j,NA,NA,NA,1,6,"13,14,1,4,12,5,10,9,8,15,7,6,11,3,2"
15206,commdev-image-keyboard-response,33,230943,practice,636.2000000000116,img/practice2_left.png,NA,Number not found in mappings,NA,FALSE,j,f,NA,NA,NA,1,6,"13,14,1,4,12,5,10,9,8,15,7,6,11,3,2"
15206,commdev-image-keyboard-response,34,232207,practice,566.2999999999884,img/practice1_left.png,NA,Number not found in mappings,NA,TRUE,f,f,NA,NA,NA,1,6,"13,14,1,4,12,5,10,9,8,15,7,6,11,3,2"
15206,commdev-instructions,35,251145,NA,9381.099999999977,"<p>Great job with the practice round.</p><p>During real missions, you won't know whether you pressed the right or wrong key for each planet.</p><p>But between missions, we will tell you how you did overall.</p>",NA,NA,NA,NA,NA,NA,NA,NA,NA,1,6,"13,14,1,4,12,5,10,9,8,15,7,6,11,3,2"
15206,commdev-instructions,36,259895,NA,510.30000000004657,<p>Try your best! You will be paid a bonus based on how many correct responses you make!</p><p>Responses that are too slow will not count toward your bonus.</p>,NA,NA,NA,NA,NA,NA,NA,NA,NA,1,6,"13,14,1,4,12,5,10,9,8,15,7,6,11,3,2"
15206,commdev-instructions,37,266568,NA,473,"<p>You are almost ready to start the real game.</p><p> First, we are going to ask you some questions about how the game works.</p>",NA,NA,NA,NA,NA,NA,NA,NA,NA,1,6,"13,14,1,4,12,5,10,9,8,15,7,6,11,3,2"
15206,commdev-instructions,46,351776,NA,6168.5,"<p> Nice work! It is now time to start the real game.<p></p>You will go on two missions to record wind directions of different planets.<p></p>Each one will take about 5 minutes. You will get to take a break between missions.<p><p> Remember, press <strong>F</strong> or <strong>J</strong> depending on the wind direction. Good luck!<br><img src=""img/categorize_planet_example.png""",NA,NA,NA,NA,NA,NA,NA,NA,NA,1,6,"13,14,1,4,12,5,10,9,8,15,7,6,11,3,2"
15206,commdev-image-keyboard-response,48,357081,learnblock1,null,img/planet13_left.png,13,Community 1,NA,FALSE,null,f,NA,NA,NA,1,6,"13,14,1,4,12,5,10,9,8,15,7,6,11,3,2"
15206,commdev-image-keyboard-response,49,358347,learnblock1,106.70000000001164,img/planet14_left.png,14,Community 1,NA,FALSE,j,f,NA,NA,NA,1,6,"13,14,1,4,12,5,10,9,8,15,7,6,11,3,2"
15206,commdev-image-keyboard-response,50,359606,learnblock1,700.3999999999651,img/planet13_right.png,13,Community 1,NA,TRUE,j,j,NA,NA,NA,1,6,"13,14,1,4,12,5,10,9,8,15,7,6,11,3,2"
15206,commdev-image-keyboard-response,51,360865,learnblock1,603.3999999999651,img/planet1_left.png,1,Community 1,NA,TRUE,f,f,NA,NA,NA,1,6,"13,14,1,4,12,5,10,9,8,15,7,6,11,3,2"
15206,commdev-image-keyboard-response,52,362122,learnblock1,543.5,img/planet4_right.png,4,Community 1,NA,TRUE,j,j,NA,NA,NA,1,6,"13,14,1,4,12,5,10,9,8,15,7,6,11,3,2"
15206,commdev-image-keyboard-response,53,363379,learnblock1,784.5999999999767,img/planet13_left.png,13,Community 1,NA,FALSE,j,f,NA,NA,NA,1,6,"13,14,1,4,12,5,10,9,8,15,7,6,11,3,2"
15206,commdev-image-keyboard-response,54,364638,learnblock1,529.5,img/planet1_right.png,1,Community 1,NA,FALSE,f,j,NA,NA,NA,1,6,"13,14,1,4,12,5,10,9,8,15,7,6,11,3,2"
15206,commdev-image-keyboard-response,55,365898,learnblock1,376.5,img/planet13_right.png,13,Community 1,NA,TRUE,j,j,NA,NA,NA,1,6,"13,14,1,4,12,5,10,9,8,15,7,6,11,3,2"
15206,commdev-image-keyboard-response,56,367162,learnblock1,216,img/planet14_right.png,14,Community 1,NA,FALSE,f,j,NA,NA,NA,1,6,"13,14,1,4,12,5,10,9,8,15,7,6,11,3,2"
15206,commdev-image-keyboard-response,57,368424,learnblock1,277.9000000000233,img/planet13_left.png,13,Community 1,NA,FALSE,j,f,NA,NA,NA,1,6,"13,14,1,4,12,5,10,9,8,15,7,6,11,3,2"
15206,commdev-image-keyboard-response,58,369679,learnblock1,446.4000000000233,img/planet14_left.png,14,Community 1,NA,TRUE,f,f,NA,NA,NA,1,6,"13,14,1,4,12,5,10,9,8,15,7,6,11,3,2"
15206,commdev-image-keyboard-response,59,370937,learnblock1,177.69999999995343,img/planet4_left.png,4,Community 1,NA,FALSE,j,f,NA,NA,NA,1,6,"13,14,1,4,12,5,10,9,8,15,7,6,11,3,2"
15206,commdev-image-keyboard-response,60,372198,learnblock1,452.70000000001164,img/planet14_left.png,14,Community 1,NA,TRUE,f,f,NA,NA,NA,1,6,"13,14,1,4,12,5,10,9,8,15,7,6,11,3,2"
15206,commdev-image-keyboard-response,61,373461,learnblock1,334.29999999998836,img/planet13_left.png,13,Community 1,NA,FALSE,j,f,NA,NA,NA,1,6,"13,14,1,4,12,5,10,9,8,15,7,6,11,3,2"
15206,commdev-image-keyboard-response,62,374720,learnblock1,299.5999999999767,img/planet12_left.png,12,Community 1,NA,TRUE,f,f,NA,NA,NA,1,6,"13,14,1,4,12,5,10,9,8,15,7,6,11,3,2"
15206,commdev-image-keyboard-response,63,375971,learnblock1,287.5,img/planet7_right.png,7,Community 3,NA,TRUE,j,j,NA,NA,NA,1,6,"13,14,1,4,12,5,10,9,8,15,7,6,11,3,2"
15206,commdev-image-keyboard-response,64,377222,learnblock1,356,img/planet12_right.png,12,Community 1,NA,FALSE,f,j,NA,NA,NA,1,6,"13,14,1,4,12,5,10,9,8,15,7,6,11,3,2"
15206,commdev-image-keyboard-response,65,378474,learnblock1,523.3999999999651,img/planet14_right.png,14,Community 1,NA,FALSE,f,j,NA,NA,NA,1,6,"13,14,1,4,12,5,10,9,8,15,7,6,11,3,2"
15206,commdev-image-keyboard-response,66,379726,learnblock1,791.7999999999884,img/planet1_left.png,1,Community 1,NA,FALSE,j,f,NA,NA,NA,1,6,"13,14,1,4,12,5,10,9,8,15,7,6,11,3,2"
15206,commdev-image-keyboard-response,67,380981,learnblock1,671,img/planet13_left.png,13,Community 1,NA,FALSE,j,f,NA,NA,NA,1,6,"13,14,1,4,12,5,10,9,8,15,7,6,11,3,2"
15206,commdev-image-keyboard-response,68,382232,learnblock1,791.6000000000349,img/planet12_right.png,12,Community 1,NA,FALSE,f,j,NA,NA,NA,1,6,"13,14,1,4,12,5,10,9,8,15,7,6,11,3,2"
15206,commdev-image-keyboard-response,69,383491,learnblock1,715.7000000000116,img/planet14_left.png,14,Community 1,NA,FALSE,j,f,NA,NA,NA,1,6,"13,14,1,4,12,5,10,9,8,15,7,6,11,3,2"
15206,commdev-image-keyboard-response,70,384743,learnblock1,477.8999999999651,img/planet12_left.png,12,Community 1,NA,TRUE,f,f,NA,NA,NA,1,6,"13,14,1,4,12,5,10,9,8,15,7,6,11,3,2"
15206,commdev-image-keyboard-response,71,386000,learnblock1,321.70000000001164,img/planet7_right.png,7,Community 3,NA,TRUE,j,j,NA,NA,NA,1,6,"13,14,1,4,12,5,10,9,8,15,7,6,11,3,2"
15206,commdev-image-keyboard-response,72,387251,learnblock1,314.5,img/planet12_right.png,12,Community 1,NA,FALSE,f,j,NA,NA,NA,1,6,"13,14,1,4,12,5,10,9,8,15,7,6,11,3,2"
15206,commdev-image-keyboard-response,73,388502,learnblock1,364.70000000001164,img/planet14_left.png,14,Community 1,NA,FALSE,j,f,NA,NA,NA,1,6,"13,14,1,4,12,5,10,9,8,15,7,6,11,3,2"
15206,commdev-image-keyboard-response,74,389754,learnblock1,420.70000000001164,img/planet12_left.png,12,Community 1,NA,TRUE,f,f,NA,NA,NA,1,6,"13,14,1,4,12,5,10,9,8,15,7,6,11,3,2"
15206,commdev-image-keyboard-response,75,391006,learnblock1,311.6000000000349,img/planet1_right.png,1,Community 1,NA,TRUE,j,j,NA,NA,NA,1,6,"13,14,1,4,12,5,10,9,8,15,7,6,11,3,2"
15206,commdev-image-keyboard-response,76,392258,learnblock1,260.5,img/planet14_right.png,14,Community 1,NA,FALSE,f,j,NA,NA,NA,1,6,"13,14,1,4,12,5,10,9,8,15,7,6,11,3,2"
15206,commdev-image-keyboard-response,77,393510,learnblock1,239.39999999996508,img/planet13_right.png,13,Community 1,NA,TRUE,j,j,NA,NA,NA,1,6,"13,14,1,4,12,5,10,9,8,15,7,6,11,3,2"
15206,commdev-image-keyboard-response,78,394761,learnblock1,281.29999999998836,img/planet12_right.png,12,Community 1,NA,FALSE,f,j,NA,NA,NA,1,6,"13,14,1,4,12,5,10,9,8,15,7,6,11,3,2"
15206,commdev-image-keyboard-response,79,396013,learnblock1,340.29999999998836,img/planet7_right.png,7,Community 3,NA,FALSE,f,j,NA,NA,NA,1,6,"13,14,1,4,12,5,10,9,8,15,7,6,11,3,2"
15206,commdev-image-keyboard-response,80,397264,learnblock1,348.20000000001164,img/planet12_left.png,12,Community 1,NA,FALSE,j,f,NA,NA,NA,1,6,"13,14,1,4,12,5,10,9,8,15,7,6,11,3,2"
15206,commdev-image-keyboard-response,81,398516,learnblock1,333.80000000004657,img/planet14_right.png,14,Community 1,NA,FALSE,f,j,NA,NA,NA,1,6,"13,14,1,4,12,5,10,9,8,15,7,6,11,3,2"
15206,commdev-image-keyboard-response,82,399768,learnblock1,307.5,img/planet13_right.png,13,Community 1,NA,TRUE,j,j,NA,NA,NA,1,6,"13,14,1,4,12,5,10,9,8,15,7,6,11,3,2"
15206,commdev-image-keyboard-response,83,401020,learnblock1,268.30000000004657,img/planet4_right.png,4,Community 1,NA,FALSE,f,j,NA,NA,NA,1,6,"13,14,1,4,12,5,10,9,8,15,7,6,11,3,2"
15206,commdev-image-keyboard-response,84,402272,learnblock1,272.30000000004657,img/planet14_right.png,14,Community 1,NA,TRUE,j,j,NA,NA,NA,1,6,"13,14,1,4,12,5,10,9,8,15,7,6,11,3,2"
15206,commdev-image-keyboard-response,85,403524,learnblock1,339.20000000001164,img/planet13_left.png,13,Community 1,NA,FALSE,j,f,NA,NA,NA,1,6,"13,14,1,4,12,5,10,9,8,15,7,6,11,3,2"
15206,commdev-image-keyboard-response,86,404776,learnblock1,300.20000000001164,img/planet1_left.png,1,Community 1,NA,TRUE,f,f,NA,NA,NA,1,6,"13,14,1,4,12,5,10,9,8,15,7,6,11,3,2"
15206,commdev-image-keyboard-response,87,406028,learnblock1,323.20000000001164,img/planet13_right.png,13,Community 1,NA,TRUE,j,j,NA,NA,NA,1,6,"13,14,1,4,12,5,10,9,8,15,7,6,11,3,2"
15206,commdev-image-keyboard-response,88,407280,learnblock1,287.80000000004657,img/planet12_left.png,12,Community 1,NA,TRUE,f,f,NA,NA,NA,1,6,"13,14,1,4,12,5,10,9,8,15,7,6,11,3,2"
15206,commdev-image-keyboard-response,89,408532,learnblock1,395.20000000001164,img/planet1_left.png,1,Community 1,NA,FALSE,j,f,NA,NA,NA,1,6,"13,14,1,4,12,5,10,9,8,15,7,6,11,3,2"
15206,commdev-image-keyboard-response,90,409794,learnblock1,317,img/planet13_left.png,13,Community 1,NA,TRUE,f,f,NA,NA,NA,1,6,"13,14,1,4,12,5,10,9,8,15,7,6,11,3,2"
15206,commdev-image-keyboard-response,91,411046,learnblock1,411.79999999998836,img/planet1_left.png,1,Community 1,NA,TRUE,f,f,NA,NA,NA,1,6,"13,14,1,4,12,5,10,9,8,15,7,6,11,3,2"
15206,commdev-image-keyboard-response,92,412297,learnblock1,341.30000000004657,img/planet4_left.png,4,Community 1,NA,FALSE,j,f,NA,NA,NA,1,6,"13,14,1,4,12,5,10,9,8,15,7,6,11,3,2"
15206,commdev-image-keyboard-response,93,413549,learnblock1,347,img/planet5_right.png,5,Community 2,NA,TRUE,j,j,NA,NA,NA,1,6,"13,14,1,4,12,5,10,9,8,15,7,6,11,3,2"
15206,commdev-image-keyboard-response,94,414801,learnblock1,331.79999999998836,img/planet10_left.png,10,Community 2,NA,FALSE,j,f,NA,NA,NA,1,6,"13,14,1,4,12,5,10,9,8,15,7,6,11,3,2"
15206,commdev-image-keyboard-response,95,416053,learnblock1,393.29999999998836,img/planet8_left.png,8,Community 2,NA,TRUE,f,f,NA,NA,NA,1,6,"13,14,1,4,12,5,10,9,8,15,7,6,11,3,2"
15206,commdev-image-keyboard-response,96,417304,learnblock1,356.9000000000233,img/planet15_left.png,15,Community 2,NA,FALSE,j,f,NA,NA,NA,1,6,"13,14,1,4,12,5,10,9,8,15,7,6,11,3,2"
15206,commdev-image-keyboard-response,97,418555,learnblock1,396.9000000000233,img/planet9_right.png,9,Community 2,NA,FALSE,f,j,NA,NA,NA,1,6,"13,14,1,4,12,5,10,9,8,15,7,6,11,3,2"
15206,commdev-image-keyboard-response,98,419807,learnblock1,338.9000000000233,img/planet8_left.png,8,Community 2,NA,FALSE,j,f,NA,NA,NA,1,6,"13,14,1,4,12,5,10,9,8,15,7,6,11,3,2"
15206,commdev-image-keyboard-response,99,421059,learnblock1,362.79999999998836,img/planet5_right.png,5,Community 2,NA,TRUE,j,j,NA,NA,NA,1,6,"13,14,1,4,12,5,10,9,8,15,7,6,11,3,2"
15206,commdev-image-keyboard-response,100,422310,learnblock1,240.90000000002328,img/planet8_right.png,8,Community 2,NA,FALSE,f,j,NA,NA,NA,1,6,"13,14,1,4,12,5,10,9,8,15,7,6,11,3,2"
15206,commdev-image-keyboard-response,101,423561,learnblock1,252.90000000002328,img/planet10_left.png,10,Community 2,NA,FALSE,j,f,NA,NA,NA,1,6,"13,14,1,4,12,5,10,9,8,15,7,6,11,3,2"
15206,commdev-image-keyboard-response,102,424812,learnblock1,309.20000000001164,img/planet9_left.png,9,Community 2,NA,TRUE,f,f,NA,NA,NA,1,6,"13,14,1,4,12,5,10,9,8,15,7,6,11,3,2"
15206,commdev-image-keyboard-response,103,426064,learnblock1,314.20000000001164,img/planet15_left.png,15,Community 2,NA,FALSE,j,f,NA,NA,NA,1,6,"13,14,1,4,12,5,10,9,8,15,7,6,11,3,2"
15206,commdev-image-keyboard-response,104,427315,learnblock1,312,img/planet10_left.png,10,Community 2,NA,TRUE,f,f,NA,NA,NA,1,6,"13,14,1,4,12,5,10,9,8,15,7,6,11,3,2"
15206,commdev-image-keyboard-response,105,428566,learnblock1,579,img/planet5_left.png,5,Community 2,NA,TRUE,f,f,NA,NA,NA,1,6,"13,14,1,4,12,5,10,9,8,15,7,6,11,3,2"
15206,commdev-image-keyboard-response,106,429817,learnblock1,474,img/planet4_right.png,4,Community 1,NA,TRUE,j,j,NA,NA,NA,1,6,"13,14,1,4,12,5,10,9,8,15,7,6,11,3,2"
15206,commdev-image-keyboard-response,107,431069,learnblock1,844.2999999999302,img/planet1_left.png,1,Community 1,NA,TRUE,f,f,NA,NA,NA,1,6,"13,14,1,4,12,5,10,9,8,15,7,6,11,3,2"
15206,commdev-image-keyboard-response,108,432320,learnblock1,597.5,img/planet12_right.png,12,Community 1,NA,TRUE,j,j,NA,NA,NA,1,6,"13,14,1,4,12,5,10,9,8,15,7,6,11,3,2"
15206,commdev-image-keyboard-response,109,433571,learnblock1,369.79999999993015,img/planet1_left.png,1,Community 1,NA,TRUE,f,f,NA,NA,NA,1,6,"13,14,1,4,12,5,10,9,8,15,7,6,11,3,2"
15206,commdev-image-keyboard-response,110,434823,learnblock1,614,img/planet14_right.png,14,Community 1,NA,TRUE,j,j,NA,NA,NA,1,6,"13,14,1,4,12,5,10,9,8,15,7,6,11,3,2"
15206,commdev-image-keyboard-response,111,436087,learnblock1,423.79999999993015,img/planet4_right.png,4,Community 1,NA,FALSE,f,j,NA,NA,NA,1,6,"13,14,1,4,12,5,10,9,8,15,7,6,11,3,2"
15206,commdev-image-keyboard-response,112,437338,learnblock1,566.8999999999069,img/planet1_right.png,1,Community 1,NA,TRUE,j,j,NA,NA,NA,1,6,"13,14,1,4,12,5,10,9,8,15,7,6,11,3,2"
15206,commdev-image-keyboard-response,113,438590,learnblock1,650.5999999999767,img/planet4_right.png,4,Community 1,NA,TRUE,j,j,NA,NA,NA,1,6,"13,14,1,4,12,5,10,9,8,15,7,6,11,3,2"
15206,commdev-image-keyboard-response,114,439841,learnblock1,683.9000000000233,img/planet1_left.png,1,Community 1,NA,TRUE,f,f,NA,NA,NA,1,6,"13,14,1,4,12,5,10,9,8,15,7,6,11,3,2"
15206,commdev-image-keyboard-response,115,441093,learnblock1,1160.6999999999534,img/planet4_right.png,4,Community 1,NA,FALSE,f,j,NA,NA,NA,1,6,"13,14,1,4,12,5,10,9,8,15,7,6,11,3,2"
15206,commdev-image-keyboard-response,116,442345,learnblock1,561.6999999999534,img/planet13_right.png,13,Community 1,NA,TRUE,j,j,NA,NA,NA,1,6,"13,14,1,4,12,5,10,9,8,15,7,6,11,3,2"
15206,commdev-image-keyboard-response,117,443597,learnblock1,302.80000000004657,img/planet12_right.png,12,Community 1,NA,FALSE,f,j,NA,NA,NA,1,6,"13,14,1,4,12,5,10,9,8,15,7,6,11,3,2"
15206,commdev-image-keyboard-response,118,444848,learnblock1,464.5,img/planet1_right.png,1,Community 1,NA,TRUE,j,j,NA,NA,NA,1,6,"13,14,1,4,12,5,10,9,8,15,7,6,11,3,2"
15206,commdev-image-keyboard-response,119,446100,learnblock1,319.80000000004657,img/planet12_right.png,12,Community 1,NA,FALSE,f,j,NA,NA,NA,1,6,"13,14,1,4,12,5,10,9,8,15,7,6,11,3,2"
15206,commdev-image-keyboard-response,120,447351,learnblock1,442.5999999999767,img/planet14_right.png,14,Community 1,NA,TRUE,j,j,NA,NA,NA,1,6,"13,14,1,4,12,5,10,9,8,15,7,6,11,3,2"
15206,commdev-image-keyboard-response,121,448603,learnblock1,284.5999999999767,img/planet1_left.png,1,Community 1,NA,TRUE,f,f,NA,NA,NA,1,6,"13,14,1,4,12,5,10,9,8,15,7,6,11,3,2"
15206,commdev-image-keyboard-response,122,449854,learnblock1,254.39999999990687,img/planet14_left.png,14,Community 1,NA,FALSE,j,f,NA,NA,NA,1,6,"13,14,1,4,12,5,10,9,8,15,7,6,11,3,2"
15206,commdev-image-keyboard-response,123,451106,learnblock1,288.5999999999767,img/planet4_left.png,4,Community 1,NA,TRUE,f,f,NA,NA,NA,1,6,"13,14,1,4,12,5,10,9,8,15,7,6,11,3,2"
15206,commdev-image-keyboard-response,124,452358,learnblock1,588.5,img/planet13_right.png,13,Community 1,NA,TRUE,j,j,NA,NA,NA,1,6,"13,14,1,4,12,5,10,9,8,15,7,6,11,3,2"
15206,commdev-image-keyboard-response,125,453610,learnblock1,529.6000000000931,img/planet4_right.png,4,Community 1,NA,TRUE,j,j,NA,NA,NA,1,6,"13,14,1,4,12,5,10,9,8,15,7,6,11,3,2"
15206,commdev-image-keyboard-response,126,454862,learnblock1,403,img/planet14_right.png,14,Community 1,NA,TRUE,j,j,NA,NA,NA,1,6,"13,14,1,4,12,5,10,9,8,15,7,6,11,3,2"
15206,commdev-image-keyboard-response,127,456114,learnblock1,746.2999999999302,img/planet12_right.png,12,Community 1,NA,TRUE,j,j,NA,NA,NA,1,6,"13,14,1,4,12,5,10,9,8,15,7,6,11,3,2"
15206,commdev-image-keyboard-response,128,457366,learnblock1,650.3999999999069,img/planet1_right.png,1,Community 1,NA,TRUE,j,j,NA,NA,NA,1,6,"13,14,1,4,12,5,10,9,8,15,7,6,11,3,2"
15206,commdev-image-keyboard-response,129,458618,learnblock1,673.3999999999069,img/planet12_right.png,12,Community 1,NA,TRUE,j,j,NA,NA,NA,1,6,"13,14,1,4,12,5,10,9,8,15,7,6,11,3,2"
15206,commdev-image-keyboard-response,130,459870,learnblock1,618.5999999999767,img/planet14_right.png,14,Community 1,NA,TRUE,j,j,NA,NA,NA,1,6,"13,14,1,4,12,5,10,9,8,15,7,6,11,3,2"
15206,commdev-image-keyboard-response,131,461121,learnblock1,632.8000000000466,img/planet13_right.png,13,Community 1,NA,FALSE,f,j,NA,NA,NA,1,6,"13,14,1,4,12,5,10,9,8,15,7,6,11,3,2"
15206,commdev-image-keyboard-response,132,462373,learnblock1,330.4000000000233,img/planet12_left.png,12,Community 1,NA,FALSE,j,f,NA,NA,NA,1,6,"13,14,1,4,12,5,10,9,8,15,7,6,11,3,2"
15206,commdev-image-keyboard-response,133,463625,learnblock1,322,img/planet1_left.png,1,Community 1,NA,TRUE,f,f,NA,NA,NA,1,6,"13,14,1,4,12,5,10,9,8,15,7,6,11,3,2"
15206,commdev-image-keyboard-response,134,464876,learnblock1,301.19999999995343,img/planet4_left.png,4,Community 1,NA,TRUE,f,f,NA,NA,NA,1,6,"13,14,1,4,12,5,10,9,8,15,7,6,11,3,2"
15206,commdev-image-keyboard-response,135,466128,learnblock1,494.69999999995343,img/planet5_left.png,5,Community 2,NA,FALSE,j,f,NA,NA,NA,1,6,"13,14,1,4,12,5,10,9,8,15,7,6,11,3,2"
15206,commdev-image-keyboard-response,136,467379,learnblock1,286.29999999993015,img/planet8_left.png,8,Community 2,NA,TRUE,f,f,NA,NA,NA,1,6,"13,14,1,4,12,5,10,9,8,15,7,6,11,3,2"
15206,commdev-image-keyboard-response,137,468630,learnblock1,284.9000000000233,img/planet5_left.png,5,Community 2,NA,TRUE,f,f,NA,NA,NA,1,6,"13,14,1,4,12,5,10,9,8,15,7,6,11,3,2"
15206,commdev-image-keyboard-response,138,469895,learnblock1,479.0999999999767,img/planet4_left.png,4,Community 1,NA,TRUE,f,f,NA,NA,NA,1,6,"13,14,1,4,12,5,10,9,8,15,7,6,11,3,2"
15206,commdev-image-keyboard-response,139,471146,learnblock1,504.70000000006985,img/planet1_right.png,1,Community 1,NA,FALSE,f,j,NA,NA,NA,1,6,"13,14,1,4,12,5,10,9,8,15,7,6,11,3,2"
15206,commdev-image-keyboard-response,140,472398,learnblock1,238.09999999997672,img/planet12_right.png,12,Community 1,NA,TRUE,j,j,NA,NA,NA,1,6,"13,14,1,4,12,5,10,9,8,15,7,6,11,3,2"
15206,commdev-image-keyboard-response,141,473652,learnblock1,561.9000000000233,img/planet7_left.png,7,Community 3,NA,FALSE,j,f,NA,NA,NA,1,6,"13,14,1,4,12,5,10,9,8,15,7,6,11,3,2"
15206,commdev-image-keyboard-response,142,474911,learnblock1,445.60000000009313,img/planet12_right.png,12,Community 1,NA,TRUE,j,j,NA,NA,NA,1,6,"13,14,1,4,12,5,10,9,8,15,7,6,11,3,2"
15206,commdev-image-keyboard-response,143,476163,learnblock1,575.0999999999767,img/planet7_left.png,7,Community 3,NA,FALSE,j,f,NA,NA,NA,1,6,"13,14,1,4,12,5,10,9,8,15,7,6,11,3,2"
15206,commdev-image-keyboard-response,144,477415,learnblock1,579.8999999999069,img/planet11_left.png,11,Community 3,NA,TRUE,f,f,NA,NA,NA,1,6,"13,14,1,4,12,5,10,9,8,15,7,6,11,3,2"
15206,commdev-image-keyboard-response,145,478667,learnblock1,null,img/planet6_right.png,6,Community 3,NA,FALSE,null,j,NA,NA,NA,1,6,"13,14,1,4,12,5,10,9,8,15,7,6,11,3,2"
15206,commdev-image-keyboard-response,146,479921,learnblock1,210.90000000002328,img/planet2_left.png,2,Community 3,NA,FALSE,j,f,NA,NA,NA,1,6,"13,14,1,4,12,5,10,9,8,15,7,6,11,3,2"
15206,commdev-image-keyboard-response,147,481172,learnblock1,226.79999999993015,img/planet6_right.png,6,Community 3,NA,FALSE,f,j,NA,NA,NA,1,6,"13,14,1,4,12,5,10,9,8,15,7,6,11,3,2"
15206,commdev-image-keyboard-response,148,482423,learnblock1,165.70000000006985,img/planet3_right.png,3,Community 3,NA,TRUE,j,j,NA,NA,NA,1,6,"13,14,1,4,12,5,10,9,8,15,7,6,11,3,2"
15206,commdev-image-keyboard-response,149,483675,learnblock1,287.79999999993015,img/planet11_left.png,11,Community 3,NA,FALSE,j,f,NA,NA,NA,1,6,"13,14,1,4,12,5,10,9,8,15,7,6,11,3,2"
15206,commdev-image-keyboard-response,150,484926,learnblock1,235.69999999995343,img/planet2_left.png,2,Community 3,NA,TRUE,f,f,NA,NA,NA,1,6,"13,14,1,4,12,5,10,9,8,15,7,6,11,3,2"
15206,commdev-image-keyboard-response,151,486177,learnblock1,316.69999999995343,img/planet11_left.png,11,Community 3,NA,FALSE,j,f,NA,NA,NA,1,6,"13,14,1,4,12,5,10,9,8,15,7,6,11,3,2"
15206,commdev-image-keyboard-response,152,487429,learnblock1,234.09999999997672,img/planet2_right.png,2,Community 3,NA,FALSE,f,j,NA,NA,NA,1,6,"13,14,1,4,12,5,10,9,8,15,7,6,11,3,2"
15206,commdev-image-keyboard-response,153,488681,learnblock1,250.59999999997672,img/planet6_left.png,6,Community 3,NA,FALSE,j,f,NA,NA,NA,1,6,"13,14,1,4,12,5,10,9,8,15,7,6,11,3,2"
15206,commdev-image-keyboard-response,154,489933,learnblock1,255.59999999997672,img/planet11_right.png,11,Community 3,NA,FALSE,f,j,NA,NA,NA,1,6,"13,14,1,4,12,5,10,9,8,15,7,6,11,3,2"
15206,commdev-image-keyboard-response,155,491184,learnblock1,278.5,img/planet3_right.png,3,Community 3,NA,TRUE,j,j,NA,NA,NA,1,6,"13,14,1,4,12,5,10,9,8,15,7,6,11,3,2"
15206,commdev-image-keyboard-response,156,492435,learnblock1,293.29999999993015,img/planet7_left.png,7,Community 3,NA,TRUE,f,f,NA,NA,NA,1,6,"13,14,1,4,12,5,10,9,8,15,7,6,11,3,2"
15206,commdev-image-keyboard-response,157,493686,learnblock1,258.5,img/planet2_left.png,2,Community 3,NA,FALSE,j,f,NA,NA,NA,1,6,"13,14,1,4,12,5,10,9,8,15,7,6,11,3,2"
15206,commdev-image-keyboard-response,158,494938,learnblock1,258.4000000000233,img/planet7_left.png,7,Community 3,NA,TRUE,f,f,NA,NA,NA,1,6,"13,14,1,4,12,5,10,9,8,15,7,6,11,3,2"
15206,commdev-image-keyboard-response,159,496189,learnblock1,288.5999999999767,img/planet3_left.png,3,Community 3,NA,FALSE,j,f,NA,NA,NA,1,6,"13,14,1,4,12,5,10,9,8,15,7,6,11,3,2"
15206,commdev-image-keyboard-response,160,497440,learnblock1,287.5,img/planet6_right.png,6,Community 3,NA,FALSE,f,j,NA,NA,NA,1,6,"13,14,1,4,12,5,10,9,8,15,7,6,11,3,2"
15206,commdev-image-keyboard-response,161,498692,learnblock1,286.4000000000233,img/planet9_right.png,9,Community 2,NA,TRUE,j,j,NA,NA,NA,1,6,"13,14,1,4,12,5,10,9,8,15,7,6,11,3,2"
15206,commdev-image-keyboard-response,162,499944,learnblock1,272.5,img/planet15_left.png,15,Community 2,NA,TRUE,f,f,NA,NA,NA,1,6,"13,14,1,4,12,5,10,9,8,15,7,6,11,3,2"
15206,commdev-image-keyboard-response,163,501195,learnblock1,264.89999999990687,img/planet8_left.png,8,Community 2,NA,TRUE,f,f,NA,NA,NA,1,6,"13,14,1,4,12,5,10,9,8,15,7,6,11,3,2"
15206,commdev-image-keyboard-response,164,502446,learnblock1,348.19999999995343,img/planet5_right.png,5,Community 2,NA,TRUE,j,j,NA,NA,NA,1,6,"13,14,1,4,12,5,10,9,8,15,7,6,11,3,2"
15206,commdev-image-keyboard-response,165,503698,learnblock1,293.30000000004657,img/planet8_right.png,8,Community 2,NA,FALSE,f,j,NA,NA,NA,1,6,"13,14,1,4,12,5,10,9,8,15,7,6,11,3,2"
15206,commdev-image-keyboard-response,166,504950,learnblock1,248.29999999993015,img/planet5_right.png,5,Community 2,NA,TRUE,j,j,NA,NA,NA,1,6,"13,14,1,4,12,5,10,9,8,15,7,6,11,3,2"
15206,commdev-image-keyboard-response,167,506201,learnblock1,340.5999999999767,img/planet8_left.png,8,Community 2,NA,TRUE,f,f,NA,NA,NA,1,6,"13,14,1,4,12,5,10,9,8,15,7,6,11,3,2"
15206,commdev-image-keyboard-response,168,507452,learnblock1,263.80000000004657,img/planet9_left.png,9,Community 2,NA,FALSE,j,f,NA,NA,NA,1,6,"13,14,1,4,12,5,10,9,8,15,7,6,11,3,2"
15206,commdev-image-keyboard-response,169,508704,learnblock1,218.59999999997672,img/planet6_left.png,6,Community 3,NA,TRUE,f,f,NA,NA,NA,1,6,"13,14,1,4,12,5,10,9,8,15,7,6,11,3,2"
15206,commdev-image-keyboard-response,170,509955,learnblock1,393,img/planet2_right.png,2,Community 3,NA,TRUE,j,j,NA,NA,NA,1,6,"13,14,1,4,12,5,10,9,8,15,7,6,11,3,2"
15206,commdev-image-keyboard-response,171,511206,learnblock1,335,img/planet11_right.png,11,Community 3,NA,FALSE,f,j,NA,NA,NA,1,6,"13,14,1,4,12,5,10,9,8,15,7,6,11,3,2"
15206,commdev-image-keyboard-response,172,512457,learnblock1,315.79999999993015,img/planet7_left.png,7,Community 3,NA,FALSE,j,f,NA,NA,NA,1,6,"13,14,1,4,12,5,10,9,8,15,7,6,11,3,2"
15206,commdev-image-keyboard-response,173,513708,learnblock1,279.5999999999767,img/planet12_left.png,12,Community 1,NA,TRUE,f,f,NA,NA,NA,1,6,"13,14,1,4,12,5,10,9,8,15,7,6,11,3,2"
15206,commdev-image-keyboard-response,174,514968,learnblock1,269.79999999993015,img/planet7_left.png,7,Community 3,NA,TRUE,f,f,NA,NA,NA,1,6,"13,14,1,4,12,5,10,9,8,15,7,6,11,3,2"
15206,commdev-image-keyboard-response,175,516219,learnblock1,259.5999999999767,img/planet12_right.png,12,Community 1,NA,FALSE,f,j,NA,NA,NA,1,6,"13,14,1,4,12,5,10,9,8,15,7,6,11,3,2"
15206,commdev-image-keyboard-response,176,517470,learnblock1,252.69999999995343,img/planet13_right.png,13,Community 1,NA,FALSE,f,j,NA,NA,NA,1,6,"13,14,1,4,12,5,10,9,8,15,7,6,11,3,2"
15206,commdev-image-keyboard-response,177,518727,learnblock1,277.9000000000233,img/planet1_right.png,1,Community 1,NA,FALSE,f,j,NA,NA,NA,1,6,"13,14,1,4,12,5,10,9,8,15,7,6,11,3,2"
15206,commdev-image-keyboard-response,178,519979,learnblock1,270.5999999999767,img/planet12_left.png,12,Community 1,NA,FALSE,j,f,NA,NA,NA,1,6,"13,14,1,4,12,5,10,9,8,15,7,6,11,3,2"
15206,commdev-image-keyboard-response,179,521230,learnblock1,331.5999999999767,img/planet1_right.png,1,Community 1,NA,TRUE,j,j,NA,NA,NA,1,6,"13,14,1,4,12,5,10,9,8,15,7,6,11,3,2"
15206,commdev-image-keyboard-response,180,522481,learnblock1,286.69999999995343,img/planet12_left.png,12,Community 1,NA,TRUE,f,f,NA,NA,NA,1,6,"13,14,1,4,12,5,10,9,8,15,7,6,11,3,2"
15206,commdev-image-keyboard-response,181,523733,learnblock1,241.5,img/planet14_right.png,14,Community 1,NA,TRUE,j,j,NA,NA,NA,1,6,"13,14,1,4,12,5,10,9,8,15,7,6,11,3,2"
15206,commdev-image-keyboard-response,182,524984,learnblock1,167,img/planet13_right.png,13,Community 1,NA,FALSE,f,j,NA,NA,NA,1,6,"13,14,1,4,12,5,10,9,8,15,7,6,11,3,2"
15206,commdev-image-keyboard-response,183,526235,learnblock1,276.29999999993015,img/planet1_left.png,1,Community 1,NA,FALSE,j,f,NA,NA,NA,1,6,"13,14,1,4,12,5,10,9,8,15,7,6,11,3,2"
15206,commdev-image-keyboard-response,184,527487,learnblock1,307.4000000000233,img/planet13_right.png,13,Community 1,NA,FALSE,f,j,NA,NA,NA,1,6,"13,14,1,4,12,5,10,9,8,15,7,6,11,3,2"
15206,commdev-image-keyboard-response,185,528739,learnblock1,186.69999999995343,img/planet12_left.png,12,Community 1,NA,FALSE,j,f,NA,NA,NA,1,6,"13,14,1,4,12,5,10,9,8,15,7,6,11,3,2"
15206,commdev-image-keyboard-response,186,529992,learnblock1,190.5,img/planet13_right.png,13,Community 1,NA,TRUE,j,j,NA,NA,NA,1,6,"13,14,1,4,12,5,10,9,8,15,7,6,11,3,2"
15206,commdev-image-keyboard-response,187,531243,learnblock1,433,img/planet12_left.png,12,Community 1,NA,FALSE,j,f,NA,NA,NA,1,6,"13,14,1,4,12,5,10,9,8,15,7,6,11,3,2"
15206,commdev-image-keyboard-response,188,532494,learnblock1,281.5,img/planet13_left.png,13,Community 1,NA,TRUE,f,f,NA,NA,NA,1,6,"13,14,1,4,12,5,10,9,8,15,7,6,11,3,2"
15206,commdev-image-keyboard-response,189,533746,learnblock1,449.5999999999767,img/planet12_right.png,12,Community 1,NA,TRUE,j,j,NA,NA,NA,1,6,"13,14,1,4,12,5,10,9,8,15,7,6,11,3,2"
15206,commdev-image-keyboard-response,190,534997,learnblock1,356.0999999999767,img/planet13_left.png,13,Community 1,NA,FALSE,j,f,NA,NA,NA,1,6,"13,14,1,4,12,5,10,9,8,15,7,6,11,3,2"
15206,commdev-image-keyboard-response,191,536249,learnblock1,177.59999999997672,img/planet14_left.png,14,Community 1,NA,TRUE,f,f,NA,NA,NA,1,6,"13,14,1,4,12,5,10,9,8,15,7,6,11,3,2"
15206,commdev-image-keyboard-response,192,537501,learnblock1,206.40000000002328,img/planet4_left.png,4,Community 1,NA,FALSE,j,f,NA,NA,NA,1,6,"13,14,1,4,12,5,10,9,8,15,7,6,11,3,2"
15206,commdev-image-keyboard-response,193,538753,learnblock1,280.4000000000233,img/planet1_right.png,1,Community 1,NA,FALSE,f,j,NA,NA,NA,1,6,"13,14,1,4,12,5,10,9,8,15,7,6,11,3,2"
15206,commdev-image-keyboard-response,194,540004,learnblock1,303.0999999999767,img/planet12_left.png,12,Community 1,NA,FALSE,j,f,NA,NA,NA,1,6,"13,14,1,4,12,5,10,9,8,15,7,6,11,3,2"
15206,commdev-image-keyboard-response,195,541255,learnblock1,252.5,img/planet13_right.png,13,Community 1,NA,FALSE,f,j,NA,NA,NA,1,6,"13,14,1,4,12,5,10,9,8,15,7,6,11,3,2"
15206,commdev-image-keyboard-response,196,542507,learnblock1,270.5999999999767,img/planet12_right.png,12,Community 1,NA,TRUE,j,j,NA,NA,NA,1,6,"13,14,1,4,12,5,10,9,8,15,7,6,11,3,2"
15206,commdev-image-keyboard-response,197,543758,learnblock1,117.30000000004657,img/planet14_right.png,14,Community 1,NA,FALSE,f,j,NA,NA,NA,1,6,"13,14,1,4,12,5,10,9,8,15,7,6,11,3,2"
15206,commdev-image-keyboard-response,198,545010,learnblock1,267.4000000000233,img/planet4_right.png,4,Community 1,NA,TRUE,j,j,NA,NA,NA,1,6,"13,14,1,4,12,5,10,9,8,15,7,6,11,3,2"
15206,commdev-image-keyboard-response,199,546261,learnblock1,175.09999999997672,img/planet13_right.png,13,Community 1,NA,FALSE,f,j,NA,NA,NA,1,6,"13,14,1,4,12,5,10,9,8,15,7,6,11,3,2"
15206,commdev-image-keyboard-response,200,547513,learnblock1,473,img/planet1_left.png,1,Community 1,NA,FALSE,j,f,NA,NA,NA,1,6,"13,14,1,4,12,5,10,9,8,15,7,6,11,3,2"
15206,commdev-image-keyboard-response,201,548764,learnblock1,308.30000000004657,img/planet4_right.png,4,Community 1,NA,FALSE,f,j,NA,NA,NA,1,6,"13,14,1,4,12,5,10,9,8,15,7,6,11,3,2"
15206,commdev-image-keyboard-response,202,550030,learnblock1,414.0999999999767,img/planet5_right.png,5,Community 2,NA,TRUE,j,j,NA,NA,NA,1,6,"13,14,1,4,12,5,10,9,8,15,7,6,11,3,2"
15206,commdev-image-keyboard-response,203,551281,learnblock1,291.0999999999767,img/planet10_right.png,10,Community 2,NA,FALSE,f,j,NA,NA,NA,1,6,"13,14,1,4,12,5,10,9,8,15,7,6,11,3,2"
15206,commdev-image-keyboard-response,204,552533,learnblock1,291.0999999999767,img/planet5_right.png,5,Community 2,NA,TRUE,j,j,NA,NA,NA,1,6,"13,14,1,4,12,5,10,9,8,15,7,6,11,3,2"
15206,commdev-image-keyboard-response,205,553785,learnblock1,207.59999999997672,img/planet8_left.png,8,Community 2,NA,TRUE,f,f,NA,NA,NA,1,6,"13,14,1,4,12,5,10,9,8,15,7,6,11,3,2"
15206,commdev-image-keyboard-response,206,555037,learnblock1,281.0999999999767,img/planet5_left.png,5,Community 2,NA,FALSE,j,f,NA,NA,NA,1,6,"13,14,1,4,12,5,10,9,8,15,7,6,11,3,2"
15206,commdev-image-keyboard-response,207,556288,learnblock1,313.19999999995343,img/planet15_right.png,15,Community 2,NA,FALSE,f,j,NA,NA,NA,1,6,"13,14,1,4,12,5,10,9,8,15,7,6,11,3,2"
15206,commdev-image-keyboard-response,208,557539,learnblock1,316,img/planet10_left.png,10,Community 2,NA,FALSE,j,f,NA,NA,NA,1,6,"13,14,1,4,12,5,10,9,8,15,7,6,11,3,2"
15206,commdev-image-keyboard-response,209,558790,learnblock1,346.0999999999767,img/planet5_right.png,5,Community 2,NA,FALSE,f,j,NA,NA,NA,1,6,"13,14,1,4,12,5,10,9,8,15,7,6,11,3,2"
15206,commdev-image-keyboard-response,210,560042,learnblock1,339,img/planet4_left.png,4,Community 1,NA,FALSE,j,f,NA,NA,NA,1,6,"13,14,1,4,12,5,10,9,8,15,7,6,11,3,2"
15206,commdev-image-keyboard-response,211,561293,learnblock1,350.19999999995343,img/planet1_left.png,1,Community 1,NA,TRUE,f,f,NA,NA,NA,1,6,"13,14,1,4,12,5,10,9,8,15,7,6,11,3,2"
15206,commdev-image-keyboard-response,212,562544,learnblock1,286.5,img/planet14_right.png,14,Community 1,NA,TRUE,j,j,NA,NA,NA,1,6,"13,14,1,4,12,5,10,9,8,15,7,6,11,3,2"
15206,commdev-image-keyboard-response,213,563795,learnblock1,511,img/planet13_left.png,13,Community 1,NA,FALSE,j,f,NA,NA,NA,1,6,"13,14,1,4,12,5,10,9,8,15,7,6,11,3,2"
15206,commdev-image-keyboard-response,214,565047,learnblock1,454,img/planet1_right.png,1,Community 1,NA,FALSE,f,j,NA,NA,NA,1,6,"13,14,1,4,12,5,10,9,8,15,7,6,11,3,2"
15206,commdev-image-keyboard-response,215,566298,learnblock1,862.8000000000466,img/planet12_right.png,12,Community 1,NA,FALSE,f,j,NA,NA,NA,1,6,"13,14,1,4,12,5,10,9,8,15,7,6,11,3,2"
15206,commdev-image-keyboard-response,216,567549,learnblock1,494.80000000004657,img/planet1_right.png,1,Community 1,NA,TRUE,j,j,NA,NA,NA,1,6,"13,14,1,4,12,5,10,9,8,15,7,6,11,3,2"
15206,commdev-image-keyboard-response,217,568800,learnblock1,355.70000000006985,img/planet12_left.png,12,Community 1,NA,TRUE,f,f,NA,NA,NA,1,6,"13,14,1,4,12,5,10,9,8,15,7,6,11,3,2"
15206,commdev-image-keyboard-response,218,570051,learnblock1,267,img/planet14_right.png,14,Community 1,NA,TRUE,j,j,NA,NA,NA,1,6,"13,14,1,4,12,5,10,9,8,15,7,6,11,3,2"
15206,commdev-image-keyboard-response,219,571302,learnblock1,284.9000000000233,img/planet1_right.png,1,Community 1,NA,TRUE,j,j,NA,NA,NA,1,6,"13,14,1,4,12,5,10,9,8,15,7,6,11,3,2"
15206,commdev-image-keyboard-response,220,572553,learnblock1,283.69999999995343,img/planet14_right.png,14,Community 1,NA,TRUE,j,j,NA,NA,NA,1,6,"13,14,1,4,12,5,10,9,8,15,7,6,11,3,2"
15206,commdev-image-keyboard-response,221,573805,learnblock1,270.5999999999767,img/planet1_left.png,1,Community 1,NA,FALSE,j,f,NA,NA,NA,1,6,"13,14,1,4,12,5,10,9,8,15,7,6,11,3,2"
15206,commdev-image-keyboard-response,222,575056,learnblock1,275.5,img/planet14_right.png,14,Community 1,NA,TRUE,j,j,NA,NA,NA,1,6,"13,14,1,4,12,5,10,9,8,15,7,6,11,3,2"
15206,commdev-image-keyboard-response,223,576308,learnblock1,135.5,img/planet1_right.png,1,Community 1,NA,FALSE,f,j,NA,NA,NA,1,6,"13,14,1,4,12,5,10,9,8,15,7,6,11,3,2"
15206,commdev-image-keyboard-response,224,577560,learnblock1,250.69999999995343,img/planet4_right.png,4,Community 1,NA,TRUE,j,j,NA,NA,NA,1,6,"13,14,1,4,12,5,10,9,8,15,7,6,11,3,2"
15206,commdev-image-keyboard-response,225,578811,learnblock1,283.70000000006985,img/planet13_right.png,13,Community 1,NA,TRUE,j,j,NA,NA,NA,1,6,"13,14,1,4,12,5,10,9,8,15,7,6,11,3,2"
15206,commdev-image-keyboard-response,226,580062,learnblock1,276.69999999995343,img/planet4_left.png,4,Community 1,NA,TRUE,f,f,NA,NA,NA,1,6,"13,14,1,4,12,5,10,9,8,15,7,6,11,3,2"
15206,commdev-image-keyboard-response,227,581313,learnblock1,406.5999999999767,img/planet13_left.png,13,Community 1,NA,FALSE,j,f,NA,NA,NA,1,6,"13,14,1,4,12,5,10,9,8,15,7,6,11,3,2"
15206,commdev-image-keyboard-response,228,582565,learnblock1,293.29999999993015,img/planet12_left.png,12,Community 1,NA,TRUE,f,f,NA,NA,NA,1,6,"13,14,1,4,12,5,10,9,8,15,7,6,11,3,2"
15206,commdev-image-keyboard-response,229,583817,learnblock1,247.5,img/planet14_right.png,14,Community 1,NA,TRUE,j,j,NA,NA,NA,1,6,"13,14,1,4,12,5,10,9,8,15,7,6,11,3,2"
15206,commdev-image-keyboard-response,230,585068,learnblock1,302.5,img/planet1_right.png,1,Community 1,NA,FALSE,f,j,NA,NA,NA,1,6,"13,14,1,4,12,5,10,9,8,15,7,6,11,3,2"
15206,commdev-image-keyboard-response,231,586319,learnblock1,282.5,img/planet4_right.png,4,Community 1,NA,TRUE,j,j,NA,NA,NA,1,6,"13,14,1,4,12,5,10,9,8,15,7,6,11,3,2"
15206,commdev-image-keyboard-response,232,587571,learnblock1,259.30000000004657,img/planet1_left.png,1,Community 1,NA,TRUE,f,f,NA,NA,NA,1,6,"13,14,1,4,12,5,10,9,8,15,7,6,11,3,2"
15206,commdev-image-keyboard-response,233,588822,learnblock1,160.5,img/planet13_right.png,13,Community 1,NA,TRUE,j,j,NA,NA,NA,1,6,"13,14,1,4,12,5,10,9,8,15,7,6,11,3,2"
15206,commdev-image-keyboard-response,234,590074,learnblock1,null,img/planet1_right.png,1,Community 1,NA,FALSE,null,j,NA,NA,NA,1,6,"13,14,1,4,12,5,10,9,8,15,7,6,11,3,2"
15206,commdev-image-keyboard-response,235,591326,learnblock1,151.5,img/planet14_left.png,14,Community 1,NA,TRUE,f,f,NA,NA,NA,1,6,"13,14,1,4,12,5,10,9,8,15,7,6,11,3,2"
15206,commdev-image-keyboard-response,236,592578,learnblock1,263.20000000006985,img/planet13_left.png,13,Community 1,NA,FALSE,j,f,NA,NA,NA,1,6,"13,14,1,4,12,5,10,9,8,15,7,6,11,3,2"
15206,commdev-image-keyboard-response,237,593829,learnblock1,267.30000000004657,img/planet12_left.png,12,Community 1,NA,FALSE,j,f,NA,NA,NA,1,6,"13,14,1,4,12,5,10,9,8,15,7,6,11,3,2"
15206,commdev-image-keyboard-response,238,595080,learnblock1,247.30000000004657,img/planet1_right.png,1,Community 1,NA,FALSE,f,j,NA,NA,NA,1,6,"13,14,1,4,12,5,10,9,8,15,7,6,11,3,2"
15206,commdev-image-keyboard-response,239,596331,learnblock1,253.20000000006985,img/planet14_right.png,14,Community 1,NA,TRUE,j,j,NA,NA,NA,1,6,"13,14,1,4,12,5,10,9,8,15,7,6,11,3,2"
15206,commdev-image-keyboard-response,240,597582,learnblock1,177.40000000002328,img/planet1_left.png,1,Community 1,NA,TRUE,f,f,NA,NA,NA,1,6,"13,14,1,4,12,5,10,9,8,15,7,6,11,3,2"
15206,commdev-image-keyboard-response,241,598834,learnblock1,261.30000000004657,img/planet12_left.png,12,Community 1,NA,FALSE,j,f,NA,NA,NA,1,6,"13,14,1,4,12,5,10,9,8,15,7,6,11,3,2"
15206,commdev-image-keyboard-response,242,600086,learnblock1,168.40000000002328,img/planet14_right.png,14,Community 1,NA,FALSE,f,j,NA,NA,NA,1,6,"13,14,1,4,12,5,10,9,8,15,7,6,11,3,2"
15206,commdev-image-keyboard-response,243,601338,learnblock1,324.30000000004657,img/planet12_left.png,12,Community 1,NA,FALSE,j,f,NA,NA,NA,1,6,"13,14,1,4,12,5,10,9,8,15,7,6,11,3,2"
15206,commdev-image-keyboard-response,244,602590,learnblock1,284,img/planet14_left.png,14,Community 1,NA,TRUE,f,f,NA,NA,NA,1,6,"13,14,1,4,12,5,10,9,8,15,7,6,11,3,2"
15206,commdev-image-keyboard-response,245,603842,learnblock1,320.0999999999767,img/planet13_left.png,13,Community 1,NA,FALSE,j,f,NA,NA,NA,1,6,"13,14,1,4,12,5,10,9,8,15,7,6,11,3,2"
15206,commdev-image-keyboard-response,246,605094,learnblock1,300.0999999999767,img/planet1_left.png,1,Community 1,NA,TRUE,f,f,NA,NA,NA,1,6,"13,14,1,4,12,5,10,9,8,15,7,6,11,3,2"
15206,commdev-image-keyboard-response,247,606346,learnblock1,285,img/planet14_left.png,14,Community 1,NA,TRUE,f,f,NA,NA,NA,1,6,"13,14,1,4,12,5,10,9,8,15,7,6,11,3,2"
15206,commdev-image-keyboard-response,248,607597,learnblock1,264.9000000000233,img/planet4_left.png,4,Community 1,NA,FALSE,j,f,NA,NA,NA,1,6,"13,14,1,4,12,5,10,9,8,15,7,6,11,3,2"
15206,commdev-image-keyboard-response,249,608849,learnblock1,399,img/planet1_right.png,1,Community 1,NA,TRUE,j,j,NA,NA,NA,1,6,"13,14,1,4,12,5,10,9,8,15,7,6,11,3,2"
15206,commdev-image-keyboard-response,250,610101,learnblock1,286.9000000000233,img/planet13_left.png,13,Community 1,NA,TRUE,f,f,NA,NA,NA,1,6,"13,14,1,4,12,5,10,9,8,15,7,6,11,3,2"
15206,commdev-image-keyboard-response,251,611353,learnblock1,360.9000000000233,img/planet1_right.png,1,Community 1,NA,TRUE,j,j,NA,NA,NA,1,6,"13,14,1,4,12,5,10,9,8,15,7,6,11,3,2"
15206,commdev-image-keyboard-response,252,612605,learnblock1,251.90000000002328,img/planet4_left.png,4,Community 1,NA,TRUE,f,f,NA,NA,NA,1,6,"13,14,1,4,12,5,10,9,8,15,7,6,11,3,2"
15206,commdev-image-keyboard-response,253,613856,learnblock1,268.80000000004657,img/planet5_right.png,5,Community 2,NA,FALSE,f,j,NA,NA,NA,1,6,"13,14,1,4,12,5,10,9,8,15,7,6,11,3,2"
15206,commdev-image-keyboard-response,254,615107,learnblock1,274.9000000000233,img/planet15_right.png,15,Community 2,NA,TRUE,j,j,NA,NA,NA,1,6,"13,14,1,4,12,5,10,9,8,15,7,6,11,3,2"
15206,commdev-image-keyboard-response,255,616358,learnblock1,292.70000000006985,img/planet10_left.png,10,Community 2,NA,TRUE,f,f,NA,NA,NA,1,6,"13,14,1,4,12,5,10,9,8,15,7,6,11,3,2"
15206,commdev-image-keyboard-response,256,617609,learnblock1,278.70000000006985,img/planet15_right.png,15,Community 2,NA,TRUE,j,j,NA,NA,NA,1,6,"13,14,1,4,12,5,10,9,8,15,7,6,11,3,2"
15206,commdev-image-keyboard-response,257,618861,learnblock1,265.80000000004657,img/planet10_right.png,10,Community 2,NA,FALSE,f,j,NA,NA,NA,1,6,"13,14,1,4,12,5,10,9,8,15,7,6,11,3,2"
15206,commdev-image-keyboard-response,258,620113,learnblock1,248.40000000002328,img/planet5_right.png,5,Community 2,NA,TRUE,j,j,NA,NA,NA,1,6,"13,14,1,4,12,5,10,9,8,15,7,6,11,3,2"
15206,commdev-image-keyboard-response,259,621364,learnblock1,250,img/planet4_right.png,4,Community 1,NA,FALSE,f,j,NA,NA,NA,1,6,"13,14,1,4,12,5,10,9,8,15,7,6,11,3,2"
15206,commdev-image-keyboard-response,260,622616,learnblock1,311.5999999999767,img/planet5_right.png,5,Community 2,NA,TRUE,j,j,NA,NA,NA,1,6,"13,14,1,4,12,5,10,9,8,15,7,6,11,3,2"
15206,commdev-image-keyboard-response,261,623867,learnblock1,265.5,img/planet10_right.png,10,Community 2,NA,FALSE,f,j,NA,NA,NA,1,6,"13,14,1,4,12,5,10,9,8,15,7,6,11,3,2"
15206,commdev-image-keyboard-response,262,625119,learnblock1,303.0999999999767,img/planet5_left.png,5,Community 2,NA,FALSE,j,f,NA,NA,NA,1,6,"13,14,1,4,12,5,10,9,8,15,7,6,11,3,2"
15206,commdev-image-keyboard-response,263,626370,learnblock1,294.69999999995343,img/planet4_right.png,4,Community 1,NA,FALSE,f,j,NA,NA,NA,1,6,"13,14,1,4,12,5,10,9,8,15,7,6,11,3,2"
15206,commdev-image-keyboard-response,264,627621,learnblock1,281.5,img/planet13_right.png,13,Community 1,NA,TRUE,j,j,NA,NA,NA,1,6,"13,14,1,4,12,5,10,9,8,15,7,6,11,3,2"
15206,commdev-image-keyboard-response,265,628873,learnblock1,280.5999999999767,img/planet14_right.png,14,Community 1,NA,FALSE,f,j,NA,NA,NA,1,6,"13,14,1,4,12,5,10,9,8,15,7,6,11,3,2"
15206,commdev-image-keyboard-response,266,630133,learnblock1,326.30000000004657,img/planet12_left.png,12,Community 1,NA,FALSE,j,f,NA,NA,NA,1,6,"13,14,1,4,12,5,10,9,8,15,7,6,11,3,2"
15206,commdev-image-keyboard-response,267,631385,learnblock1,381.4000000000233,img/planet13_right.png,13,Community 1,NA,FALSE,f,j,NA,NA,NA,1,6,"13,14,1,4,12,5,10,9,8,15,7,6,11,3,2"
15206,commdev-image-keyboard-response,268,632637,learnblock1,361.0999999999767,img/planet1_right.png,1,Community 1,NA,TRUE,j,j,NA,NA,NA,1,6,"13,14,1,4,12,5,10,9,8,15,7,6,11,3,2"
15206,commdev-image-keyboard-response,269,633888,learnblock1,484.4000000000233,img/planet13_right.png,13,Community 1,NA,TRUE,j,j,NA,NA,NA,1,6,"13,14,1,4,12,5,10,9,8,15,7,6,11,3,2"
15206,commdev-image-keyboard-response,270,635140,learnblock1,238.40000000002328,img/planet14_right.png,14,Community 1,NA,FALSE,f,j,NA,NA,NA,1,6,"13,14,1,4,12,5,10,9,8,15,7,6,11,3,2"
15206,commdev-image-keyboard-response,271,636391,learnblock1,255.20000000006985,img/planet1_left.png,1,Community 1,NA,FALSE,j,f,NA,NA,NA,1,6,"13,14,1,4,12,5,10,9,8,15,7,6,11,3,2"
15206,commdev-image-keyboard-response,272,637658,learnblock1,317,img/planet12_left.png,12,Community 1,NA,FALSE,j,f,NA,NA,NA,1,6,"13,14,1,4,12,5,10,9,8,15,7,6,11,3,2"
15206,commdev-image-keyboard-response,273,638910,learnblock1,269,img/planet1_left.png,1,Community 1,NA,TRUE,f,f,NA,NA,NA,1,6,"13,14,1,4,12,5,10,9,8,15,7,6,11,3,2"
15206,commdev-image-keyboard-response,274,640162,learnblock1,314,img/planet14_right.png,14,Community 1,NA,FALSE,f,j,NA,NA,NA,1,6,"13,14,1,4,12,5,10,9,8,15,7,6,11,3,2"
15206,commdev-image-keyboard-response,275,641413,learnblock1,265.5,img/planet13_left.png,13,Community 1,NA,FALSE,j,f,NA,NA,NA,1,6,"13,14,1,4,12,5,10,9,8,15,7,6,11,3,2"
15206,commdev-image-keyboard-response,276,642665,learnblock1,139.20000000006985,img/planet14_left.png,14,Community 1,NA,TRUE,f,f,NA,NA,NA,1,6,"13,14,1,4,12,5,10,9,8,15,7,6,11,3,2"
15206,commdev-image-keyboard-response,277,643916,learnblock1,118.20000000006985,img/planet12_right.png,12,Community 1,NA,FALSE,f,j,NA,NA,NA,1,6,"13,14,1,4,12,5,10,9,8,15,7,6,11,3,2"
15206,commdev-image-keyboard-response,278,645168,learnblock1,92.09999999997672,img/planet14_left.png,14,Community 1,NA,TRUE,f,f,NA,NA,NA,1,6,"13,14,1,4,12,5,10,9,8,15,7,6,11,3,2"
15206,commdev-image-keyboard-response,279,646420,learnblock1,593.1999999999534,img/planet4_right.png,4,Community 1,NA,FALSE,f,j,NA,NA,NA,1,6,"13,14,1,4,12,5,10,9,8,15,7,6,11,3,2"
15206,commdev-image-keyboard-response,280,647671,learnblock1,352.20000000006985,img/planet13_left.png,13,Community 1,NA,FALSE,j,f,NA,NA,NA,1,6,"13,14,1,4,12,5,10,9,8,15,7,6,11,3,2"
15206,commdev-image-keyboard-response,281,648922,learnblock1,195.30000000004657,img/planet1_right.png,1,Community 1,NA,TRUE,j,j,NA,NA,NA,1,6,"13,14,1,4,12,5,10,9,8,15,7,6,11,3,2"
15206,commdev-image-keyboard-response,282,650173,learnblock1,781,img/planet4_right.png,4,Community 1,NA,FALSE,f,j,NA,NA,NA,1,6,"13,14,1,4,12,5,10,9,8,15,7,6,11,3,2"
15206,commdev-image-keyboard-response,283,651424,learnblock1,256.20000000006985,img/planet1_right.png,1,Community 1,NA,TRUE,j,j,NA,NA,NA,1,6,"13,14,1,4,12,5,10,9,8,15,7,6,11,3,2"
15206,commdev-image-keyboard-response,284,652675,learnblock1,670.4000000000233,img/planet12_left.png,12,Community 1,NA,FALSE,j,f,NA,NA,NA,1,6,"13,14,1,4,12,5,10,9,8,15,7,6,11,3,2"
15206,commdev-image-keyboard-response,285,653926,learnblock1,242,img/planet7_right.png,7,Community 3,NA,FALSE,f,j,NA,NA,NA,1,6,"13,14,1,4,12,5,10,9,8,15,7,6,11,3,2"
15206,commdev-image-keyboard-response,286,655177,learnblock1,47,img/planet3_right.png,3,Community 3,NA,TRUE,j,j,NA,NA,NA,1,6,"13,14,1,4,12,5,10,9,8,15,7,6,11,3,2"
15206,commdev-image-keyboard-response,287,656428,learnblock1,573.9000000000233,img/planet6_right.png,6,Community 3,NA,TRUE,j,j,NA,NA,NA,1,6,"13,14,1,4,12,5,10,9,8,15,7,6,11,3,2"
15206,commdev-image-keyboard-response,288,657679,learnblock1,403,img/planet2_right.png,2,Community 3,NA,FALSE,f,j,NA,NA,NA,1,6,"13,14,1,4,12,5,10,9,8,15,7,6,11,3,2"
15206,commdev-image-keyboard-response,289,658931,learnblock1,270.9000000000233,img/planet3_right.png,3,Community 3,NA,TRUE,j,j,NA,NA,NA,1,6,"13,14,1,4,12,5,10,9,8,15,7,6,11,3,2"
15206,commdev-image-keyboard-response,290,660182,learnblock1,167.90000000002328,img/planet6_right.png,6,Community 3,NA,FALSE,f,j,NA,NA,NA,1,6,"13,14,1,4,12,5,10,9,8,15,7,6,11,3,2"
15206,commdev-image-keyboard-response,291,661433,learnblock1,258.5999999999767,img/planet11_left.png,11,Community 3,NA,FALSE,j,f,NA,NA,NA,1,6,"13,14,1,4,12,5,10,9,8,15,7,6,11,3,2"
15206,commdev-image-keyboard-response,292,662685,learnblock1,116.90000000002328,img/planet2_left.png,2,Community 3,NA,TRUE,f,f,NA,NA,NA,1,6,"13,14,1,4,12,5,10,9,8,15,7,6,11,3,2"
15206,commdev-image-keyboard-response,293,663937,learnblock1,221.60000000009313,img/planet3_left.png,3,Community 3,NA,FALSE,j,f,NA,NA,NA,1,6,"13,14,1,4,12,5,10,9,8,15,7,6,11,3,2"
15206,commdev-image-keyboard-response,294,665188,learnblock1,219.70000000006985,img/planet2_right.png,2,Community 3,NA,FALSE,f,j,NA,NA,NA,1,6,"13,14,1,4,12,5,10,9,8,15,7,6,11,3,2"
15206,commdev-image-keyboard-response,295,666439,learnblock1,293.80000000004657,img/planet11_right.png,11,Community 3,NA,TRUE,j,j,NA,NA,NA,1,6,"13,14,1,4,12,5,10,9,8,15,7,6,11,3,2"
15206,commdev-image-keyboard-response,296,667691,learnblock1,280.80000000004657,img/planet7_right.png,7,Community 3,NA,FALSE,f,j,NA,NA,NA,1,6,"13,14,1,4,12,5,10,9,8,15,7,6,11,3,2"
15206,commdev-image-keyboard-response,297,668942,learnblock1,322.80000000004657,img/planet2_left.png,2,Community 3,NA,FALSE,j,f,NA,NA,NA,1,6,"13,14,1,4,12,5,10,9,8,15,7,6,11,3,2"
15206,commdev-image-keyboard-response,298,670194,learnblock1,290.9000000000233,img/planet11_left.png,11,Community 3,NA,TRUE,f,f,NA,NA,NA,1,6,"13,14,1,4,12,5,10,9,8,15,7,6,11,3,2"
15206,commdev-image-keyboard-response,299,671445,learnblock1,316.20000000006985,img/planet7_left.png,7,Community 3,NA,FALSE,j,f,NA,NA,NA,1,6,"13,14,1,4,12,5,10,9,8,15,7,6,11,3,2"
15206,commdev-image-keyboard-response,300,672696,learnblock1,426.5,img/planet12_left.png,12,Community 1,NA,FALSE,j,f,NA,NA,NA,1,6,"13,14,1,4,12,5,10,9,8,15,7,6,11,3,2"
15206,commdev-image-keyboard-response,301,673948,learnblock1,651.5999999999767,img/planet14_left.png,14,Community 1,NA,FALSE,j,f,NA,NA,NA,1,6,"13,14,1,4,12,5,10,9,8,15,7,6,11,3,2"
15206,commdev-image-keyboard-response,302,675199,learnblock1,311.4000000000233,img/planet1_right.png,1,Community 1,NA,TRUE,j,j,NA,NA,NA,1,6,"13,14,1,4,12,5,10,9,8,15,7,6,11,3,2"
15206,commdev-image-keyboard-response,303,676451,learnblock1,334.5,img/planet4_right.png,4,Community 1,NA,FALSE,f,j,NA,NA,NA,1,6,"13,14,1,4,12,5,10,9,8,15,7,6,11,3,2"
15206,commdev-image-keyboard-response,304,677703,learnblock1,239,img/planet13_left.png,13,Community 1,NA,FALSE,j,f,NA,NA,NA,1,6,"13,14,1,4,12,5,10,9,8,15,7,6,11,3,2"
15206,commdev-image-keyboard-response,305,678955,learnblock1,130.5,img/planet1_right.png,1,Community 1,NA,FALSE,f,j,NA,NA,NA,1,6,"13,14,1,4,12,5,10,9,8,15,7,6,11,3,2"
15206,commdev-image-keyboard-response,306,680206,learnblock1,191.40000000002328,img/planet13_left.png,13,Community 1,NA,FALSE,j,f,NA,NA,NA,1,6,"13,14,1,4,12,5,10,9,8,15,7,6,11,3,2"
15206,commdev-image-keyboard-response,307,681457,learnblock1,337.0999999999767,img/planet1_right.png,1,Community 1,NA,FALSE,f,j,NA,NA,NA,1,6,"13,14,1,4,12,5,10,9,8,15,7,6,11,3,2"
15206,commdev-image-keyboard-response,308,682709,learnblock1,308.5,img/planet13_left.png,13,Community 1,NA,FALSE,j,f,NA,NA,NA,1,6,"13,14,1,4,12,5,10,9,8,15,7,6,11,3,2"
15206,commdev-image-keyboard-response,309,683961,learnblock1,218.09999999997672,img/planet12_left.png,12,Community 1,NA,TRUE,f,f,NA,NA,NA,1,6,"13,14,1,4,12,5,10,9,8,15,7,6,11,3,2"
15206,commdev-image-keyboard-response,310,685212,learnblock1,254.5,img/planet7_left.png,7,Community 3,NA,FALSE,j,f,NA,NA,NA,1,6,"13,14,1,4,12,5,10,9,8,15,7,6,11,3,2"
15206,commdev-image-keyboard-response,311,686463,learnblock1,121.40000000002328,img/planet11_left.png,11,Community 3,NA,TRUE,f,f,NA,NA,NA,1,6,"13,14,1,4,12,5,10,9,8,15,7,6,11,3,2"
15206,commdev-image-keyboard-response,312,687715,learnblock1,252.30000000004657,img/planet2_left.png,2,Community 3,NA,FALSE,j,f,NA,NA,NA,1,6,"13,14,1,4,12,5,10,9,8,15,7,6,11,3,2"
15206,commdev-image-keyboard-response,313,688967,learnblock1,508.20000000006985,img/planet11_left.png,11,Community 3,NA,FALSE,j,f,NA,NA,NA,1,6,"13,14,1,4,12,5,10,9,8,15,7,6,11,3,2"
15206,commdev-image-keyboard-response,314,690219,learnblock1,563.2999999999302,img/planet3_left.png,3,Community 3,NA,FALSE,j,f,NA,NA,NA,1,6,"13,14,1,4,12,5,10,9,8,15,7,6,11,3,2"
15206,commdev-image-keyboard-response,315,691470,learnblock1,426.0999999999767,img/planet11_left.png,11,Community 3,NA,TRUE,f,f,NA,NA,NA,1,6,"13,14,1,4,12,5,10,9,8,15,7,6,11,3,2"
15206,commdev-image-keyboard-response,316,692722,learnblock1,434.20000000006985,img/planet3_right.png,3,Community 3,NA,TRUE,j,j,NA,NA,NA,1,6,"13,14,1,4,12,5,10,9,8,15,7,6,11,3,2"
15206,commdev-image-keyboard-response,317,693974,learnblock1,200.30000000004657,img/planet2_right.png,2,Community 3,NA,FALSE,f,j,NA,NA,NA,1,6,"13,14,1,4,12,5,10,9,8,15,7,6,11,3,2"
15206,commdev-image-keyboard-response,318,695225,learnblock1,242.40000000002328,img/planet3_left.png,3,Community 3,NA,FALSE,j,f,NA,NA,NA,1,6,"13,14,1,4,12,5,10,9,8,15,7,6,11,3,2"
15206,commdev-image-keyboard-response,319,696476,learnblock1,267.0999999999767,img/planet7_right.png,7,Community 3,NA,FALSE,f,j,NA,NA,NA,1,6,"13,14,1,4,12,5,10,9,8,15,7,6,11,3,2"
15206,commdev-image-keyboard-response,320,697727,learnblock1,259,img/planet12_right.png,12,Community 1,NA,TRUE,j,j,NA,NA,NA,1,6,"13,14,1,4,12,5,10,9,8,15,7,6,11,3,2"
15206,commdev-image-keyboard-response,321,698978,learnblock1,284,img/planet7_right.png,7,Community 3,NA,FALSE,f,j,NA,NA,NA,1,6,"13,14,1,4,12,5,10,9,8,15,7,6,11,3,2"
15206,commdev-image-keyboard-response,322,700230,learnblock1,270,img/planet11_right.png,11,Community 3,NA,TRUE,j,j,NA,NA,NA,1,6,"13,14,1,4,12,5,10,9,8,15,7,6,11,3,2"
15206,commdev-image-keyboard-response,323,701481,learnblock1,205.59999999997672,img/planet2_left.png,2,Community 3,NA,TRUE,f,f,NA,NA,NA,1,6,"13,14,1,4,12,5,10,9,8,15,7,6,11,3,2"
15206,commdev-image-keyboard-response,324,702734,learnblock1,276.9000000000233,img/planet6_right.png,6,Community 3,NA,TRUE,j,j,NA,NA,NA,1,6,"13,14,1,4,12,5,10,9,8,15,7,6,11,3,2"
15206,commdev-image-keyboard-response,325,703985,learnblock1,271.10000000009313,img/planet11_right.png,11,Community 3,NA,FALSE,f,j,NA,NA,NA,1,6,"13,14,1,4,12,5,10,9,8,15,7,6,11,3,2"
15206,commdev-image-keyboard-response,326,705237,learnblock1,288.80000000004657,img/planet6_left.png,6,Community 3,NA,FALSE,j,f,NA,NA,NA,1,6,"13,14,1,4,12,5,10,9,8,15,7,6,11,3,2"
15206,commdev-image-keyboard-response,327,706488,learnblock1,268.9000000000233,img/planet3_right.png,3,Community 3,NA,TRUE,j,j,NA,NA,NA,1,6,"13,14,1,4,12,5,10,9,8,15,7,6,11,3,2"
15206,commdev-image-keyboard-response,328,707740,learnblock1,218.09999999997672,img/planet2_right.png,2,Community 3,NA,FALSE,f,j,NA,NA,NA,1,6,"13,14,1,4,12,5,10,9,8,15,7,6,11,3,2"
15206,commdev-image-keyboard-response,329,708991,learnblock1,436.19999999995343,img/planet3_left.png,3,Community 3,NA,FALSE,j,f,NA,NA,NA,1,6,"13,14,1,4,12,5,10,9,8,15,7,6,11,3,2"
15206,commdev-image-keyboard-response,330,710242,learnblock1,321.70000000006985,img/planet7_left.png,7,Community 3,NA,TRUE,f,f,NA,NA,NA,1,6,"13,14,1,4,12,5,10,9,8,15,7,6,11,3,2"
15206,commdev-image-keyboard-response,331,711493,learnblock1,308.9000000000233,img/planet2_right.png,2,Community 3,NA,FALSE,f,j,NA,NA,NA,1,6,"13,14,1,4,12,5,10,9,8,15,7,6,11,3,2"
15206,commdev-image-keyboard-response,332,712744,learnblock1,405.70000000006985,img/planet6_right.png,6,Community 3,NA,FALSE,f,j,NA,NA,NA,1,6,"13,14,1,4,12,5,10,9,8,15,7,6,11,3,2"
15206,commdev-image-keyboard-response,333,713995,learnblock1,294.70000000006985,img/planet11_right.png,11,Community 3,NA,TRUE,j,j,NA,NA,NA,1,6,"13,14,1,4,12,5,10,9,8,15,7,6,11,3,2"
15206,commdev-image-keyboard-response,334,715246,learnblock1,349.70000000006985,img/planet2_left.png,2,Community 3,NA,TRUE,f,f,NA,NA,NA,1,6,"13,14,1,4,12,5,10,9,8,15,7,6,11,3,2"
15206,commdev-image-keyboard-response,335,716497,learnblock1,279.70000000006985,img/planet7_right.png,7,Community 3,NA,TRUE,j,j,NA,NA,NA,1,6,"13,14,1,4,12,5,10,9,8,15,7,6,11,3,2"
15206,commdev-image-keyboard-response,336,717749,learnblock1,316.70000000006985,img/planet2_left.png,2,Community 3,NA,TRUE,f,f,NA,NA,NA,1,6,"13,14,1,4,12,5,10,9,8,15,7,6,11,3,2"
15206,commdev-image-keyboard-response,337,719000,learnblock1,302.5999999999767,img/planet3_left.png,3,Community 3,NA,FALSE,j,f,NA,NA,NA,1,6,"13,14,1,4,12,5,10,9,8,15,7,6,11,3,2"
15206,commdev-image-keyboard-response,338,720253,learnblock1,301.0999999999767,img/planet11_left.png,11,Community 3,NA,TRUE,f,f,NA,NA,NA,1,6,"13,14,1,4,12,5,10,9,8,15,7,6,11,3,2"
15206,commdev-image-keyboard-response,339,721505,learnblock1,292.80000000004657,img/planet2_right.png,2,Community 3,NA,TRUE,j,j,NA,NA,NA,1,6,"13,14,1,4,12,5,10,9,8,15,7,6,11,3,2"
15206,commdev-image-keyboard-response,340,722756,learnblock1,277.5999999999767,img/planet3_left.png,3,Community 3,NA,TRUE,f,f,NA,NA,NA,1,6,"13,14,1,4,12,5,10,9,8,15,7,6,11,3,2"
15206,commdev-image-keyboard-response,341,724007,learnblock1,323.20000000006985,img/planet11_right.png,11,Community 3,NA,TRUE,j,j,NA,NA,NA,1,6,"13,14,1,4,12,5,10,9,8,15,7,6,11,3,2"
15206,commdev-image-keyboard-response,342,725258,learnblock1,225.5,img/planet7_right.png,7,Community 3,NA,FALSE,f,j,NA,NA,NA,1,6,"13,14,1,4,12,5,10,9,8,15,7,6,11,3,2"
15206,commdev-image-keyboard-response,343,726509,learnblock1,476.70000000006985,img/planet12_right.png,12,Community 1,NA,TRUE,j,j,NA,NA,NA,1,6,"13,14,1,4,12,5,10,9,8,15,7,6,11,3,2"
15206,commdev-image-keyboard-response,344,727761,learnblock1,676.4000000000233,img/planet14_right.png,14,Community 1,NA,TRUE,j,j,NA,NA,NA,1,6,"13,14,1,4,12,5,10,9,8,15,7,6,11,3,2"
15206,commdev-image-keyboard-response,345,729013,learnblock1,423.4000000000233,img/planet12_left.png,12,Community 1,NA,FALSE,j,f,NA,NA,NA,1,6,"13,14,1,4,12,5,10,9,8,15,7,6,11,3,2"
15206,commdev-image-keyboard-response,346,730265,learnblock1,258.4000000000233,img/planet14_right.png,14,Community 1,NA,TRUE,j,j,NA,NA,NA,1,6,"13,14,1,4,12,5,10,9,8,15,7,6,11,3,2"
15206,commdev-image-keyboard-response,347,731516,learnblock1,256.30000000004657,img/planet12_right.png,12,Community 1,NA,TRUE,j,j,NA,NA,NA,1,6,"13,14,1,4,12,5,10,9,8,15,7,6,11,3,2"
15206,commdev-image-keyboard-response,351,911923,learnblock2,1121,img/planet12_left.png,12,Community 1,NA,TRUE,f,f,NA,NA,NA,1,6,"13,14,1,4,12,5,10,9,8,15,7,6,11,3,2"
15206,commdev-image-keyboard-response,352,913175,learnblock2,786.5999999999767,img/planet7_right.png,7,Community 3,NA,TRUE,j,j,NA,NA,NA,1,6,"13,14,1,4,12,5,10,9,8,15,7,6,11,3,2"
15206,commdev-image-keyboard-response,353,914430,learnblock2,702.5999999999767,img/planet12_left.png,12,Community 1,NA,TRUE,f,f,NA,NA,NA,1,6,"13,14,1,4,12,5,10,9,8,15,7,6,11,3,2"
15206,commdev-image-keyboard-response,354,915682,learnblock2,527.4000000000233,img/planet1_right.png,1,Community 1,NA,TRUE,j,j,NA,NA,NA,1,6,"13,14,1,4,12,5,10,9,8,15,7,6,11,3,2"
15206,commdev-image-keyboard-response,355,916933,learnblock2,664.7000000000698,img/planet14_right.png,14,Community 1,NA,FALSE,f,j,NA,NA,NA,1,6,"13,14,1,4,12,5,10,9,8,15,7,6,11,3,2"
15206,commdev-image-keyboard-response,356,918184,learnblock2,487.5999999999767,img/planet1_right.png,1,Community 1,NA,TRUE,j,j,NA,NA,NA,1,6,"13,14,1,4,12,5,10,9,8,15,7,6,11,3,2"
15206,commdev-image-keyboard-response,357,919435,learnblock2,769.5,img/planet13_right.png,13,Community 1,NA,TRUE,j,j,NA,NA,NA,1,6,"13,14,1,4,12,5,10,9,8,15,7,6,11,3,2"
15206,commdev-image-keyboard-response,358,920687,learnblock2,673.5,img/planet12_left.png,12,Community 1,NA,TRUE,f,f,NA,NA,NA,1,6,"13,14,1,4,12,5,10,9,8,15,7,6,11,3,2"
15206,commdev-image-keyboard-response,359,921939,learnblock2,812.2000000000698,img/planet13_left.png,13,Community 1,NA,TRUE,f,f,NA,NA,NA,1,6,"13,14,1,4,12,5,10,9,8,15,7,6,11,3,2"
15206,commdev-image-keyboard-response,360,923190,learnblock2,745.4000000000233,img/planet4_right.png,4,Community 1,NA,TRUE,j,j,NA,NA,NA,1,6,"13,14,1,4,12,5,10,9,8,15,7,6,11,3,2"
15206,commdev-image-keyboard-response,361,924442,learnblock2,693.5999999999767,img/planet1_right.png,1,Community 1,NA,TRUE,j,j,NA,NA,NA,1,6,"13,14,1,4,12,5,10,9,8,15,7,6,11,3,2"
15206,commdev-image-keyboard-response,362,925693,learnblock2,936.3000000000466,img/planet12_right.png,12,Community 1,NA,FALSE,f,j,NA,NA,NA,1,6,"13,14,1,4,12,5,10,9,8,15,7,6,11,3,2"
15206,commdev-image-keyboard-response,363,926945,learnblock2,621.2000000000698,img/planet13_left.png,13,Community 1,NA,FALSE,j,f,NA,NA,NA,1,6,"13,14,1,4,12,5,10,9,8,15,7,6,11,3,2"
15206,commdev-image-keyboard-response,364,928196,learnblock2,820.2000000000698,img/planet12_right.png,12,Community 1,NA,TRUE,j,j,NA,NA,NA,1,6,"13,14,1,4,12,5,10,9,8,15,7,6,11,3,2"
15206,commdev-image-keyboard-response,365,929447,learnblock2,650.2000000000698,img/planet1_left.png,1,Community 1,NA,TRUE,f,f,NA,NA,NA,1,6,"13,14,1,4,12,5,10,9,8,15,7,6,11,3,2"
15206,commdev-image-keyboard-response,366,930698,learnblock2,561.2000000000698,img/planet4_right.png,4,Community 1,NA,TRUE,j,j,NA,NA,NA,1,6,"13,14,1,4,12,5,10,9,8,15,7,6,11,3,2"
15206,commdev-image-keyboard-response,367,931950,learnblock2,811.3000000000466,img/planet14_right.png,14,Community 1,NA,TRUE,j,j,NA,NA,NA,1,6,"13,14,1,4,12,5,10,9,8,15,7,6,11,3,2"
15206,commdev-image-keyboard-response,368,933201,learnblock2,844,img/planet12_left.png,12,Community 1,NA,TRUE,f,f,NA,NA,NA,1,6,"13,14,1,4,12,5,10,9,8,15,7,6,11,3,2"
15206,commdev-image-keyboard-response,369,934453,learnblock2,671.2000000000698,img/planet1_left.png,1,Community 1,NA,TRUE,f,f,NA,NA,NA,1,6,"13,14,1,4,12,5,10,9,8,15,7,6,11,3,2"
15206,commdev-image-keyboard-response,370,935705,learnblock2,889.3000000000466,img/planet12_left.png,12,Community 1,NA,TRUE,f,f,NA,NA,NA,1,6,"13,14,1,4,12,5,10,9,8,15,7,6,11,3,2"
15206,commdev-image-keyboard-response,371,936956,learnblock2,868.3000000000466,img/planet14_left.png,14,Community 1,NA,TRUE,f,f,NA,NA,NA,1,6,"13,14,1,4,12,5,10,9,8,15,7,6,11,3,2"
15206,commdev-image-keyboard-response,372,938207,learnblock2,603.5999999999767,img/planet13_right.png,13,Community 1,NA,TRUE,j,j,NA,NA,NA,1,6,"13,14,1,4,12,5,10,9,8,15,7,6,11,3,2"
15206,commdev-image-keyboard-response,373,939459,learnblock2,576.8999999999069,img/planet1_right.png,1,Community 1,NA,TRUE,j,j,NA,NA,NA,1,6,"13,14,1,4,12,5,10,9,8,15,7,6,11,3,2"
15206,commdev-image-keyboard-response,374,940711,learnblock2,499.69999999995343,img/planet4_right.png,4,Community 1,NA,TRUE,j,j,NA,NA,NA,1,6,"13,14,1,4,12,5,10,9,8,15,7,6,11,3,2"
15206,commdev-image-keyboard-response,375,941963,learnblock2,767,img/planet13_left.png,13,Community 1,NA,TRUE,f,f,NA,NA,NA,1,6,"13,14,1,4,12,5,10,9,8,15,7,6,11,3,2"
15206,commdev-image-keyboard-response,376,943214,learnblock2,803,img/planet14_left.png,14,Community 1,NA,TRUE,f,f,NA,NA,NA,1,6,"13,14,1,4,12,5,10,9,8,15,7,6,11,3,2"
15206,commdev-image-keyboard-response,377,944465,learnblock2,535.4000000000233,img/planet12_right.png,12,Community 1,NA,TRUE,j,j,NA,NA,NA,1,6,"13,14,1,4,12,5,10,9,8,15,7,6,11,3,2"
15206,commdev-image-keyboard-response,378,945717,learnblock2,795,img/planet13_left.png,13,Community 1,NA,TRUE,f,f,NA,NA,NA,1,6,"13,14,1,4,12,5,10,9,8,15,7,6,11,3,2"
15206,commdev-image-keyboard-response,379,946968,learnblock2,584.8000000000466,img/planet12_right.png,12,Community 1,NA,TRUE,j,j,NA,NA,NA,1,6,"13,14,1,4,12,5,10,9,8,15,7,6,11,3,2"
15206,commdev-image-keyboard-response,380,948219,learnblock2,520.8000000000466,img/planet1_right.png,1,Community 1,NA,TRUE,j,j,NA,NA,NA,1,6,"13,14,1,4,12,5,10,9,8,15,7,6,11,3,2"
15206,commdev-image-keyboard-response,381,949471,learnblock2,608.1999999999534,img/planet13_right.png,13,Community 1,NA,TRUE,j,j,NA,NA,NA,1,6,"13,14,1,4,12,5,10,9,8,15,7,6,11,3,2"
15206,commdev-image-keyboard-response,382,950723,learnblock2,518.0999999999767,img/planet1_right.png,1,Community 1,NA,TRUE,j,j,NA,NA,NA,1,6,"13,14,1,4,12,5,10,9,8,15,7,6,11,3,2"
15206,commdev-image-keyboard-response,383,951975,learnblock2,641.8000000000466,img/planet14_left.png,14,Community 1,NA,TRUE,f,f,NA,NA,NA,1,6,"13,14,1,4,12,5,10,9,8,15,7,6,11,3,2"
15206,commdev-image-keyboard-response,384,953227,learnblock2,658.7000000000698,img/planet13_left.png,13,Community 1,NA,TRUE,f,f,NA,NA,NA,1,6,"13,14,1,4,12,5,10,9,8,15,7,6,11,3,2"
15206,commdev-image-keyboard-response,385,954479,learnblock2,778.6999999999534,img/planet4_left.png,4,Community 1,NA,TRUE,f,f,NA,NA,NA,1,6,"13,14,1,4,12,5,10,9,8,15,7,6,11,3,2"
15206,commdev-image-keyboard-response,386,955731,learnblock2,635.8000000000466,img/planet14_left.png,14,Community 1,NA,TRUE,f,f,NA,NA,NA,1,6,"13,14,1,4,12,5,10,9,8,15,7,6,11,3,2"
15206,commdev-image-keyboard-response,387,956983,learnblock2,620.6999999999534,img/planet1_left.png,1,Community 1,NA,TRUE,f,f,NA,NA,NA,1,6,"13,14,1,4,12,5,10,9,8,15,7,6,11,3,2"
15206,commdev-image-keyboard-response,388,958235,learnblock2,694.6999999999534,img/planet13_left.png,13,Community 1,NA,TRUE,f,f,NA,NA,NA,1,6,"13,14,1,4,12,5,10,9,8,15,7,6,11,3,2"
15206,commdev-image-keyboard-response,389,959486,learnblock2,578.6999999999534,img/planet4_right.png,4,Community 1,NA,TRUE,j,j,NA,NA,NA,1,6,"13,14,1,4,12,5,10,9,8,15,7,6,11,3,2"
15206,commdev-image-keyboard-response,390,960738,learnblock2,596.6000000000931,img/planet1_right.png,1,Community 1,NA,TRUE,j,j,NA,NA,NA,1,6,"13,14,1,4,12,5,10,9,8,15,7,6,11,3,2"
15206,commdev-image-keyboard-response,391,961990,learnblock2,638.5,img/planet12_right.png,12,Community 1,NA,TRUE,j,j,NA,NA,NA,1,6,"13,14,1,4,12,5,10,9,8,15,7,6,11,3,2"
15206,commdev-image-keyboard-response,392,963241,learnblock2,618.6000000000931,img/planet14_left.png,14,Community 1,NA,TRUE,f,f,NA,NA,NA,1,6,"13,14,1,4,12,5,10,9,8,15,7,6,11,3,2"
15206,commdev-image-keyboard-response,393,964492,learnblock2,648.5,img/planet12_right.png,12,Community 1,NA,TRUE,j,j,NA,NA,NA,1,6,"13,14,1,4,12,5,10,9,8,15,7,6,11,3,2"
15206,commdev-image-keyboard-response,394,965744,learnblock2,713.1999999999534,img/planet14_right.png,14,Community 1,NA,TRUE,j,j,NA,NA,NA,1,6,"13,14,1,4,12,5,10,9,8,15,7,6,11,3,2"
15206,commdev-image-keyboard-response,395,966996,learnblock2,708.5,img/planet1_left.png,1,Community 1,NA,TRUE,f,f,NA,NA,NA,1,6,"13,14,1,4,12,5,10,9,8,15,7,6,11,3,2"
15206,commdev-image-keyboard-response,396,968247,learnblock2,593.6000000000931,img/planet4_left.png,4,Community 1,NA,TRUE,f,f,NA,NA,NA,1,6,"13,14,1,4,12,5,10,9,8,15,7,6,11,3,2"
15206,commdev-image-keyboard-response,397,969499,learnblock2,567.3999999999069,img/planet5_right.png,5,Community 2,NA,TRUE,j,j,NA,NA,NA,1,6,"13,14,1,4,12,5,10,9,8,15,7,6,11,3,2"
15206,commdev-image-keyboard-response,398,970750,learnblock2,672.7999999998137,img/planet15_right.png,15,Community 2,NA,TRUE,j,j,NA,NA,NA,1,6,"13,14,1,4,12,5,10,9,8,15,7,6,11,3,2"
15206,commdev-image-keyboard-response,399,972002,learnblock2,615.8000000000466,img/planet5_left.png,5,Community 2,NA,TRUE,f,f,NA,NA,NA,1,6,"13,14,1,4,12,5,10,9,8,15,7,6,11,3,2"
15206,commdev-image-keyboard-response,400,973254,learnblock2,619.3999999999069,img/planet15_right.png,15,Community 2,NA,TRUE,j,j,NA,NA,NA,1,6,"13,14,1,4,12,5,10,9,8,15,7,6,11,3,2"
15206,commdev-image-keyboard-response,401,974506,learnblock2,863.2999999998137,img/planet5_left.png,5,Community 2,NA,TRUE,f,f,NA,NA,NA,1,6,"13,14,1,4,12,5,10,9,8,15,7,6,11,3,2"
15206,commdev-image-keyboard-response,402,975758,learnblock2,572.3999999999069,img/planet10_right.png,10,Community 2,NA,TRUE,j,j,NA,NA,NA,1,6,"13,14,1,4,12,5,10,9,8,15,7,6,11,3,2"
15206,commdev-image-keyboard-response,403,977016,learnblock2,510,img/planet8_left.png,8,Community 2,NA,TRUE,f,f,NA,NA,NA,1,6,"13,14,1,4,12,5,10,9,8,15,7,6,11,3,2"
15206,commdev-image-keyboard-response,404,978267,learnblock2,600.1999999999534,img/planet10_left.png,10,Community 2,NA,TRUE,f,f,NA,NA,NA,1,6,"13,14,1,4,12,5,10,9,8,15,7,6,11,3,2"
15206,commdev-image-keyboard-response,405,979519,learnblock2,793.5,img/planet8_left.png,8,Community 2,NA,TRUE,f,f,NA,NA,NA,1,6,"13,14,1,4,12,5,10,9,8,15,7,6,11,3,2"
15206,commdev-image-keyboard-response,406,980771,learnblock2,578.5,img/planet5_right.png,5,Community 2,NA,TRUE,j,j,NA,NA,NA,1,6,"13,14,1,4,12,5,10,9,8,15,7,6,11,3,2"
15206,commdev-image-keyboard-response,407,982022,learnblock2,883.5,img/planet15_left.png,15,Community 2,NA,TRUE,f,f,NA,NA,NA,1,6,"13,14,1,4,12,5,10,9,8,15,7,6,11,3,2"
15206,commdev-image-keyboard-response,408,983274,learnblock2,794.3999999999069,img/planet8_right.png,8,Community 2,NA,FALSE,f,j,NA,NA,NA,1,6,"13,14,1,4,12,5,10,9,8,15,7,6,11,3,2"
15206,commdev-image-keyboard-response,409,984525,learnblock2,805.6999999999534,img/planet15_left.png,15,Community 2,NA,TRUE,f,f,NA,NA,NA,1,6,"13,14,1,4,12,5,10,9,8,15,7,6,11,3,2"
15206,commdev-image-keyboard-response,410,985776,learnblock2,547.3999999999069,img/planet9_right.png,9,Community 2,NA,TRUE,j,j,NA,NA,NA,1,6,"13,14,1,4,12,5,10,9,8,15,7,6,11,3,2"
15206,commdev-image-keyboard-response,411,987028,learnblock2,831,img/planet15_right.png,15,Community 2,NA,TRUE,j,j,NA,NA,NA,1,6,"13,14,1,4,12,5,10,9,8,15,7,6,11,3,2"
15206,commdev-image-keyboard-response,412,988279,learnblock2,663.4000000001397,img/planet8_left.png,8,Community 2,NA,TRUE,f,f,NA,NA,NA,1,6,"13,14,1,4,12,5,10,9,8,15,7,6,11,3,2"
15206,commdev-image-keyboard-response,413,989530,learnblock2,505,img/planet5_right.png,5,Community 2,NA,TRUE,j,j,NA,NA,NA,1,6,"13,14,1,4,12,5,10,9,8,15,7,6,11,3,2"
15206,commdev-image-keyboard-response,414,990782,learnblock2,484.5,img/planet15_left.png,15,Community 2,NA,TRUE,f,f,NA,NA,NA,1,6,"13,14,1,4,12,5,10,9,8,15,7,6,11,3,2"
15206,commdev-image-keyboard-response,415,992033,learnblock2,1047.5,img/planet8_left.png,8,Community 2,NA,FALSE,j,f,NA,NA,NA,1,6,"13,14,1,4,12,5,10,9,8,15,7,6,11,3,2"
15206,commdev-image-keyboard-response,416,993285,learnblock2,469.19999999995343,img/planet15_right.png,15,Community 2,NA,FALSE,f,j,NA,NA,NA,1,6,"13,14,1,4,12,5,10,9,8,15,7,6,11,3,2"
15206,commdev-image-keyboard-response,417,994536,learnblock2,297.30000000004657,img/planet8_right.png,8,Community 2,NA,TRUE,j,j,NA,NA,NA,1,6,"13,14,1,4,12,5,10,9,8,15,7,6,11,3,2"
15206,commdev-image-keyboard-response,418,995787,learnblock2,597.3000000000466,img/planet10_right.png,10,Community 2,NA,TRUE,j,j,NA,NA,NA,1,6,"13,14,1,4,12,5,10,9,8,15,7,6,11,3,2"
15206,commdev-image-keyboard-response,419,997039,learnblock2,797.1999999999534,img/planet15_right.png,15,Community 2,NA,TRUE,j,j,NA,NA,NA,1,6,"13,14,1,4,12,5,10,9,8,15,7,6,11,3,2"
15206,commdev-image-keyboard-response,420,998290,learnblock2,622.3000000000466,img/planet10_left.png,10,Community 2,NA,TRUE,f,f,NA,NA,NA,1,6,"13,14,1,4,12,5,10,9,8,15,7,6,11,3,2"
15206,commdev-image-keyboard-response,421,999541,learnblock2,774.6999999999534,img/planet5_left.png,5,Community 2,NA,TRUE,f,f,NA,NA,NA,1,6,"13,14,1,4,12,5,10,9,8,15,7,6,11,3,2"
15206,commdev-image-keyboard-response,422,1000793,learnblock2,555.1999999999534,img/planet10_right.png,10,Community 2,NA,TRUE,j,j,NA,NA,NA,1,6,"13,14,1,4,12,5,10,9,8,15,7,6,11,3,2"
15206,commdev-image-keyboard-response,423,1002045,learnblock2,859.9000000001397,img/planet8_right.png,8,Community 2,NA,FALSE,f,j,NA,NA,NA,1,6,"13,14,1,4,12,5,10,9,8,15,7,6,11,3,2"
15206,commdev-image-keyboard-response,424,1003296,learnblock2,644.6999999999534,img/planet15_left.png,15,Community 2,NA,TRUE,f,f,NA,NA,NA,1,6,"13,14,1,4,12,5,10,9,8,15,7,6,11,3,2"
15206,commdev-image-keyboard-response,425,1004547,learnblock2,699.5999999998603,img/planet5_left.png,5,Community 2,NA,TRUE,f,f,NA,NA,NA,1,6,"13,14,1,4,12,5,10,9,8,15,7,6,11,3,2"
15206,commdev-image-keyboard-response,426,1005805,learnblock2,874.5999999998603,img/planet10_left.png,10,Community 2,NA,TRUE,f,f,NA,NA,NA,1,6,"13,14,1,4,12,5,10,9,8,15,7,6,11,3,2"
15206,commdev-image-keyboard-response,427,1007056,learnblock2,910.4000000001397,img/planet8_left.png,8,Community 2,NA,TRUE,f,f,NA,NA,NA,1,6,"13,14,1,4,12,5,10,9,8,15,7,6,11,3,2"
15206,commdev-image-keyboard-response,428,1008308,learnblock2,912.3999999999069,img/planet9_left.png,9,Community 2,NA,TRUE,f,f,NA,NA,NA,1,6,"13,14,1,4,12,5,10,9,8,15,7,6,11,3,2"
15206,commdev-image-keyboard-response,429,1009560,learnblock2,762.6999999999534,img/planet10_left.png,10,Community 2,NA,TRUE,f,f,NA,NA,NA,1,6,"13,14,1,4,12,5,10,9,8,15,7,6,11,3,2"
15206,commdev-image-keyboard-response,430,1010811,learnblock2,584.5,img/planet5_right.png,5,Community 2,NA,TRUE,j,j,NA,NA,NA,1,6,"13,14,1,4,12,5,10,9,8,15,7,6,11,3,2"
15206,commdev-image-keyboard-response,431,1012062,learnblock2,608.5,img/planet8_right.png,8,Community 2,NA,TRUE,j,j,NA,NA,NA,1,6,"13,14,1,4,12,5,10,9,8,15,7,6,11,3,2"
15206,commdev-image-keyboard-response,432,1013313,learnblock2,526.3000000000466,img/planet15_right.png,15,Community 2,NA,TRUE,j,j,NA,NA,NA,1,6,"13,14,1,4,12,5,10,9,8,15,7,6,11,3,2"
15206,commdev-image-keyboard-response,433,1014564,learnblock2,638.5,img/planet5_right.png,5,Community 2,NA,TRUE,j,j,NA,NA,NA,1,6,"13,14,1,4,12,5,10,9,8,15,7,6,11,3,2"
15206,commdev-image-keyboard-response,434,1015816,learnblock2,486.39999999990687,img/planet15_right.png,15,Community 2,NA,TRUE,j,j,NA,NA,NA,1,6,"13,14,1,4,12,5,10,9,8,15,7,6,11,3,2"
15206,commdev-image-keyboard-response,435,1017068,learnblock2,622.3000000000466,img/planet10_left.png,10,Community 2,NA,TRUE,f,f,NA,NA,NA,1,6,"13,14,1,4,12,5,10,9,8,15,7,6,11,3,2"
15206,commdev-image-keyboard-response,436,1018320,learnblock2,1163.5,img/planet15_left.png,15,Community 2,NA,TRUE,f,f,NA,NA,NA,1,6,"13,14,1,4,12,5,10,9,8,15,7,6,11,3,2"
15206,commdev-image-keyboard-response,437,1019572,learnblock2,994.1999999999534,img/planet9_left.png,9,Community 2,NA,TRUE,f,f,NA,NA,NA,1,6,"13,14,1,4,12,5,10,9,8,15,7,6,11,3,2"
15206,commdev-image-keyboard-response,438,1020824,learnblock2,578.3999999999069,img/planet8_right.png,8,Community 2,NA,TRUE,j,j,NA,NA,NA,1,6,"13,14,1,4,12,5,10,9,8,15,7,6,11,3,2"
15206,commdev-image-keyboard-response,439,1022075,learnblock2,601.1999999999534,img/planet5_left.png,5,Community 2,NA,FALSE,j,f,NA,NA,NA,1,6,"13,14,1,4,12,5,10,9,8,15,7,6,11,3,2"
15206,commdev-image-keyboard-response,440,1023327,learnblock2,286.19999999995343,img/planet8_right.png,8,Community 2,NA,FALSE,f,j,NA,NA,NA,1,6,"13,14,1,4,12,5,10,9,8,15,7,6,11,3,2"
15206,commdev-image-keyboard-response,441,1024578,learnblock2,272.19999999995343,img/planet10_left.png,10,Community 2,NA,FALSE,j,f,NA,NA,NA,1,6,"13,14,1,4,12,5,10,9,8,15,7,6,11,3,2"
15206,commdev-image-keyboard-response,442,1025830,learnblock2,673.1999999999534,img/planet9_right.png,9,Community 2,NA,TRUE,j,j,NA,NA,NA,1,6,"13,14,1,4,12,5,10,9,8,15,7,6,11,3,2"
15206,commdev-image-keyboard-response,443,1027095,learnblock2,1042.3999999999069,img/planet15_left.png,15,Community 2,NA,TRUE,f,f,NA,NA,NA,1,6,"13,14,1,4,12,5,10,9,8,15,7,6,11,3,2"
15206,commdev-image-keyboard-response,444,1028346,learnblock2,656,img/planet10_right.png,10,Community 2,NA,TRUE,j,j,NA,NA,NA,1,6,"13,14,1,4,12,5,10,9,8,15,7,6,11,3,2"
15206,commdev-image-keyboard-response,445,1029597,learnblock2,624.0999999998603,img/planet9_right.png,9,Community 2,NA,TRUE,j,j,NA,NA,NA,1,6,"13,14,1,4,12,5,10,9,8,15,7,6,11,3,2"
15206,commdev-image-keyboard-response,446,1030849,learnblock2,523.1999999999534,img/planet15_right.png,15,Community 2,NA,TRUE,j,j,NA,NA,NA,1,6,"13,14,1,4,12,5,10,9,8,15,7,6,11,3,2"
15206,commdev-image-keyboard-response,447,1032100,learnblock2,628,img/planet5_left.png,5,Community 2,NA,TRUE,f,f,NA,NA,NA,1,6,"13,14,1,4,12,5,10,9,8,15,7,6,11,3,2"
15206,commdev-image-keyboard-response,448,1033352,learnblock2,815.1999999999534,img/planet4_left.png,4,Community 1,NA,TRUE,f,f,NA,NA,NA,1,6,"13,14,1,4,12,5,10,9,8,15,7,6,11,3,2"
15206,commdev-image-keyboard-response,449,1034604,learnblock2,781,img/planet14_right.png,14,Community 1,NA,TRUE,j,j,NA,NA,NA,1,6,"13,14,1,4,12,5,10,9,8,15,7,6,11,3,2"
15206,commdev-image-keyboard-response,450,1035855,learnblock2,622,img/planet13_right.png,13,Community 1,NA,TRUE,j,j,NA,NA,NA,1,6,"13,14,1,4,12,5,10,9,8,15,7,6,11,3,2"
15206,commdev-image-keyboard-response,451,1037107,learnblock2,765.8999999999069,img/planet12_right.png,12,Community 1,NA,TRUE,j,j,NA,NA,NA,1,6,"13,14,1,4,12,5,10,9,8,15,7,6,11,3,2"
15206,commdev-image-keyboard-response,452,1038358,learnblock2,825.8000000000466,img/planet7_right.png,7,Community 3,NA,TRUE,j,j,NA,NA,NA,1,6,"13,14,1,4,12,5,10,9,8,15,7,6,11,3,2"
15206,commdev-image-keyboard-response,453,1039610,learnblock2,605.1999999999534,img/planet11_left.png,11,Community 3,NA,TRUE,f,f,NA,NA,NA,1,6,"13,14,1,4,12,5,10,9,8,15,7,6,11,3,2"
15206,commdev-image-keyboard-response,454,1040874,learnblock2,933,img/planet3_left.png,3,Community 3,NA,TRUE,f,f,NA,NA,NA,1,6,"13,14,1,4,12,5,10,9,8,15,7,6,11,3,2"
15206,commdev-image-keyboard-response,455,1042126,learnblock2,594.9000000001397,img/planet2_right.png,2,Community 3,NA,TRUE,j,j,NA,NA,NA,1,6,"13,14,1,4,12,5,10,9,8,15,7,6,11,3,2"
15206,commdev-image-keyboard-response,456,1043377,learnblock2,718.6000000000931,img/planet3_right.png,3,Community 3,NA,FALSE,f,j,NA,NA,NA,1,6,"13,14,1,4,12,5,10,9,8,15,7,6,11,3,2"
15206,commdev-image-keyboard-response,457,1044629,learnblock2,415.69999999995343,img/planet2_right.png,2,Community 3,NA,TRUE,j,j,NA,NA,NA,1,6,"13,14,1,4,12,5,10,9,8,15,7,6,11,3,2"
15206,commdev-image-keyboard-response,458,1045880,learnblock2,413.79999999981374,img/planet7_left.png,7,Community 3,NA,FALSE,j,f,NA,NA,NA,1,6,"13,14,1,4,12,5,10,9,8,15,7,6,11,3,2"
15206,commdev-image-keyboard-response,459,1047131,learnblock2,550.5,img/planet11_left.png,11,Community 3,NA,TRUE,f,f,NA,NA,NA,1,6,"13,14,1,4,12,5,10,9,8,15,7,6,11,3,2"
15206,commdev-image-keyboard-response,460,1048382,learnblock2,875.7999999998137,img/planet7_left.png,7,Community 3,NA,TRUE,f,f,NA,NA,NA,1,6,"13,14,1,4,12,5,10,9,8,15,7,6,11,3,2"
15206,commdev-image-keyboard-response,461,1049633,learnblock2,805.6999999999534,img/planet11_left.png,11,Community 3,NA,TRUE,f,f,NA,NA,NA,1,6,"13,14,1,4,12,5,10,9,8,15,7,6,11,3,2"
15206,commdev-image-keyboard-response,462,1050884,learnblock2,584.5,img/planet3_right.png,3,Community 3,NA,TRUE,j,j,NA,NA,NA,1,6,"13,14,1,4,12,5,10,9,8,15,7,6,11,3,2"
15206,commdev-image-keyboard-response,463,1052143,learnblock2,554.2999999998137,img/planet7_left.png,7,Community 3,NA,FALSE,j,f,NA,NA,NA,1,6,"13,14,1,4,12,5,10,9,8,15,7,6,11,3,2"
15206,commdev-image-keyboard-response,464,1053395,learnblock2,743.3000000000466,img/planet3_left.png,3,Community 3,NA,FALSE,j,f,NA,NA,NA,1,6,"13,14,1,4,12,5,10,9,8,15,7,6,11,3,2"
15206,commdev-image-keyboard-response,465,1054657,learnblock2,333.60000000009313,img/planet11_right.png,11,Community 3,NA,FALSE,f,j,NA,NA,NA,1,6,"13,14,1,4,12,5,10,9,8,15,7,6,11,3,2"
15206,commdev-image-keyboard-response,466,1055909,learnblock2,283.5999999998603,img/planet7_left.png,7,Community 3,NA,FALSE,j,f,NA,NA,NA,1,6,"13,14,1,4,12,5,10,9,8,15,7,6,11,3,2"
15206,commdev-image-keyboard-response,467,1057160,learnblock2,714.6999999999534,img/planet11_left.png,11,Community 3,NA,TRUE,f,f,NA,NA,NA,1,6,"13,14,1,4,12,5,10,9,8,15,7,6,11,3,2"
15206,commdev-image-keyboard-response,468,1058412,learnblock2,651.6000000000931,img/planet6_right.png,6,Community 3,NA,TRUE,j,j,NA,NA,NA,1,6,"13,14,1,4,12,5,10,9,8,15,7,6,11,3,2"
15206,commdev-image-keyboard-response,469,1059664,learnblock2,542.4000000001397,img/planet3_left.png,3,Community 3,NA,TRUE,f,f,NA,NA,NA,1,6,"13,14,1,4,12,5,10,9,8,15,7,6,11,3,2"
15206,commdev-image-keyboard-response,470,1060916,learnblock2,590.6999999999534,img/planet2_right.png,2,Community 3,NA,TRUE,j,j,NA,NA,NA,1,6,"13,14,1,4,12,5,10,9,8,15,7,6,11,3,2"
15206,commdev-image-keyboard-response,471,1062167,learnblock2,754.1999999999534,img/planet6_left.png,6,Community 3,NA,TRUE,f,f,NA,NA,NA,1,6,"13,14,1,4,12,5,10,9,8,15,7,6,11,3,2"
15206,commdev-image-keyboard-response,472,1063418,learnblock2,1058.6000000000931,img/planet9_left.png,9,Community 2,NA,FALSE,j,f,NA,NA,NA,1,6,"13,14,1,4,12,5,10,9,8,15,7,6,11,3,2"
15206,commdev-image-keyboard-response,473,1064669,learnblock2,755.1999999999534,img/planet6_right.png,6,Community 3,NA,TRUE,j,j,NA,NA,NA,1,6,"13,14,1,4,12,5,10,9,8,15,7,6,11,3,2"
15206,commdev-image-keyboard-response,474,1065921,learnblock2,691.2999999998137,img/planet9_left.png,9,Community 2,NA,TRUE,f,f,NA,NA,NA,1,6,"13,14,1,4,12,5,10,9,8,15,7,6,11,3,2"
15206,commdev-image-keyboard-response,475,1067172,learnblock2,551.4000000001397,img/planet15_right.png,15,Community 2,NA,TRUE,j,j,NA,NA,NA,1,6,"13,14,1,4,12,5,10,9,8,15,7,6,11,3,2"
15206,commdev-image-keyboard-response,476,1068429,learnblock2,606.3000000000466,img/planet8_right.png,8,Community 2,NA,FALSE,f,j,NA,NA,NA,1,6,"13,14,1,4,12,5,10,9,8,15,7,6,11,3,2"
15206,commdev-image-keyboard-response,477,1069681,learnblock2,279.29999999981374,img/planet15_left.png,15,Community 2,NA,FALSE,j,f,NA,NA,NA,1,6,"13,14,1,4,12,5,10,9,8,15,7,6,11,3,2"
15206,commdev-image-keyboard-response,478,1070932,learnblock2,484.19999999995343,img/planet8_right.png,8,Community 2,NA,TRUE,j,j,NA,NA,NA,1,6,"13,14,1,4,12,5,10,9,8,15,7,6,11,3,2"
15206,commdev-image-keyboard-response,479,1072184,learnblock2,672.3999999999069,img/planet9_left.png,9,Community 2,NA,TRUE,f,f,NA,NA,NA,1,6,"13,14,1,4,12,5,10,9,8,15,7,6,11,3,2"
15206,commdev-image-keyboard-response,480,1073435,learnblock2,715.6999999999534,img/planet10_left.png,10,Community 2,NA,TRUE,f,f,NA,NA,NA,1,6,"13,14,1,4,12,5,10,9,8,15,7,6,11,3,2"
15206,commdev-image-keyboard-response,481,1074686,learnblock2,499.0999999998603,img/planet5_right.png,5,Community 2,NA,TRUE,j,j,NA,NA,NA,1,6,"13,14,1,4,12,5,10,9,8,15,7,6,11,3,2"
15206,commdev-image-keyboard-response,482,1075937,learnblock2,655.1000000000931,img/planet10_left.png,10,Community 2,NA,TRUE,f,f,NA,NA,NA,1,6,"13,14,1,4,12,5,10,9,8,15,7,6,11,3,2"
15206,commdev-image-keyboard-response,483,1077188,learnblock2,792,img/planet8_left.png,8,Community 2,NA,TRUE,f,f,NA,NA,NA,1,6,"13,14,1,4,12,5,10,9,8,15,7,6,11,3,2"
15206,commdev-image-keyboard-response,484,1078440,learnblock2,948.1000000000931,img/planet9_left.png,9,Community 2,NA,TRUE,f,f,NA,NA,NA,1,6,"13,14,1,4,12,5,10,9,8,15,7,6,11,3,2"
15206,commdev-image-keyboard-response,485,1079691,learnblock2,796.5,img/planet10_left.png,10,Community 2,NA,TRUE,f,f,NA,NA,NA,1,6,"13,14,1,4,12,5,10,9,8,15,7,6,11,3,2"
15206,commdev-image-keyboard-response,486,1080943,learnblock2,600.4000000001397,img/planet15_right.png,15,Community 2,NA,TRUE,j,j,NA,NA,NA,1,6,"13,14,1,4,12,5,10,9,8,15,7,6,11,3,2"
15206,commdev-image-keyboard-response,487,1082195,learnblock2,636,img/planet10_right.png,10,Community 2,NA,FALSE,f,j,NA,NA,NA,1,6,"13,14,1,4,12,5,10,9,8,15,7,6,11,3,2"
15206,commdev-image-keyboard-response,488,1083447,learnblock2,590,img/planet5_right.png,5,Community 2,NA,TRUE,j,j,NA,NA,NA,1,6,"13,14,1,4,12,5,10,9,8,15,7,6,11,3,2"
15206,commdev-image-keyboard-response,489,1084698,learnblock2,992.7999999998137,img/planet15_right.png,15,Community 2,NA,TRUE,j,j,NA,NA,NA,1,6,"13,14,1,4,12,5,10,9,8,15,7,6,11,3,2"
15206,commdev-image-keyboard-response,490,1085949,learnblock2,794.5,img/planet5_left.png,5,Community 2,NA,TRUE,f,f,NA,NA,NA,1,6,"13,14,1,4,12,5,10,9,8,15,7,6,11,3,2"
15206,commdev-image-keyboard-response,491,1087200,learnblock2,617.0999999998603,img/planet8_right.png,8,Community 2,NA,TRUE,j,j,NA,NA,NA,1,6,"13,14,1,4,12,5,10,9,8,15,7,6,11,3,2"
15206,commdev-image-keyboard-response,492,1088455,learnblock2,596.8000000000466,img/planet5_left.png,5,Community 2,NA,TRUE,f,f,NA,NA,NA,1,6,"13,14,1,4,12,5,10,9,8,15,7,6,11,3,2"
15206,commdev-image-keyboard-response,493,1089706,learnblock2,736.1999999999534,img/planet8_left.png,8,Community 2,NA,TRUE,f,f,NA,NA,NA,1,6,"13,14,1,4,12,5,10,9,8,15,7,6,11,3,2"
15206,commdev-image-keyboard-response,494,1090957,learnblock2,659.7000000001863,img/planet5_left.png,5,Community 2,NA,TRUE,f,f,NA,NA,NA,1,6,"13,14,1,4,12,5,10,9,8,15,7,6,11,3,2"
15206,commdev-image-keyboard-response,495,1092208,learnblock2,551.7999999998137,img/planet10_right.png,10,Community 2,NA,TRUE,j,j,NA,NA,NA,1,6,"13,14,1,4,12,5,10,9,8,15,7,6,11,3,2"
15206,commdev-image-keyboard-response,496,1093460,learnblock2,562.8999999999069,img/planet15_right.png,15,Community 2,NA,TRUE,j,j,NA,NA,NA,1,6,"13,14,1,4,12,5,10,9,8,15,7,6,11,3,2"
15206,commdev-image-keyboard-response,497,1094712,learnblock2,931.3999999999069,img/planet9_left.png,9,Community 2,NA,TRUE,f,f,NA,NA,NA,1,6,"13,14,1,4,12,5,10,9,8,15,7,6,11,3,2"
15206,commdev-image-keyboard-response,498,1095963,learnblock2,492.39999999990687,img/planet8_right.png,8,Community 2,NA,TRUE,j,j,NA,NA,NA,1,6,"13,14,1,4,12,5,10,9,8,15,7,6,11,3,2"
15206,commdev-image-keyboard-response,499,1097215,learnblock2,570.6000000000931,img/planet15_left.png,15,Community 2,NA,TRUE,f,f,NA,NA,NA,1,6,"13,14,1,4,12,5,10,9,8,15,7,6,11,3,2"
15206,commdev-image-keyboard-response,500,1098467,learnblock2,643.6000000000931,img/planet5_left.png,5,Community 2,NA,FALSE,j,f,NA,NA,NA,1,6,"13,14,1,4,12,5,10,9,8,15,7,6,11,3,2"
15206,commdev-image-keyboard-response,501,1099719,learnblock2,547.5,img/planet10_right.png,10,Community 2,NA,TRUE,j,j,NA,NA,NA,1,6,"13,14,1,4,12,5,10,9,8,15,7,6,11,3,2"
15206,commdev-image-keyboard-response,502,1100971,learnblock2,595.5,img/planet8_right.png,8,Community 2,NA,TRUE,j,j,NA,NA,NA,1,6,"13,14,1,4,12,5,10,9,8,15,7,6,11,3,2"
15206,commdev-image-keyboard-response,503,1102222,learnblock2,517.6000000000931,img/planet10_right.png,10,Community 2,NA,TRUE,j,j,NA,NA,NA,1,6,"13,14,1,4,12,5,10,9,8,15,7,6,11,3,2"
15206,commdev-image-keyboard-response,504,1103473,learnblock2,604.5999999998603,img/planet8_left.png,8,Community 2,NA,TRUE,f,f,NA,NA,NA,1,6,"13,14,1,4,12,5,10,9,8,15,7,6,11,3,2"
15206,commdev-image-keyboard-response,505,1104724,learnblock2,848.5999999998603,img/planet9_left.png,9,Community 2,NA,TRUE,f,f,NA,NA,NA,1,6,"13,14,1,4,12,5,10,9,8,15,7,6,11,3,2"
15206,commdev-image-keyboard-response,506,1105975,learnblock2,642.6000000000931,img/planet8_right.png,8,Community 2,NA,TRUE,j,j,NA,NA,NA,1,6,"13,14,1,4,12,5,10,9,8,15,7,6,11,3,2"
15206,commdev-image-keyboard-response,507,1107226,learnblock2,644.3000000000466,img/planet9_right.png,9,Community 2,NA,TRUE,j,j,NA,NA,NA,1,6,"13,14,1,4,12,5,10,9,8,15,7,6,11,3,2"
15206,commdev-image-keyboard-response,508,1108477,learnblock2,762.4000000001397,img/planet6_left.png,6,Community 3,NA,TRUE,f,f,NA,NA,NA,1,6,"13,14,1,4,12,5,10,9,8,15,7,6,11,3,2"
15206,commdev-image-keyboard-response,509,1109728,learnblock2,648.4000000001397,img/planet2_right.png,2,Community 3,NA,TRUE,j,j,NA,NA,NA,1,6,"13,14,1,4,12,5,10,9,8,15,7,6,11,3,2"
15206,commdev-image-keyboard-response,510,1110980,learnblock2,974.3000000000466,img/planet11_right.png,11,Community 3,NA,FALSE,f,j,NA,NA,NA,1,6,"13,14,1,4,12,5,10,9,8,15,7,6,11,3,2"
15206,commdev-image-keyboard-response,511,1112232,learnblock2,934.3000000000466,img/planet3_right.png,3,Community 3,NA,FALSE,f,j,NA,NA,NA,1,6,"13,14,1,4,12,5,10,9,8,15,7,6,11,3,2"
15206,commdev-image-keyboard-response,512,1113483,learnblock2,542.3999999999069,img/planet6_left.png,6,Community 3,NA,FALSE,j,f,NA,NA,NA,1,6,"13,14,1,4,12,5,10,9,8,15,7,6,11,3,2"
15206,commdev-image-keyboard-response,513,1114734,learnblock2,478.4000000001397,img/planet11_left.png,11,Community 3,NA,TRUE,f,f,NA,NA,NA,1,6,"13,14,1,4,12,5,10,9,8,15,7,6,11,3,2"
15206,commdev-image-keyboard-response,514,1115985,learnblock2,744.0999999998603,img/planet6_right.png,6,Community 3,NA,TRUE,j,j,NA,NA,NA,1,6,"13,14,1,4,12,5,10,9,8,15,7,6,11,3,2"
15206,commdev-image-keyboard-response,515,1117236,learnblock2,596.5,img/planet2_left.png,2,Community 3,NA,FALSE,j,f,NA,NA,NA,1,6,"13,14,1,4,12,5,10,9,8,15,7,6,11,3,2"
15206,commdev-image-keyboard-response,516,1118488,learnblock2,764.5,img/planet7_left.png,7,Community 3,NA,TRUE,f,f,NA,NA,NA,1,6,"13,14,1,4,12,5,10,9,8,15,7,6,11,3,2"
15206,commdev-image-keyboard-response,517,1119740,learnblock2,492.19999999995343,img/planet2_right.png,2,Community 3,NA,TRUE,j,j,NA,NA,NA,1,6,"13,14,1,4,12,5,10,9,8,15,7,6,11,3,2"
15206,commdev-image-keyboard-response,518,1120991,learnblock2,653.1999999999534,img/planet3_left.png,3,Community 3,NA,TRUE,f,f,NA,NA,NA,1,6,"13,14,1,4,12,5,10,9,8,15,7,6,11,3,2"
15206,commdev-image-keyboard-response,519,1122242,learnblock2,507.30000000004657,img/planet2_left.png,2,Community 3,NA,FALSE,j,f,NA,NA,NA,1,6,"13,14,1,4,12,5,10,9,8,15,7,6,11,3,2"
15206,commdev-image-keyboard-response,520,1123493,learnblock2,518.8000000000466,img/planet11_right.png,11,Community 3,NA,TRUE,j,j,NA,NA,NA,1,6,"13,14,1,4,12,5,10,9,8,15,7,6,11,3,2"
15206,commdev-image-keyboard-response,521,1124745,learnblock2,549.1999999999534,img/planet2_left.png,2,Community 3,NA,TRUE,f,f,NA,NA,NA,1,6,"13,14,1,4,12,5,10,9,8,15,7,6,11,3,2"
15206,commdev-image-keyboard-response,522,1125997,learnblock2,832.8000000000466,img/planet7_left.png,7,Community 3,NA,TRUE,f,f,NA,NA,NA,1,6,"13,14,1,4,12,5,10,9,8,15,7,6,11,3,2"
15206,commdev-image-keyboard-response,523,1127249,learnblock2,828.1000000000931,img/planet12_left.png,12,Community 1,NA,TRUE,f,f,NA,NA,NA,1,6,"13,14,1,4,12,5,10,9,8,15,7,6,11,3,2"
15206,commdev-image-keyboard-response,524,1128501,learnblock2,939.0999999998603,img/planet7_left.png,7,Community 3,NA,TRUE,f,f,NA,NA,NA,1,6,"13,14,1,4,12,5,10,9,8,15,7,6,11,3,2"
15206,commdev-image-keyboard-response,525,1129752,learnblock2,609.8999999999069,img/planet12_right.png,12,Community 1,NA,TRUE,j,j,NA,NA,NA,1,6,"13,14,1,4,12,5,10,9,8,15,7,6,11,3,2"
15206,commdev-image-keyboard-response,526,1131005,learnblock2,603.1999999999534,img/planet14_right.png,14,Community 1,NA,TRUE,j,j,NA,NA,NA,1,6,"13,14,1,4,12,5,10,9,8,15,7,6,11,3,2"
15206,commdev-image-keyboard-response,527,1132257,learnblock2,682.4000000001397,img/planet12_left.png,12,Community 1,NA,TRUE,f,f,NA,NA,NA,1,6,"13,14,1,4,12,5,10,9,8,15,7,6,11,3,2"
15206,commdev-image-keyboard-response,528,1133509,learnblock2,423.4000000001397,img/planet7_right.png,7,Community 3,NA,TRUE,j,j,NA,NA,NA,1,6,"13,14,1,4,12,5,10,9,8,15,7,6,11,3,2"
15206,commdev-image-keyboard-response,529,1134760,learnblock2,622.3000000000466,img/planet12_left.png,12,Community 1,NA,TRUE,f,f,NA,NA,NA,1,6,"13,14,1,4,12,5,10,9,8,15,7,6,11,3,2"
15206,commdev-image-keyboard-response,530,1136025,learnblock2,728.3000000000466,img/planet13_left.png,13,Community 1,NA,TRUE,f,f,NA,NA,NA,1,6,"13,14,1,4,12,5,10,9,8,15,7,6,11,3,2"
15206,commdev-image-keyboard-response,531,1137276,learnblock2,728.1000000000931,img/planet12_left.png,12,Community 1,NA,TRUE,f,f,NA,NA,NA,1,6,"13,14,1,4,12,5,10,9,8,15,7,6,11,3,2"
15206,commdev-image-keyboard-response,532,1138528,learnblock2,454.30000000004657,img/planet13_right.png,13,Community 1,NA,TRUE,j,j,NA,NA,NA,1,6,"13,14,1,4,12,5,10,9,8,15,7,6,11,3,2"
15206,commdev-image-keyboard-response,533,1139780,learnblock2,609.1999999999534,img/planet12_right.png,12,Community 1,NA,TRUE,j,j,NA,NA,NA,1,6,"13,14,1,4,12,5,10,9,8,15,7,6,11,3,2"
15206,commdev-image-keyboard-response,534,1141032,learnblock2,494.69999999995343,img/planet7_right.png,7,Community 3,NA,FALSE,f,j,NA,NA,NA,1,6,"13,14,1,4,12,5,10,9,8,15,7,6,11,3,2"
15206,commdev-image-keyboard-response,535,1142284,learnblock2,385.19999999995343,img/planet3_left.png,3,Community 3,NA,FALSE,j,f,NA,NA,NA,1,6,"13,14,1,4,12,5,10,9,8,15,7,6,11,3,2"
15206,commdev-image-keyboard-response,536,1143535,learnblock2,848.1999999999534,img/planet11_left.png,11,Community 3,NA,TRUE,f,f,NA,NA,NA,1,6,"13,14,1,4,12,5,10,9,8,15,7,6,11,3,2"
15206,commdev-image-keyboard-response,537,1144786,learnblock2,608.1000000000931,img/planet7_right.png,7,Community 3,NA,TRUE,j,j,NA,NA,NA,1,6,"13,14,1,4,12,5,10,9,8,15,7,6,11,3,2"
15206,commdev-image-keyboard-response,538,1146037,learnblock2,783.1999999999534,img/planet11_left.png,11,Community 3,NA,FALSE,j,f,NA,NA,NA,1,6,"13,14,1,4,12,5,10,9,8,15,7,6,11,3,2"
15206,commdev-image-keyboard-response,539,1147288,learnblock2,1010.8999999999069,img/planet6_left.png,6,Community 3,NA,TRUE,f,f,NA,NA,NA,1,6,"13,14,1,4,12,5,10,9,8,15,7,6,11,3,2"
15206,commdev-image-keyboard-response,540,1148539,learnblock2,592.0999999998603,img/planet11_right.png,11,Community 3,NA,TRUE,j,j,NA,NA,NA,1,6,"13,14,1,4,12,5,10,9,8,15,7,6,11,3,2"
15206,commdev-image-keyboard-response,541,1149790,learnblock2,598.3000000000466,img/planet7_right.png,7,Community 3,NA,TRUE,j,j,NA,NA,NA,1,6,"13,14,1,4,12,5,10,9,8,15,7,6,11,3,2"
15206,commdev-image-keyboard-response,542,1151041,learnblock2,609.1000000000931,img/planet2_left.png,2,Community 3,NA,TRUE,f,f,NA,NA,NA,1,6,"13,14,1,4,12,5,10,9,8,15,7,6,11,3,2"
15206,commdev-image-keyboard-response,543,1152292,learnblock2,916.4000000001397,img/planet7_left.png,7,Community 3,NA,FALSE,j,f,NA,NA,NA,1,6,"13,14,1,4,12,5,10,9,8,15,7,6,11,3,2"
15206,commdev-image-keyboard-response,544,1153544,learnblock2,638,img/planet12_left.png,12,Community 1,NA,TRUE,f,f,NA,NA,NA,1,6,"13,14,1,4,12,5,10,9,8,15,7,6,11,3,2"
15206,commdev-image-keyboard-response,545,1154795,learnblock2,473,img/planet13_right.png,13,Community 1,NA,FALSE,f,j,NA,NA,NA,1,6,"13,14,1,4,12,5,10,9,8,15,7,6,11,3,2"
15206,commdev-image-keyboard-response,546,1156046,learnblock2,365,img/planet12_right.png,12,Community 1,NA,TRUE,j,j,NA,NA,NA,1,6,"13,14,1,4,12,5,10,9,8,15,7,6,11,3,2"
15206,commdev-image-keyboard-response,547,1157297,learnblock2,779.5,img/planet14_left.png,14,Community 1,NA,TRUE,f,f,NA,NA,NA,1,6,"13,14,1,4,12,5,10,9,8,15,7,6,11,3,2"
15206,commdev-image-keyboard-response,548,1158548,learnblock2,780.3999999999069,img/planet13_left.png,13,Community 1,NA,TRUE,f,f,NA,NA,NA,1,6,"13,14,1,4,12,5,10,9,8,15,7,6,11,3,2"
15206,commdev-image-keyboard-response,549,1159800,learnblock2,977.9000000001397,img/planet4_left.png,4,Community 1,NA,FALSE,j,f,NA,NA,NA,1,6,"13,14,1,4,12,5,10,9,8,15,7,6,11,3,2"
15206,commdev-image-keyboard-response,550,1161052,learnblock2,479.80000000004657,img/planet13_left.png,13,Community 1,NA,TRUE,f,f,NA,NA,NA,1,6,"13,14,1,4,12,5,10,9,8,15,7,6,11,3,2"
15206,commdev-image-keyboard-response,551,1162314,learnblock2,696.9000000001397,img/planet12_left.png,12,Community 1,NA,TRUE,f,f,NA,NA,NA,1,6,"13,14,1,4,12,5,10,9,8,15,7,6,11,3,2"
15206,commdev-image-keyboard-response,552,1163580,learnblock2,634.8999999999069,img/planet13_left.png,13,Community 1,NA,TRUE,f,f,NA,NA,NA,1,6,"13,14,1,4,12,5,10,9,8,15,7,6,11,3,2"
15206,commdev-image-keyboard-response,553,1164832,learnblock2,517.5999999998603,img/planet12_right.png,12,Community 1,NA,TRUE,j,j,NA,NA,NA,1,6,"13,14,1,4,12,5,10,9,8,15,7,6,11,3,2"
15206,commdev-image-keyboard-response,554,1166083,learnblock2,654.5999999998603,img/planet14_right.png,14,Community 1,NA,TRUE,j,j,NA,NA,NA,1,6,"13,14,1,4,12,5,10,9,8,15,7,6,11,3,2"
15206,commdev-image-keyboard-response,555,1167335,learnblock2,495.9000000001397,img/planet4_right.png,4,Community 1,NA,TRUE,j,j,NA,NA,NA,1,6,"13,14,1,4,12,5,10,9,8,15,7,6,11,3,2"
15206,commdev-image-keyboard-response,556,1168586,learnblock2,525.5999999998603,img/planet1_left.png,1,Community 1,NA,TRUE,f,f,NA,NA,NA,1,6,"13,14,1,4,12,5,10,9,8,15,7,6,11,3,2"
15206,commdev-image-keyboard-response,557,1169837,learnblock2,728.3999999999069,img/planet14_left.png,14,Community 1,NA,TRUE,f,f,NA,NA,NA,1,6,"13,14,1,4,12,5,10,9,8,15,7,6,11,3,2"
15206,commdev-image-keyboard-response,558,1171088,learnblock2,573.6999999999534,img/planet4_right.png,4,Community 1,NA,TRUE,j,j,NA,NA,NA,1,6,"13,14,1,4,12,5,10,9,8,15,7,6,11,3,2"
15206,commdev-image-keyboard-response,559,1172339,learnblock2,590.8999999999069,img/planet5_right.png,5,Community 2,NA,TRUE,j,j,NA,NA,NA,1,6,"13,14,1,4,12,5,10,9,8,15,7,6,11,3,2"
15206,commdev-image-keyboard-response,560,1173590,learnblock2,784.6000000000931,img/planet10_right.png,10,Community 2,NA,TRUE,j,j,NA,NA,NA,1,6,"13,14,1,4,12,5,10,9,8,15,7,6,11,3,2"
15206,commdev-image-keyboard-response,561,1174841,learnblock2,751.6000000000931,img/planet15_right.png,15,Community 2,NA,TRUE,j,j,NA,NA,NA,1,6,"13,14,1,4,12,5,10,9,8,15,7,6,11,3,2"
15206,commdev-image-keyboard-response,562,1176092,learnblock2,631.6000000000931,img/planet10_left.png,10,Community 2,NA,TRUE,f,f,NA,NA,NA,1,6,"13,14,1,4,12,5,10,9,8,15,7,6,11,3,2"
15206,commdev-image-keyboard-response,563,1177344,learnblock2,731.5,img/planet8_right.png,8,Community 2,NA,TRUE,j,j,NA,NA,NA,1,6,"13,14,1,4,12,5,10,9,8,15,7,6,11,3,2"
15206,commdev-image-keyboard-response,564,1178608,learnblock2,810.5,img/planet15_right.png,15,Community 2,NA,TRUE,j,j,NA,NA,NA,1,6,"13,14,1,4,12,5,10,9,8,15,7,6,11,3,2"
15206,commdev-image-keyboard-response,565,1179859,learnblock2,830.6999999999534,img/planet5_left.png,5,Community 2,NA,TRUE,f,f,NA,NA,NA,1,6,"13,14,1,4,12,5,10,9,8,15,7,6,11,3,2"
15206,commdev-image-keyboard-response,566,1181123,learnblock2,852.6999999999534,img/planet15_right.png,15,Community 2,NA,TRUE,j,j,NA,NA,NA,1,6,"13,14,1,4,12,5,10,9,8,15,7,6,11,3,2"
15206,commdev-image-keyboard-response,567,1182374,learnblock2,693.1999999999534,img/planet5_right.png,5,Community 2,NA,TRUE,j,j,NA,NA,NA,1,6,"13,14,1,4,12,5,10,9,8,15,7,6,11,3,2"
15206,commdev-image-keyboard-response,568,1183626,learnblock2,636.3000000000466,img/planet10_left.png,10,Community 2,NA,TRUE,f,f,NA,NA,NA,1,6,"13,14,1,4,12,5,10,9,8,15,7,6,11,3,2"
15206,commdev-image-keyboard-response,569,1184878,learnblock2,659.4000000001397,img/planet5_right.png,5,Community 2,NA,TRUE,j,j,NA,NA,NA,1,6,"13,14,1,4,12,5,10,9,8,15,7,6,11,3,2"
15206,commdev-image-keyboard-response,570,1186129,learnblock2,551.3000000000466,img/planet15_right.png,15,Community 2,NA,TRUE,j,j,NA,NA,NA,1,6,"13,14,1,4,12,5,10,9,8,15,7,6,11,3,2"
15206,commdev-image-keyboard-response,571,1187380,learnblock2,619.5,img/planet10_right.png,10,Community 2,NA,TRUE,j,j,NA,NA,NA,1,6,"13,14,1,4,12,5,10,9,8,15,7,6,11,3,2"
15206,commdev-image-keyboard-response,572,1188631,learnblock2,486.19999999995343,img/planet9_left.png,9,Community 2,NA,FALSE,j,f,NA,NA,NA,1,6,"13,14,1,4,12,5,10,9,8,15,7,6,11,3,2"
15206,commdev-image-keyboard-response,573,1189883,learnblock2,291.30000000004657,img/planet6_left.png,6,Community 3,NA,TRUE,f,f,NA,NA,NA,1,6,"13,14,1,4,12,5,10,9,8,15,7,6,11,3,2"
15206,commdev-image-keyboard-response,574,1191135,learnblock2,782.0999999998603,img/planet3_left.png,3,Community 3,NA,TRUE,f,f,NA,NA,NA,1,6,"13,14,1,4,12,5,10,9,8,15,7,6,11,3,2"
15206,commdev-image-keyboard-response,575,1192393,learnblock2,583.1999999999534,img/planet7_right.png,7,Community 3,NA,TRUE,j,j,NA,NA,NA,1,6,"13,14,1,4,12,5,10,9,8,15,7,6,11,3,2"
15206,commdev-image-keyboard-response,576,1193646,learnblock2,529.4000000001397,img/planet3_left.png,3,Community 3,NA,FALSE,j,f,NA,NA,NA,1,6,"13,14,1,4,12,5,10,9,8,15,7,6,11,3,2"
15206,commdev-image-keyboard-response,577,1194898,learnblock2,584.1999999999534,img/planet11_right.png,11,Community 3,NA,TRUE,j,j,NA,NA,NA,1,6,"13,14,1,4,12,5,10,9,8,15,7,6,11,3,2"
15206,commdev-image-keyboard-response,578,1196149,learnblock2,802.1000000000931,img/planet2_right.png,2,Community 3,NA,TRUE,j,j,NA,NA,NA,1,6,"13,14,1,4,12,5,10,9,8,15,7,6,11,3,2"
15206,commdev-image-keyboard-response,579,1197400,learnblock2,632.3999999999069,img/planet7_right.png,7,Community 3,NA,TRUE,j,j,NA,NA,NA,1,6,"13,14,1,4,12,5,10,9,8,15,7,6,11,3,2"
15206,commdev-image-keyboard-response,580,1198652,learnblock2,549.1999999999534,img/planet2_right.png,2,Community 3,NA,TRUE,j,j,NA,NA,NA,1,6,"13,14,1,4,12,5,10,9,8,15,7,6,11,3,2"
15206,commdev-image-keyboard-response,581,1199913,learnblock2,717.1000000000931,img/planet3_left.png,3,Community 3,NA,TRUE,f,f,NA,NA,NA,1,6,"13,14,1,4,12,5,10,9,8,15,7,6,11,3,2"
15206,commdev-image-keyboard-response,582,1201164,learnblock2,840.8000000000466,img/planet2_left.png,2,Community 3,NA,FALSE,j,f,NA,NA,NA,1,6,"13,14,1,4,12,5,10,9,8,15,7,6,11,3,2"
15206,commdev-image-keyboard-response,583,1202416,learnblock2,560.3000000000466,img/planet3_left.png,3,Community 3,NA,TRUE,f,f,NA,NA,NA,1,6,"13,14,1,4,12,5,10,9,8,15,7,6,11,3,2"
15206,commdev-image-keyboard-response,584,1203668,learnblock2,1004,img/planet7_left.png,7,Community 3,NA,TRUE,f,f,NA,NA,NA,1,6,"13,14,1,4,12,5,10,9,8,15,7,6,11,3,2"
