subject_id,trial_type,trial_index,time_elapsed,block,rt,stimulus,planet,community,response,correct,key_press,learning_correct_response,parse,init_locations,final_locations,browser_interactions,num_comp,planet_map
14718,commdev-instructions,7,28603,NA,1800.9999999999964,"<p>In this game, you are a scientist on board a space shuttle. </p><p> On each mission, you will visit planets all across the universe.</p><img src=""img/controlroom.jpg"" width=300vw>",NA,NA,NA,NA,NA,NA,NA,NA,NA,2,6,"14,12,8,9,11,6,13,7,2,10,3,15,5,1,4"
14718,commdev-instructions,8,31986,NA,1312,"<p>Here are a few planets you might see:</p><img src=""img/practice1.png"" width=200vw><img src=""img/practice2.png"" width=200vw><img src=""img/practice3.png"" width=200vw>",NA,NA,NA,NA,NA,NA,NA,NA,NA,2,6,"14,12,8,9,11,6,13,7,2,10,3,15,5,1,4"
14718,commdev-instructions,9,40005,NA,620,"<p>Your job as a scientist is to record which direction the winds are moving on each planet.</p><p>There are two types of wind directions:</p><img src=""img/practice1_left.png"" width=200vw><img src=""img/practice1_right.png"" width=200vw>",NA,NA,NA,NA,NA,NA,NA,NA,NA,2,6,"14,12,8,9,11,6,13,7,2,10,3,15,5,1,4"
14718,commdev-instructions,10,45840,NA,955,"<p>If the winds are moving this way, press the letter <strong>F</strong> on the keyboard as fast as you can.</p><img src=""img/leftwind.png"" width=250vw>",NA,NA,NA,NA,NA,NA,NA,NA,NA,2,6,"14,12,8,9,11,6,13,7,2,10,3,15,5,1,4"
14718,commdev-instructions,11,51041,NA,705,"<p>If the winds are moving this way, press the letter <strong>J</strong> on the keyboard as fast as you can.</p><img src=""img/rightwind.png"" width=350vw>",NA,NA,NA,NA,NA,NA,NA,NA,NA,2,6,"14,12,8,9,11,6,13,7,2,10,3,15,5,1,4"
14718,commdev-instructions,12,56393,NA,928,<p>You will have 1 second to respond. Try to respond before the time runs out!,NA,NA,NA,NA,NA,NA,NA,NA,NA,2,6,"14,12,8,9,11,6,13,7,2,10,3,15,5,1,4"
14718,commdev-instructions,13,62544,NA,720,<p>The planets you will visit will look different from each other.</p><p>You should respond <strong>only</strong> based on wind direction.,NA,NA,NA,NA,NA,NA,NA,NA,NA,2,6,"14,12,8,9,11,6,13,7,2,10,3,15,5,1,4"
14718,commdev-instructions,14,68745,NA,1035,"<p> Ready to start the practice round? </p><p> Remember, press <strong>F</strong> or <strong>J</strong> depending on the wind direction.<br><img src=""img/categorize_planet_example.png""",NA,NA,NA,NA,NA,NA,NA,NA,NA,2,6,"14,12,8,9,11,6,13,7,2,10,3,15,5,1,4"
14718,commdev-instructions,26,123782,NA,2601,"<p>Great, now try a short practice mission. </p><p> This time, you will have 1 second to respond and you won't know whether you pressed the right or wrong key for each planet.</p>",NA,NA,NA,NA,NA,NA,NA,NA,NA,2,6,"14,12,8,9,11,6,13,7,2,10,3,15,5,1,4"
14718,commdev-image-keyboard-response,27,125133,practice,null,img/practice1_left.png,NA,Number not found in mappings,NA,FALSE,null,f,NA,NA,NA,2,6,"14,12,8,9,11,6,13,7,2,10,3,15,5,1,4"
14718,commdev-image-keyboard-response,28,126384,practice,201,img/practice3_left.png,NA,Number not found in mappings,NA,TRUE,f,f,NA,NA,NA,2,6,"14,12,8,9,11,6,13,7,2,10,3,15,5,1,4"
14718,commdev-image-keyboard-response,29,127635,practice,973.9999999999854,img/practice1_right.png,NA,Number not found in mappings,NA,TRUE,j,j,NA,NA,NA,2,6,"14,12,8,9,11,6,13,7,2,10,3,15,5,1,4"
14718,commdev-image-keyboard-response,30,128887,practice,891.0000000000146,img/practice2_left.png,NA,Number not found in mappings,NA,TRUE,f,f,NA,NA,NA,2,6,"14,12,8,9,11,6,13,7,2,10,3,15,5,1,4"
14718,commdev-image-keyboard-response,31,130138,practice,839,img/practice3_right.png,NA,Number not found in mappings,NA,TRUE,j,j,NA,NA,NA,2,6,"14,12,8,9,11,6,13,7,2,10,3,15,5,1,4"
14718,commdev-image-keyboard-response,32,131390,practice,556,img/practice1_right.png,NA,Number not found in mappings,NA,TRUE,j,j,NA,NA,NA,2,6,"14,12,8,9,11,6,13,7,2,10,3,15,5,1,4"
14718,commdev-image-keyboard-response,33,132642,practice,695.0000000000291,img/practice2_right.png,NA,Number not found in mappings,NA,TRUE,j,j,NA,NA,NA,2,6,"14,12,8,9,11,6,13,7,2,10,3,15,5,1,4"
14718,commdev-image-keyboard-response,34,133893,practice,740,img/practice4_right.png,NA,Number not found in mappings,NA,TRUE,j,j,NA,NA,NA,2,6,"14,12,8,9,11,6,13,7,2,10,3,15,5,1,4"
14718,commdev-instructions,35,144406,NA,960,"<p>Great job with the practice round.</p><p>During real missions, you won't know whether you pressed the right or wrong key for each planet.</p><p>But between missions, we will tell you how you did overall.</p>",NA,NA,NA,NA,NA,NA,NA,NA,NA,2,6,"14,12,8,9,11,6,13,7,2,10,3,15,5,1,4"
14718,commdev-instructions,36,154674,NA,2028,<p>Try your best! You will be paid a bonus based on how many correct responses you make!</p><p>Responses that are too slow will not count toward your bonus.</p>,NA,NA,NA,NA,NA,NA,NA,NA,NA,2,6,"14,12,8,9,11,6,13,7,2,10,3,15,5,1,4"
14718,commdev-instructions,37,161942,NA,1070,"<p>You are almost ready to start the real game.</p><p> First, we are going to ask you some questions about how the game works.</p>",NA,NA,NA,NA,NA,NA,NA,NA,NA,2,6,"14,12,8,9,11,6,13,7,2,10,3,15,5,1,4"
14718,commdev-instructions,46,242630,NA,864.0000000000291,"<p> Nice work! It is now time to start the real game.<p></p>You will go on two missions to record wind directions of different planets.<p></p>Each one will take about 5 minutes. You will get to take a break between missions.<p><p> Remember, press <strong>F</strong> or <strong>J</strong> depending on the wind direction. Good luck!<br><img src=""img/categorize_planet_example.png""",NA,NA,NA,NA,NA,NA,NA,NA,NA,2,6,"14,12,8,9,11,6,13,7,2,10,3,15,5,1,4"
14718,commdev-image-keyboard-response,48,246243,learnblock1,1038.999999999971,img/planet3_left.png,3,Community 3,NA,TRUE,f,f,NA,NA,NA,2,6,"14,12,8,9,11,6,13,7,2,10,3,15,5,1,4"
14718,commdev-image-keyboard-response,49,247494,learnblock1,787,img/planet1_right.png,1,Community 3,NA,TRUE,j,j,NA,NA,NA,2,6,"14,12,8,9,11,6,13,7,2,10,3,15,5,1,4"
14718,commdev-image-keyboard-response,50,248745,learnblock1,792,img/planet3_right.png,3,Community 3,NA,TRUE,j,j,NA,NA,NA,2,6,"14,12,8,9,11,6,13,7,2,10,3,15,5,1,4"
14718,commdev-image-keyboard-response,51,249996,learnblock1,646.0000000000291,img/planet11_left.png,11,Community 1,NA,TRUE,f,f,NA,NA,NA,2,6,"14,12,8,9,11,6,13,7,2,10,3,15,5,1,4"
14718,commdev-image-keyboard-response,52,251247,learnblock1,851,img/planet12_right.png,12,Community 1,NA,TRUE,j,j,NA,NA,NA,2,6,"14,12,8,9,11,6,13,7,2,10,3,15,5,1,4"
14718,commdev-image-keyboard-response,53,252498,learnblock1,792,img/planet9_left.png,9,Community 1,NA,TRUE,f,f,NA,NA,NA,2,6,"14,12,8,9,11,6,13,7,2,10,3,15,5,1,4"
14718,commdev-image-keyboard-response,54,253750,learnblock1,932.9999999999709,img/planet12_left.png,12,Community 1,NA,TRUE,f,f,NA,NA,NA,2,6,"14,12,8,9,11,6,13,7,2,10,3,15,5,1,4"
14718,commdev-image-keyboard-response,55,255000,learnblock1,769.0000000000291,img/planet8_right.png,8,Community 1,NA,TRUE,j,j,NA,NA,NA,2,6,"14,12,8,9,11,6,13,7,2,10,3,15,5,1,4"
14718,commdev-image-keyboard-response,56,256251,learnblock1,774.9999999999709,img/planet11_left.png,11,Community 1,NA,TRUE,f,f,NA,NA,NA,2,6,"14,12,8,9,11,6,13,7,2,10,3,15,5,1,4"
14718,commdev-image-keyboard-response,57,257502,learnblock1,851.9999999999709,img/planet8_left.png,8,Community 1,NA,TRUE,f,f,NA,NA,NA,2,6,"14,12,8,9,11,6,13,7,2,10,3,15,5,1,4"
14718,commdev-image-keyboard-response,58,258753,learnblock1,610.0000000000291,img/planet11_left.png,11,Community 1,NA,TRUE,f,f,NA,NA,NA,2,6,"14,12,8,9,11,6,13,7,2,10,3,15,5,1,4"
14718,commdev-image-keyboard-response,59,260004,learnblock1,726,img/planet8_right.png,8,Community 1,NA,TRUE,j,j,NA,NA,NA,2,6,"14,12,8,9,11,6,13,7,2,10,3,15,5,1,4"
14718,commdev-image-keyboard-response,60,261255,learnblock1,659,img/planet9_left.png,9,Community 1,NA,TRUE,f,f,NA,NA,NA,2,6,"14,12,8,9,11,6,13,7,2,10,3,15,5,1,4"
14718,commdev-image-keyboard-response,61,262506,learnblock1,737,img/planet14_right.png,14,Community 1,NA,TRUE,j,j,NA,NA,NA,2,6,"14,12,8,9,11,6,13,7,2,10,3,15,5,1,4"
14718,commdev-image-keyboard-response,62,263757,learnblock1,765,img/planet12_right.png,12,Community 1,NA,TRUE,j,j,NA,NA,NA,2,6,"14,12,8,9,11,6,13,7,2,10,3,15,5,1,4"
14718,commdev-image-keyboard-response,63,265008,learnblock1,649.9999999999418,img/planet9_left.png,9,Community 1,NA,TRUE,f,f,NA,NA,NA,2,6,"14,12,8,9,11,6,13,7,2,10,3,15,5,1,4"
14718,commdev-image-keyboard-response,64,266259,learnblock1,839,img/planet12_left.png,12,Community 1,NA,TRUE,f,f,NA,NA,NA,2,6,"14,12,8,9,11,6,13,7,2,10,3,15,5,1,4"
14718,commdev-image-keyboard-response,65,267510,learnblock1,788,img/planet14_right.png,14,Community 1,NA,TRUE,j,j,NA,NA,NA,2,6,"14,12,8,9,11,6,13,7,2,10,3,15,5,1,4"
14718,commdev-image-keyboard-response,66,268761,learnblock1,793,img/planet11_left.png,11,Community 1,NA,TRUE,f,f,NA,NA,NA,2,6,"14,12,8,9,11,6,13,7,2,10,3,15,5,1,4"
14718,commdev-image-keyboard-response,67,270012,learnblock1,726,img/planet3_left.png,3,Community 3,NA,TRUE,f,f,NA,NA,NA,2,6,"14,12,8,9,11,6,13,7,2,10,3,15,5,1,4"
14718,commdev-image-keyboard-response,68,271263,learnblock1,659,img/planet1_left.png,1,Community 3,NA,TRUE,f,f,NA,NA,NA,2,6,"14,12,8,9,11,6,13,7,2,10,3,15,5,1,4"
14718,commdev-image-keyboard-response,69,272514,learnblock1,688,img/planet3_left.png,3,Community 3,NA,TRUE,f,f,NA,NA,NA,2,6,"14,12,8,9,11,6,13,7,2,10,3,15,5,1,4"
14718,commdev-image-keyboard-response,70,273765,learnblock1,637,img/planet11_left.png,11,Community 1,NA,TRUE,f,f,NA,NA,NA,2,6,"14,12,8,9,11,6,13,7,2,10,3,15,5,1,4"
14718,commdev-image-keyboard-response,71,275016,learnblock1,834,img/planet8_right.png,8,Community 1,NA,TRUE,j,j,NA,NA,NA,2,6,"14,12,8,9,11,6,13,7,2,10,3,15,5,1,4"
14718,commdev-image-keyboard-response,72,276267,learnblock1,711,img/planet11_left.png,11,Community 1,NA,TRUE,f,f,NA,NA,NA,2,6,"14,12,8,9,11,6,13,7,2,10,3,15,5,1,4"
14718,commdev-image-keyboard-response,73,277518,learnblock1,1164,img/planet8_left.png,8,Community 1,NA,TRUE,f,f,NA,NA,NA,2,6,"14,12,8,9,11,6,13,7,2,10,3,15,5,1,4"
14718,commdev-image-keyboard-response,74,278769,learnblock1,769,img/planet11_left.png,11,Community 1,NA,TRUE,f,f,NA,NA,NA,2,6,"14,12,8,9,11,6,13,7,2,10,3,15,5,1,4"
14718,commdev-image-keyboard-response,75,280020,learnblock1,669.9999999999418,img/planet14_right.png,14,Community 1,NA,TRUE,j,j,NA,NA,NA,2,6,"14,12,8,9,11,6,13,7,2,10,3,15,5,1,4"
14718,commdev-image-keyboard-response,76,281271,learnblock1,595,img/planet12_right.png,12,Community 1,NA,TRUE,j,j,NA,NA,NA,2,6,"14,12,8,9,11,6,13,7,2,10,3,15,5,1,4"
14718,commdev-image-keyboard-response,77,282522,learnblock1,745,img/planet11_left.png,11,Community 1,NA,TRUE,f,f,NA,NA,NA,2,6,"14,12,8,9,11,6,13,7,2,10,3,15,5,1,4"
14718,commdev-image-keyboard-response,78,283773,learnblock1,781,img/planet8_right.png,8,Community 1,NA,TRUE,j,j,NA,NA,NA,2,6,"14,12,8,9,11,6,13,7,2,10,3,15,5,1,4"
14718,commdev-image-keyboard-response,79,285024,learnblock1,850,img/planet12_left.png,12,Community 1,NA,TRUE,f,f,NA,NA,NA,2,6,"14,12,8,9,11,6,13,7,2,10,3,15,5,1,4"
14718,commdev-image-keyboard-response,80,286275,learnblock1,663,img/planet8_right.png,8,Community 1,NA,TRUE,j,j,NA,NA,NA,2,6,"14,12,8,9,11,6,13,7,2,10,3,15,5,1,4"
14718,commdev-image-keyboard-response,81,287526,learnblock1,724,img/planet12_left.png,12,Community 1,NA,TRUE,f,f,NA,NA,NA,2,6,"14,12,8,9,11,6,13,7,2,10,3,15,5,1,4"
14718,commdev-image-keyboard-response,82,288777,learnblock1,761,img/planet8_right.png,8,Community 1,NA,TRUE,j,j,NA,NA,NA,2,6,"14,12,8,9,11,6,13,7,2,10,3,15,5,1,4"
14718,commdev-image-keyboard-response,83,290028,learnblock1,967,img/planet9_right.png,9,Community 1,NA,TRUE,j,j,NA,NA,NA,2,6,"14,12,8,9,11,6,13,7,2,10,3,15,5,1,4"
14718,commdev-image-keyboard-response,84,291279,learnblock1,787,img/planet14_left.png,14,Community 1,NA,TRUE,f,f,NA,NA,NA,2,6,"14,12,8,9,11,6,13,7,2,10,3,15,5,1,4"
14718,commdev-image-keyboard-response,85,292530,learnblock1,976,img/planet9_left.png,9,Community 1,NA,TRUE,f,f,NA,NA,NA,2,6,"14,12,8,9,11,6,13,7,2,10,3,15,5,1,4"
14718,commdev-image-keyboard-response,86,293781,learnblock1,701,img/planet14_right.png,14,Community 1,NA,TRUE,j,j,NA,NA,NA,2,6,"14,12,8,9,11,6,13,7,2,10,3,15,5,1,4"
14718,commdev-image-keyboard-response,87,295032,learnblock1,707,img/planet8_right.png,8,Community 1,NA,TRUE,j,j,NA,NA,NA,2,6,"14,12,8,9,11,6,13,7,2,10,3,15,5,1,4"
14718,commdev-image-keyboard-response,88,296283,learnblock1,967.9999999999418,img/planet12_left.png,12,Community 1,NA,TRUE,f,f,NA,NA,NA,2,6,"14,12,8,9,11,6,13,7,2,10,3,15,5,1,4"
14718,commdev-image-keyboard-response,89,297534,learnblock1,956,img/planet8_left.png,8,Community 1,NA,TRUE,f,f,NA,NA,NA,2,6,"14,12,8,9,11,6,13,7,2,10,3,15,5,1,4"
14718,commdev-image-keyboard-response,90,298787,learnblock1,1072,img/planet14_right.png,14,Community 1,NA,TRUE,j,j,NA,NA,NA,2,6,"14,12,8,9,11,6,13,7,2,10,3,15,5,1,4"
14718,commdev-image-keyboard-response,91,300039,learnblock1,604,img/planet11_right.png,11,Community 1,NA,TRUE,j,j,NA,NA,NA,2,6,"14,12,8,9,11,6,13,7,2,10,3,15,5,1,4"
14718,commdev-image-keyboard-response,92,301290,learnblock1,873,img/planet14_left.png,14,Community 1,NA,TRUE,f,f,NA,NA,NA,2,6,"14,12,8,9,11,6,13,7,2,10,3,15,5,1,4"
14718,commdev-image-keyboard-response,93,302541,learnblock1,942,img/planet8_left.png,8,Community 1,NA,TRUE,f,f,NA,NA,NA,2,6,"14,12,8,9,11,6,13,7,2,10,3,15,5,1,4"
14718,commdev-image-keyboard-response,94,303792,learnblock1,699,img/planet12_left.png,12,Community 1,NA,TRUE,f,f,NA,NA,NA,2,6,"14,12,8,9,11,6,13,7,2,10,3,15,5,1,4"
14718,commdev-image-keyboard-response,95,305043,learnblock1,696,img/planet11_left.png,11,Community 1,NA,TRUE,f,f,NA,NA,NA,2,6,"14,12,8,9,11,6,13,7,2,10,3,15,5,1,4"
14718,commdev-image-keyboard-response,96,306294,learnblock1,965.0000000000582,img/planet3_right.png,3,Community 3,NA,TRUE,j,j,NA,NA,NA,2,6,"14,12,8,9,11,6,13,7,2,10,3,15,5,1,4"
14718,commdev-image-keyboard-response,97,307544,learnblock1,585.9999999999418,img/planet11_right.png,11,Community 1,NA,TRUE,j,j,NA,NA,NA,2,6,"14,12,8,9,11,6,13,7,2,10,3,15,5,1,4"
14718,commdev-image-keyboard-response,98,308796,learnblock1,775,img/planet3_right.png,3,Community 3,NA,TRUE,j,j,NA,NA,NA,2,6,"14,12,8,9,11,6,13,7,2,10,3,15,5,1,4"
14718,commdev-image-keyboard-response,99,310047,learnblock1,796.0000000000582,img/planet5_left.png,5,Community 3,NA,TRUE,f,f,NA,NA,NA,2,6,"14,12,8,9,11,6,13,7,2,10,3,15,5,1,4"
14718,commdev-image-keyboard-response,100,311297,learnblock1,1113,img/planet3_right.png,3,Community 3,NA,TRUE,j,j,NA,NA,NA,2,6,"14,12,8,9,11,6,13,7,2,10,3,15,5,1,4"
14718,commdev-image-keyboard-response,101,312548,learnblock1,798,img/planet4_right.png,4,Community 3,NA,TRUE,j,j,NA,NA,NA,2,6,"14,12,8,9,11,6,13,7,2,10,3,15,5,1,4"
14718,commdev-image-keyboard-response,102,313799,learnblock1,571,img/planet1_right.png,1,Community 3,NA,TRUE,j,j,NA,NA,NA,2,6,"14,12,8,9,11,6,13,7,2,10,3,15,5,1,4"
14718,commdev-image-keyboard-response,103,315050,learnblock1,584,img/planet5_right.png,5,Community 3,NA,TRUE,j,j,NA,NA,NA,2,6,"14,12,8,9,11,6,13,7,2,10,3,15,5,1,4"
14718,commdev-image-keyboard-response,104,316301,learnblock1,757,img/planet3_left.png,3,Community 3,NA,TRUE,f,f,NA,NA,NA,2,6,"14,12,8,9,11,6,13,7,2,10,3,15,5,1,4"
14718,commdev-image-keyboard-response,105,317552,learnblock1,722,img/planet11_right.png,11,Community 1,NA,TRUE,j,j,NA,NA,NA,2,6,"14,12,8,9,11,6,13,7,2,10,3,15,5,1,4"
14718,commdev-image-keyboard-response,106,318803,learnblock1,879,img/planet8_left.png,8,Community 1,NA,TRUE,f,f,NA,NA,NA,2,6,"14,12,8,9,11,6,13,7,2,10,3,15,5,1,4"
14718,commdev-image-keyboard-response,107,320054,learnblock1,492,img/planet9_left.png,9,Community 1,NA,TRUE,f,f,NA,NA,NA,2,6,"14,12,8,9,11,6,13,7,2,10,3,15,5,1,4"
14718,commdev-image-keyboard-response,108,321305,learnblock1,673,img/planet14_left.png,14,Community 1,NA,TRUE,f,f,NA,NA,NA,2,6,"14,12,8,9,11,6,13,7,2,10,3,15,5,1,4"
14718,commdev-image-keyboard-response,109,322556,learnblock1,781.9999999999418,img/planet12_right.png,12,Community 1,NA,TRUE,j,j,NA,NA,NA,2,6,"14,12,8,9,11,6,13,7,2,10,3,15,5,1,4"
14718,commdev-image-keyboard-response,110,323807,learnblock1,627,img/planet9_left.png,9,Community 1,NA,TRUE,f,f,NA,NA,NA,2,6,"14,12,8,9,11,6,13,7,2,10,3,15,5,1,4"
14718,commdev-image-keyboard-response,111,325058,learnblock1,808.0000000000582,img/planet8_left.png,8,Community 1,NA,TRUE,f,f,NA,NA,NA,2,6,"14,12,8,9,11,6,13,7,2,10,3,15,5,1,4"
14718,commdev-image-keyboard-response,112,326309,learnblock1,573,img/planet9_left.png,9,Community 1,NA,TRUE,f,f,NA,NA,NA,2,6,"14,12,8,9,11,6,13,7,2,10,3,15,5,1,4"
14718,commdev-image-keyboard-response,113,327560,learnblock1,722.0000000000582,img/planet14_right.png,14,Community 1,NA,TRUE,j,j,NA,NA,NA,2,6,"14,12,8,9,11,6,13,7,2,10,3,15,5,1,4"
14718,commdev-image-keyboard-response,114,328811,learnblock1,1127,img/planet8_right.png,8,Community 1,NA,TRUE,j,j,NA,NA,NA,2,6,"14,12,8,9,11,6,13,7,2,10,3,15,5,1,4"
14718,commdev-image-keyboard-response,115,330062,learnblock1,748,img/planet9_left.png,9,Community 1,NA,TRUE,f,f,NA,NA,NA,2,6,"14,12,8,9,11,6,13,7,2,10,3,15,5,1,4"
14718,commdev-image-keyboard-response,116,331313,learnblock1,721,img/planet14_right.png,14,Community 1,NA,TRUE,j,j,NA,NA,NA,2,6,"14,12,8,9,11,6,13,7,2,10,3,15,5,1,4"
14718,commdev-image-keyboard-response,117,332564,learnblock1,542,img/planet9_right.png,9,Community 1,NA,TRUE,j,j,NA,NA,NA,2,6,"14,12,8,9,11,6,13,7,2,10,3,15,5,1,4"
14718,commdev-image-keyboard-response,118,333815,learnblock1,859,img/planet14_left.png,14,Community 1,NA,TRUE,f,f,NA,NA,NA,2,6,"14,12,8,9,11,6,13,7,2,10,3,15,5,1,4"
14718,commdev-image-keyboard-response,119,335066,learnblock1,544,img/planet12_left.png,12,Community 1,NA,TRUE,f,f,NA,NA,NA,2,6,"14,12,8,9,11,6,13,7,2,10,3,15,5,1,4"
14718,commdev-image-keyboard-response,120,336317,learnblock1,661,img/planet14_right.png,14,Community 1,NA,TRUE,j,j,NA,NA,NA,2,6,"14,12,8,9,11,6,13,7,2,10,3,15,5,1,4"
14718,commdev-image-keyboard-response,121,337568,learnblock1,569.9999999999418,img/planet9_right.png,9,Community 1,NA,TRUE,j,j,NA,NA,NA,2,6,"14,12,8,9,11,6,13,7,2,10,3,15,5,1,4"
14718,commdev-image-keyboard-response,122,338819,learnblock1,719,img/planet12_right.png,12,Community 1,NA,TRUE,j,j,NA,NA,NA,2,6,"14,12,8,9,11,6,13,7,2,10,3,15,5,1,4"
14718,commdev-image-keyboard-response,123,340070,learnblock1,636,img/planet9_left.png,9,Community 1,NA,TRUE,f,f,NA,NA,NA,2,6,"14,12,8,9,11,6,13,7,2,10,3,15,5,1,4"
14718,commdev-image-keyboard-response,124,341321,learnblock1,1009.0000000000582,img/planet14_right.png,14,Community 1,NA,TRUE,j,j,NA,NA,NA,2,6,"14,12,8,9,11,6,13,7,2,10,3,15,5,1,4"
14718,commdev-image-keyboard-response,125,342572,learnblock1,991,img/planet8_right.png,8,Community 1,NA,TRUE,j,j,NA,NA,NA,2,6,"14,12,8,9,11,6,13,7,2,10,3,15,5,1,4"
14718,commdev-image-keyboard-response,126,343823,learnblock1,908,img/planet12_left.png,12,Community 1,NA,TRUE,f,f,NA,NA,NA,2,6,"14,12,8,9,11,6,13,7,2,10,3,15,5,1,4"
14718,commdev-image-keyboard-response,127,345074,learnblock1,897,img/planet9_left.png,9,Community 1,NA,TRUE,f,f,NA,NA,NA,2,6,"14,12,8,9,11,6,13,7,2,10,3,15,5,1,4"
14718,commdev-image-keyboard-response,128,346325,learnblock1,734,img/planet6_left.png,6,Community 2,NA,TRUE,f,f,NA,NA,NA,2,6,"14,12,8,9,11,6,13,7,2,10,3,15,5,1,4"
14718,commdev-image-keyboard-response,129,347576,learnblock1,579,img/planet13_left.png,13,Community 2,NA,TRUE,f,f,NA,NA,NA,2,6,"14,12,8,9,11,6,13,7,2,10,3,15,5,1,4"
14718,commdev-image-keyboard-response,130,348827,learnblock1,568,img/planet6_left.png,6,Community 2,NA,TRUE,f,f,NA,NA,NA,2,6,"14,12,8,9,11,6,13,7,2,10,3,15,5,1,4"
14718,commdev-image-keyboard-response,131,350078,learnblock1,645.0000000000582,img/planet10_left.png,10,Community 2,NA,TRUE,f,f,NA,NA,NA,2,6,"14,12,8,9,11,6,13,7,2,10,3,15,5,1,4"
14718,commdev-image-keyboard-response,132,351329,learnblock1,626,img/planet6_right.png,6,Community 2,NA,TRUE,j,j,NA,NA,NA,2,6,"14,12,8,9,11,6,13,7,2,10,3,15,5,1,4"
14718,commdev-image-keyboard-response,133,352580,learnblock1,559,img/planet10_right.png,10,Community 2,NA,TRUE,j,j,NA,NA,NA,2,6,"14,12,8,9,11,6,13,7,2,10,3,15,5,1,4"
14718,commdev-image-keyboard-response,134,353831,learnblock1,771.9999999999418,img/planet13_left.png,13,Community 2,NA,TRUE,f,f,NA,NA,NA,2,6,"14,12,8,9,11,6,13,7,2,10,3,15,5,1,4"
14718,commdev-image-keyboard-response,135,355082,learnblock1,1105,img/planet6_left.png,6,Community 2,NA,TRUE,f,f,NA,NA,NA,2,6,"14,12,8,9,11,6,13,7,2,10,3,15,5,1,4"
14718,commdev-image-keyboard-response,136,356333,learnblock1,766,img/planet2_right.png,2,Community 2,NA,TRUE,j,j,NA,NA,NA,2,6,"14,12,8,9,11,6,13,7,2,10,3,15,5,1,4"
14718,commdev-image-keyboard-response,137,357584,learnblock1,939,img/planet7_right.png,7,Community 2,NA,TRUE,j,j,NA,NA,NA,2,6,"14,12,8,9,11,6,13,7,2,10,3,15,5,1,4"
14718,commdev-image-keyboard-response,138,358835,learnblock1,616,img/planet13_right.png,13,Community 2,NA,TRUE,j,j,NA,NA,NA,2,6,"14,12,8,9,11,6,13,7,2,10,3,15,5,1,4"
14718,commdev-image-keyboard-response,139,360086,learnblock1,573,img/planet6_right.png,6,Community 2,NA,TRUE,j,j,NA,NA,NA,2,6,"14,12,8,9,11,6,13,7,2,10,3,15,5,1,4"
14718,commdev-image-keyboard-response,140,361337,learnblock1,530.0000000000582,img/planet2_right.png,2,Community 2,NA,TRUE,j,j,NA,NA,NA,2,6,"14,12,8,9,11,6,13,7,2,10,3,15,5,1,4"
14718,commdev-image-keyboard-response,141,362588,learnblock1,680,img/planet7_right.png,7,Community 2,NA,TRUE,j,j,NA,NA,NA,2,6,"14,12,8,9,11,6,13,7,2,10,3,15,5,1,4"
14718,commdev-image-keyboard-response,142,363839,learnblock1,724,img/planet10_left.png,10,Community 2,NA,TRUE,f,f,NA,NA,NA,2,6,"14,12,8,9,11,6,13,7,2,10,3,15,5,1,4"
14718,commdev-image-keyboard-response,143,365090,learnblock1,833,img/planet13_right.png,13,Community 2,NA,TRUE,j,j,NA,NA,NA,2,6,"14,12,8,9,11,6,13,7,2,10,3,15,5,1,4"
14718,commdev-image-keyboard-response,144,366341,learnblock1,774,img/planet10_right.png,10,Community 2,NA,TRUE,j,j,NA,NA,NA,2,6,"14,12,8,9,11,6,13,7,2,10,3,15,5,1,4"
14718,commdev-image-keyboard-response,145,367592,learnblock1,803,img/planet13_left.png,13,Community 2,NA,TRUE,f,f,NA,NA,NA,2,6,"14,12,8,9,11,6,13,7,2,10,3,15,5,1,4"
14718,commdev-image-keyboard-response,146,368843,learnblock1,615.9999999999418,img/planet10_left.png,10,Community 2,NA,TRUE,f,f,NA,NA,NA,2,6,"14,12,8,9,11,6,13,7,2,10,3,15,5,1,4"
14718,commdev-image-keyboard-response,147,370094,learnblock1,853,img/planet7_right.png,7,Community 2,NA,TRUE,j,j,NA,NA,NA,2,6,"14,12,8,9,11,6,13,7,2,10,3,15,5,1,4"
14718,commdev-image-keyboard-response,148,371345,learnblock1,914.0000000000582,img/planet10_left.png,10,Community 2,NA,TRUE,f,f,NA,NA,NA,2,6,"14,12,8,9,11,6,13,7,2,10,3,15,5,1,4"
14718,commdev-image-keyboard-response,149,372596,learnblock1,983,img/planet6_right.png,6,Community 2,NA,TRUE,j,j,NA,NA,NA,2,6,"14,12,8,9,11,6,13,7,2,10,3,15,5,1,4"
14718,commdev-image-keyboard-response,150,373848,learnblock1,522.9999999999418,img/planet10_right.png,10,Community 2,NA,TRUE,j,j,NA,NA,NA,2,6,"14,12,8,9,11,6,13,7,2,10,3,15,5,1,4"
14718,commdev-image-keyboard-response,151,375100,learnblock1,663,img/planet2_left.png,2,Community 2,NA,TRUE,f,f,NA,NA,NA,2,6,"14,12,8,9,11,6,13,7,2,10,3,15,5,1,4"
14718,commdev-image-keyboard-response,152,376352,learnblock1,780,img/planet7_left.png,7,Community 2,NA,TRUE,f,f,NA,NA,NA,2,6,"14,12,8,9,11,6,13,7,2,10,3,15,5,1,4"
14718,commdev-image-keyboard-response,153,377602,learnblock1,624,img/planet2_left.png,2,Community 2,NA,TRUE,f,f,NA,NA,NA,2,6,"14,12,8,9,11,6,13,7,2,10,3,15,5,1,4"
14718,commdev-image-keyboard-response,154,378854,learnblock1,749,img/planet7_right.png,7,Community 2,NA,TRUE,j,j,NA,NA,NA,2,6,"14,12,8,9,11,6,13,7,2,10,3,15,5,1,4"
14718,commdev-image-keyboard-response,155,380104,learnblock1,545.9999999999418,img/planet13_right.png,13,Community 2,NA,TRUE,j,j,NA,NA,NA,2,6,"14,12,8,9,11,6,13,7,2,10,3,15,5,1,4"
14718,commdev-image-keyboard-response,156,381356,learnblock1,551,img/planet2_right.png,2,Community 2,NA,TRUE,j,j,NA,NA,NA,2,6,"14,12,8,9,11,6,13,7,2,10,3,15,5,1,4"
14718,commdev-image-keyboard-response,157,382607,learnblock1,804,img/planet10_left.png,10,Community 2,NA,TRUE,f,f,NA,NA,NA,2,6,"14,12,8,9,11,6,13,7,2,10,3,15,5,1,4"
14718,commdev-image-keyboard-response,158,383857,learnblock1,809,img/planet7_right.png,7,Community 2,NA,TRUE,j,j,NA,NA,NA,2,6,"14,12,8,9,11,6,13,7,2,10,3,15,5,1,4"
14718,commdev-image-keyboard-response,159,385108,learnblock1,750,img/planet15_right.png,15,Community 3,NA,TRUE,j,j,NA,NA,NA,2,6,"14,12,8,9,11,6,13,7,2,10,3,15,5,1,4"
14718,commdev-image-keyboard-response,160,386359,learnblock1,594.9999999999418,img/planet1_right.png,1,Community 3,NA,TRUE,j,j,NA,NA,NA,2,6,"14,12,8,9,11,6,13,7,2,10,3,15,5,1,4"
14718,commdev-image-keyboard-response,161,387610,learnblock1,712,img/planet3_left.png,3,Community 3,NA,TRUE,f,f,NA,NA,NA,2,6,"14,12,8,9,11,6,13,7,2,10,3,15,5,1,4"
14718,commdev-image-keyboard-response,162,388861,learnblock1,542.0000000000582,img/planet1_right.png,1,Community 3,NA,FALSE,f,j,NA,NA,NA,2,6,"14,12,8,9,11,6,13,7,2,10,3,15,5,1,4"
14718,commdev-image-keyboard-response,163,390112,learnblock1,819,img/planet4_left.png,4,Community 3,NA,TRUE,f,f,NA,NA,NA,2,6,"14,12,8,9,11,6,13,7,2,10,3,15,5,1,4"
14718,commdev-image-keyboard-response,164,391363,learnblock1,921,img/planet15_left.png,15,Community 3,NA,TRUE,f,f,NA,NA,NA,2,6,"14,12,8,9,11,6,13,7,2,10,3,15,5,1,4"
14718,commdev-image-keyboard-response,165,392614,learnblock1,741.0000000000582,img/planet7_right.png,7,Community 2,NA,TRUE,j,j,NA,NA,NA,2,6,"14,12,8,9,11,6,13,7,2,10,3,15,5,1,4"
14718,commdev-image-keyboard-response,166,393865,learnblock1,586,img/planet13_right.png,13,Community 2,NA,TRUE,j,j,NA,NA,NA,2,6,"14,12,8,9,11,6,13,7,2,10,3,15,5,1,4"
14718,commdev-image-keyboard-response,167,395116,learnblock1,615,img/planet2_right.png,2,Community 2,NA,TRUE,j,j,NA,NA,NA,2,6,"14,12,8,9,11,6,13,7,2,10,3,15,5,1,4"
14718,commdev-image-keyboard-response,168,396367,learnblock1,755.9999999999418,img/planet7_left.png,7,Community 2,NA,TRUE,f,f,NA,NA,NA,2,6,"14,12,8,9,11,6,13,7,2,10,3,15,5,1,4"
14718,commdev-image-keyboard-response,169,397618,learnblock1,936,img/planet13_right.png,13,Community 2,NA,TRUE,j,j,NA,NA,NA,2,6,"14,12,8,9,11,6,13,7,2,10,3,15,5,1,4"
14718,commdev-image-keyboard-response,170,398869,learnblock1,758,img/planet2_left.png,2,Community 2,NA,TRUE,f,f,NA,NA,NA,2,6,"14,12,8,9,11,6,13,7,2,10,3,15,5,1,4"
14718,commdev-image-keyboard-response,171,400120,learnblock1,739,img/planet10_left.png,10,Community 2,NA,TRUE,f,f,NA,NA,NA,2,6,"14,12,8,9,11,6,13,7,2,10,3,15,5,1,4"
14718,commdev-image-keyboard-response,172,401371,learnblock1,584,img/planet13_left.png,13,Community 2,NA,TRUE,f,f,NA,NA,NA,2,6,"14,12,8,9,11,6,13,7,2,10,3,15,5,1,4"
14718,commdev-image-keyboard-response,173,402622,learnblock1,556.9999999999418,img/planet10_left.png,10,Community 2,NA,TRUE,f,f,NA,NA,NA,2,6,"14,12,8,9,11,6,13,7,2,10,3,15,5,1,4"
14718,commdev-image-keyboard-response,174,403873,learnblock1,490,img/planet2_left.png,2,Community 2,NA,TRUE,f,f,NA,NA,NA,2,6,"14,12,8,9,11,6,13,7,2,10,3,15,5,1,4"
14718,commdev-image-keyboard-response,175,405124,learnblock1,615,img/planet6_left.png,6,Community 2,NA,TRUE,f,f,NA,NA,NA,2,6,"14,12,8,9,11,6,13,7,2,10,3,15,5,1,4"
14718,commdev-image-keyboard-response,176,406375,learnblock1,748,img/planet2_right.png,2,Community 2,NA,TRUE,j,j,NA,NA,NA,2,6,"14,12,8,9,11,6,13,7,2,10,3,15,5,1,4"
14718,commdev-image-keyboard-response,177,407626,learnblock1,609.0000000000582,img/planet10_right.png,10,Community 2,NA,TRUE,j,j,NA,NA,NA,2,6,"14,12,8,9,11,6,13,7,2,10,3,15,5,1,4"
14718,commdev-image-keyboard-response,178,408877,learnblock1,646,img/planet2_left.png,2,Community 2,NA,TRUE,f,f,NA,NA,NA,2,6,"14,12,8,9,11,6,13,7,2,10,3,15,5,1,4"
14718,commdev-image-keyboard-response,179,410128,learnblock1,723,img/planet6_left.png,6,Community 2,NA,TRUE,f,f,NA,NA,NA,2,6,"14,12,8,9,11,6,13,7,2,10,3,15,5,1,4"
14718,commdev-image-keyboard-response,180,411379,learnblock1,631.9999999999418,img/planet13_right.png,13,Community 2,NA,TRUE,j,j,NA,NA,NA,2,6,"14,12,8,9,11,6,13,7,2,10,3,15,5,1,4"
14718,commdev-image-keyboard-response,181,412633,learnblock1,629,img/planet7_right.png,7,Community 2,NA,TRUE,j,j,NA,NA,NA,2,6,"14,12,8,9,11,6,13,7,2,10,3,15,5,1,4"
14718,commdev-image-keyboard-response,182,413884,learnblock1,782.9999999999418,img/planet15_left.png,15,Community 3,NA,TRUE,f,f,NA,NA,NA,2,6,"14,12,8,9,11,6,13,7,2,10,3,15,5,1,4"
14718,commdev-image-keyboard-response,183,415135,learnblock1,772,img/planet7_left.png,7,Community 2,NA,TRUE,f,f,NA,NA,NA,2,6,"14,12,8,9,11,6,13,7,2,10,3,15,5,1,4"
14718,commdev-image-keyboard-response,184,416386,learnblock1,657,img/planet15_right.png,15,Community 3,NA,TRUE,j,j,NA,NA,NA,2,6,"14,12,8,9,11,6,13,7,2,10,3,15,5,1,4"
14718,commdev-image-keyboard-response,185,417637,learnblock1,998,img/planet4_left.png,4,Community 3,NA,TRUE,f,f,NA,NA,NA,2,6,"14,12,8,9,11,6,13,7,2,10,3,15,5,1,4"
14718,commdev-image-keyboard-response,186,418888,learnblock1,827,img/planet15_right.png,15,Community 3,NA,TRUE,j,j,NA,NA,NA,2,6,"14,12,8,9,11,6,13,7,2,10,3,15,5,1,4"
14718,commdev-image-keyboard-response,187,420139,learnblock1,592,img/planet4_right.png,4,Community 3,NA,TRUE,j,j,NA,NA,NA,2,6,"14,12,8,9,11,6,13,7,2,10,3,15,5,1,4"
14718,commdev-image-keyboard-response,188,421390,learnblock1,725,img/planet15_left.png,15,Community 3,NA,TRUE,f,f,NA,NA,NA,2,6,"14,12,8,9,11,6,13,7,2,10,3,15,5,1,4"
14718,commdev-image-keyboard-response,189,422641,learnblock1,945.9999999999418,img/planet7_right.png,7,Community 2,NA,TRUE,j,j,NA,NA,NA,2,6,"14,12,8,9,11,6,13,7,2,10,3,15,5,1,4"
14718,commdev-image-keyboard-response,190,423892,learnblock1,639,img/planet10_left.png,10,Community 2,NA,TRUE,f,f,NA,NA,NA,2,6,"14,12,8,9,11,6,13,7,2,10,3,15,5,1,4"
14718,commdev-image-keyboard-response,191,425144,learnblock1,668,img/planet13_left.png,13,Community 2,NA,TRUE,f,f,NA,NA,NA,2,6,"14,12,8,9,11,6,13,7,2,10,3,15,5,1,4"
14718,commdev-image-keyboard-response,192,426396,learnblock1,624,img/planet10_left.png,10,Community 2,NA,TRUE,f,f,NA,NA,NA,2,6,"14,12,8,9,11,6,13,7,2,10,3,15,5,1,4"
14718,commdev-image-keyboard-response,193,427648,learnblock1,676,img/planet7_left.png,7,Community 2,NA,TRUE,f,f,NA,NA,NA,2,6,"14,12,8,9,11,6,13,7,2,10,3,15,5,1,4"
14718,commdev-image-keyboard-response,194,428899,learnblock1,673,img/planet15_left.png,15,Community 3,NA,TRUE,f,f,NA,NA,NA,2,6,"14,12,8,9,11,6,13,7,2,10,3,15,5,1,4"
14718,commdev-image-keyboard-response,195,430150,learnblock1,726,img/planet7_right.png,7,Community 2,NA,TRUE,j,j,NA,NA,NA,2,6,"14,12,8,9,11,6,13,7,2,10,3,15,5,1,4"
14718,commdev-image-keyboard-response,196,431401,learnblock1,867,img/planet10_right.png,10,Community 2,NA,TRUE,j,j,NA,NA,NA,2,6,"14,12,8,9,11,6,13,7,2,10,3,15,5,1,4"
14718,commdev-image-keyboard-response,197,432652,learnblock1,712,img/planet6_left.png,6,Community 2,NA,TRUE,f,f,NA,NA,NA,2,6,"14,12,8,9,11,6,13,7,2,10,3,15,5,1,4"
14718,commdev-image-keyboard-response,198,433905,learnblock1,811,img/planet13_left.png,13,Community 2,NA,TRUE,f,f,NA,NA,NA,2,6,"14,12,8,9,11,6,13,7,2,10,3,15,5,1,4"
14718,commdev-image-keyboard-response,199,435158,learnblock1,1102.0000000000582,img/planet7_right.png,7,Community 2,NA,TRUE,j,j,NA,NA,NA,2,6,"14,12,8,9,11,6,13,7,2,10,3,15,5,1,4"
14718,commdev-image-keyboard-response,200,436410,learnblock1,754,img/planet2_left.png,2,Community 2,NA,TRUE,f,f,NA,NA,NA,2,6,"14,12,8,9,11,6,13,7,2,10,3,15,5,1,4"
14718,commdev-image-keyboard-response,201,437661,learnblock1,758,img/planet10_right.png,10,Community 2,NA,TRUE,j,j,NA,NA,NA,2,6,"14,12,8,9,11,6,13,7,2,10,3,15,5,1,4"
14718,commdev-image-keyboard-response,202,438912,learnblock1,539,img/planet13_right.png,13,Community 2,NA,TRUE,j,j,NA,NA,NA,2,6,"14,12,8,9,11,6,13,7,2,10,3,15,5,1,4"
14718,commdev-image-keyboard-response,203,440163,learnblock1,504,img/planet2_right.png,2,Community 2,NA,TRUE,j,j,NA,NA,NA,2,6,"14,12,8,9,11,6,13,7,2,10,3,15,5,1,4"
14718,commdev-image-keyboard-response,204,441414,learnblock1,773,img/planet6_left.png,6,Community 2,NA,TRUE,f,f,NA,NA,NA,2,6,"14,12,8,9,11,6,13,7,2,10,3,15,5,1,4"
14718,commdev-image-keyboard-response,205,442665,learnblock1,857.9999999999418,img/planet2_right.png,2,Community 2,NA,TRUE,j,j,NA,NA,NA,2,6,"14,12,8,9,11,6,13,7,2,10,3,15,5,1,4"
14718,commdev-image-keyboard-response,206,443916,learnblock1,911,img/planet10_left.png,10,Community 2,NA,TRUE,f,f,NA,NA,NA,2,6,"14,12,8,9,11,6,13,7,2,10,3,15,5,1,4"
14718,commdev-image-keyboard-response,207,445167,learnblock1,804,img/planet6_right.png,6,Community 2,NA,TRUE,j,j,NA,NA,NA,2,6,"14,12,8,9,11,6,13,7,2,10,3,15,5,1,4"
14718,commdev-image-keyboard-response,208,446418,learnblock1,553,img/planet2_right.png,2,Community 2,NA,TRUE,j,j,NA,NA,NA,2,6,"14,12,8,9,11,6,13,7,2,10,3,15,5,1,4"
14718,commdev-image-keyboard-response,209,447669,learnblock1,622,img/planet10_left.png,10,Community 2,NA,TRUE,f,f,NA,NA,NA,2,6,"14,12,8,9,11,6,13,7,2,10,3,15,5,1,4"
14718,commdev-image-keyboard-response,210,448920,learnblock1,610.9999999999418,img/planet13_left.png,13,Community 2,NA,TRUE,f,f,NA,NA,NA,2,6,"14,12,8,9,11,6,13,7,2,10,3,15,5,1,4"
14718,commdev-image-keyboard-response,211,450171,learnblock1,616,img/planet10_left.png,10,Community 2,NA,TRUE,f,f,NA,NA,NA,2,6,"14,12,8,9,11,6,13,7,2,10,3,15,5,1,4"
14718,commdev-image-keyboard-response,212,451422,learnblock1,501,img/planet13_left.png,13,Community 2,NA,TRUE,f,f,NA,NA,NA,2,6,"14,12,8,9,11,6,13,7,2,10,3,15,5,1,4"
14718,commdev-image-keyboard-response,213,452673,learnblock1,730.0000000000582,img/planet7_right.png,7,Community 2,NA,TRUE,j,j,NA,NA,NA,2,6,"14,12,8,9,11,6,13,7,2,10,3,15,5,1,4"
14718,commdev-image-keyboard-response,214,453924,learnblock1,711,img/planet2_right.png,2,Community 2,NA,TRUE,j,j,NA,NA,NA,2,6,"14,12,8,9,11,6,13,7,2,10,3,15,5,1,4"
14718,commdev-image-keyboard-response,215,455175,learnblock1,620.0000000000582,img/planet13_right.png,13,Community 2,NA,TRUE,j,j,NA,NA,NA,2,6,"14,12,8,9,11,6,13,7,2,10,3,15,5,1,4"
14718,commdev-image-keyboard-response,216,456429,learnblock1,687.9999999999418,img/planet6_left.png,6,Community 2,NA,TRUE,f,f,NA,NA,NA,2,6,"14,12,8,9,11,6,13,7,2,10,3,15,5,1,4"
14718,commdev-image-keyboard-response,217,457680,learnblock1,564,img/planet10_left.png,10,Community 2,NA,TRUE,f,f,NA,NA,NA,2,6,"14,12,8,9,11,6,13,7,2,10,3,15,5,1,4"
14718,commdev-image-keyboard-response,218,458931,learnblock1,688,img/planet13_right.png,13,Community 2,NA,TRUE,j,j,NA,NA,NA,2,6,"14,12,8,9,11,6,13,7,2,10,3,15,5,1,4"
14718,commdev-image-keyboard-response,219,460182,learnblock1,804.9999999999418,img/planet6_right.png,6,Community 2,NA,TRUE,j,j,NA,NA,NA,2,6,"14,12,8,9,11,6,13,7,2,10,3,15,5,1,4"
14718,commdev-image-keyboard-response,220,461435,learnblock1,634,img/planet9_right.png,9,Community 1,NA,TRUE,j,j,NA,NA,NA,2,6,"14,12,8,9,11,6,13,7,2,10,3,15,5,1,4"
14718,commdev-image-keyboard-response,221,462687,learnblock1,918,img/planet14_left.png,14,Community 1,NA,TRUE,f,f,NA,NA,NA,2,6,"14,12,8,9,11,6,13,7,2,10,3,15,5,1,4"
14718,commdev-image-keyboard-response,222,463938,learnblock1,818,img/planet9_right.png,9,Community 1,NA,TRUE,j,j,NA,NA,NA,2,6,"14,12,8,9,11,6,13,7,2,10,3,15,5,1,4"
14718,commdev-image-keyboard-response,223,465189,learnblock1,863,img/planet14_right.png,14,Community 1,NA,TRUE,j,j,NA,NA,NA,2,6,"14,12,8,9,11,6,13,7,2,10,3,15,5,1,4"
14718,commdev-image-keyboard-response,224,466440,learnblock1,731.9999999999418,img/planet11_right.png,11,Community 1,NA,TRUE,j,j,NA,NA,NA,2,6,"14,12,8,9,11,6,13,7,2,10,3,15,5,1,4"
14718,commdev-image-keyboard-response,225,467691,learnblock1,777,img/planet14_left.png,14,Community 1,NA,TRUE,f,f,NA,NA,NA,2,6,"14,12,8,9,11,6,13,7,2,10,3,15,5,1,4"
14718,commdev-image-keyboard-response,226,468942,learnblock1,622,img/planet11_left.png,11,Community 1,NA,TRUE,f,f,NA,NA,NA,2,6,"14,12,8,9,11,6,13,7,2,10,3,15,5,1,4"
14718,commdev-image-keyboard-response,227,470193,learnblock1,699.0000000000582,img/planet8_right.png,8,Community 1,NA,TRUE,j,j,NA,NA,NA,2,6,"14,12,8,9,11,6,13,7,2,10,3,15,5,1,4"
14718,commdev-image-keyboard-response,228,471444,learnblock1,864.0000000000582,img/planet9_left.png,9,Community 1,NA,TRUE,f,f,NA,NA,NA,2,6,"14,12,8,9,11,6,13,7,2,10,3,15,5,1,4"
14718,commdev-image-keyboard-response,229,472695,learnblock1,733,img/planet14_right.png,14,Community 1,NA,TRUE,j,j,NA,NA,NA,2,6,"14,12,8,9,11,6,13,7,2,10,3,15,5,1,4"
14718,commdev-image-keyboard-response,230,473946,learnblock1,722,img/planet12_right.png,12,Community 1,NA,TRUE,j,j,NA,NA,NA,2,6,"14,12,8,9,11,6,13,7,2,10,3,15,5,1,4"
14718,commdev-image-keyboard-response,231,475197,learnblock1,623.0000000000582,img/planet9_left.png,9,Community 1,NA,FALSE,j,f,NA,NA,NA,2,6,"14,12,8,9,11,6,13,7,2,10,3,15,5,1,4"
14718,commdev-image-keyboard-response,232,476448,learnblock1,741,img/planet6_right.png,6,Community 2,NA,TRUE,j,j,NA,NA,NA,2,6,"14,12,8,9,11,6,13,7,2,10,3,15,5,1,4"
14718,commdev-image-keyboard-response,233,477699,learnblock1,1153,img/planet2_right.png,2,Community 2,NA,TRUE,j,j,NA,NA,NA,2,6,"14,12,8,9,11,6,13,7,2,10,3,15,5,1,4"
14718,commdev-image-keyboard-response,234,478950,learnblock1,558,img/planet10_right.png,10,Community 2,NA,TRUE,j,j,NA,NA,NA,2,6,"14,12,8,9,11,6,13,7,2,10,3,15,5,1,4"
14718,commdev-image-keyboard-response,235,480201,learnblock1,643.0000000000582,img/planet6_left.png,6,Community 2,NA,TRUE,f,f,NA,NA,NA,2,6,"14,12,8,9,11,6,13,7,2,10,3,15,5,1,4"
14718,commdev-image-keyboard-response,236,481452,learnblock1,751.9999999999418,img/planet10_right.png,10,Community 2,NA,TRUE,j,j,NA,NA,NA,2,6,"14,12,8,9,11,6,13,7,2,10,3,15,5,1,4"
14718,commdev-image-keyboard-response,237,482703,learnblock1,661,img/planet6_right.png,6,Community 2,NA,TRUE,j,j,NA,NA,NA,2,6,"14,12,8,9,11,6,13,7,2,10,3,15,5,1,4"
14718,commdev-image-keyboard-response,238,483954,learnblock1,818.0000000000582,img/planet13_left.png,13,Community 2,NA,TRUE,f,f,NA,NA,NA,2,6,"14,12,8,9,11,6,13,7,2,10,3,15,5,1,4"
14718,commdev-image-keyboard-response,239,485205,learnblock1,695,img/planet7_left.png,7,Community 2,NA,TRUE,f,f,NA,NA,NA,2,6,"14,12,8,9,11,6,13,7,2,10,3,15,5,1,4"
14718,commdev-image-keyboard-response,240,486456,learnblock1,748,img/planet2_right.png,2,Community 2,NA,TRUE,j,j,NA,NA,NA,2,6,"14,12,8,9,11,6,13,7,2,10,3,15,5,1,4"
14718,commdev-image-keyboard-response,241,487708,learnblock1,624.0000000000582,img/planet10_right.png,10,Community 2,NA,TRUE,j,j,NA,NA,NA,2,6,"14,12,8,9,11,6,13,7,2,10,3,15,5,1,4"
14718,commdev-image-keyboard-response,242,488960,learnblock1,636,img/planet2_left.png,2,Community 2,NA,TRUE,f,f,NA,NA,NA,2,6,"14,12,8,9,11,6,13,7,2,10,3,15,5,1,4"
14718,commdev-image-keyboard-response,243,490211,learnblock1,728.0000000000582,img/planet7_left.png,7,Community 2,NA,TRUE,f,f,NA,NA,NA,2,6,"14,12,8,9,11,6,13,7,2,10,3,15,5,1,4"
14718,commdev-image-keyboard-response,244,491463,learnblock1,630,img/planet10_left.png,10,Community 2,NA,TRUE,f,f,NA,NA,NA,2,6,"14,12,8,9,11,6,13,7,2,10,3,15,5,1,4"
14718,commdev-image-keyboard-response,245,492714,learnblock1,809.9999999999418,img/planet2_right.png,2,Community 2,NA,TRUE,j,j,NA,NA,NA,2,6,"14,12,8,9,11,6,13,7,2,10,3,15,5,1,4"
14718,commdev-image-keyboard-response,246,493965,learnblock1,679,img/planet13_left.png,13,Community 2,NA,TRUE,f,f,NA,NA,NA,2,6,"14,12,8,9,11,6,13,7,2,10,3,15,5,1,4"
14718,commdev-image-keyboard-response,247,495216,learnblock1,636,img/planet6_right.png,6,Community 2,NA,TRUE,j,j,NA,NA,NA,2,6,"14,12,8,9,11,6,13,7,2,10,3,15,5,1,4"
14718,commdev-image-keyboard-response,248,496467,learnblock1,689,img/planet13_left.png,13,Community 2,NA,TRUE,f,f,NA,NA,NA,2,6,"14,12,8,9,11,6,13,7,2,10,3,15,5,1,4"
14718,commdev-image-keyboard-response,249,497718,learnblock1,670,img/planet10_right.png,10,Community 2,NA,TRUE,j,j,NA,NA,NA,2,6,"14,12,8,9,11,6,13,7,2,10,3,15,5,1,4"
14718,commdev-image-keyboard-response,250,498969,learnblock1,658.9999999999418,img/planet6_left.png,6,Community 2,NA,TRUE,f,f,NA,NA,NA,2,6,"14,12,8,9,11,6,13,7,2,10,3,15,5,1,4"
14718,commdev-image-keyboard-response,251,500220,learnblock1,640,img/planet2_right.png,2,Community 2,NA,TRUE,j,j,NA,NA,NA,2,6,"14,12,8,9,11,6,13,7,2,10,3,15,5,1,4"
14718,commdev-image-keyboard-response,252,501471,learnblock1,637,img/planet6_right.png,6,Community 2,NA,TRUE,j,j,NA,NA,NA,2,6,"14,12,8,9,11,6,13,7,2,10,3,15,5,1,4"
14718,commdev-image-keyboard-response,253,502722,learnblock1,858,img/planet2_left.png,2,Community 2,NA,TRUE,f,f,NA,NA,NA,2,6,"14,12,8,9,11,6,13,7,2,10,3,15,5,1,4"
14718,commdev-image-keyboard-response,254,503973,learnblock1,799.0000000000582,img/planet7_right.png,7,Community 2,NA,TRUE,j,j,NA,NA,NA,2,6,"14,12,8,9,11,6,13,7,2,10,3,15,5,1,4"
14718,commdev-image-keyboard-response,255,505224,learnblock1,null,img/planet13_right.png,13,Community 2,NA,FALSE,null,j,NA,NA,NA,2,6,"14,12,8,9,11,6,13,7,2,10,3,15,5,1,4"
14718,commdev-image-keyboard-response,256,506475,learnblock1,177,img/planet10_left.png,10,Community 2,NA,FALSE,j,f,NA,NA,NA,2,6,"14,12,8,9,11,6,13,7,2,10,3,15,5,1,4"
14718,commdev-image-keyboard-response,257,507726,learnblock1,758,img/planet6_left.png,6,Community 2,NA,TRUE,f,f,NA,NA,NA,2,6,"14,12,8,9,11,6,13,7,2,10,3,15,5,1,4"
14718,commdev-image-keyboard-response,258,508976,learnblock1,null,img/planet10_right.png,10,Community 2,NA,FALSE,null,j,NA,NA,NA,2,6,"14,12,8,9,11,6,13,7,2,10,3,15,5,1,4"
14718,commdev-image-keyboard-response,259,510227,learnblock1,17,img/planet6_right.png,6,Community 2,NA,TRUE,j,j,NA,NA,NA,2,6,"14,12,8,9,11,6,13,7,2,10,3,15,5,1,4"
14718,commdev-image-keyboard-response,260,511479,learnblock1,325,img/planet13_right.png,13,Community 2,NA,TRUE,j,j,NA,NA,NA,2,6,"14,12,8,9,11,6,13,7,2,10,3,15,5,1,4"
14718,commdev-image-keyboard-response,261,512730,learnblock1,857.9999999999418,img/planet2_right.png,2,Community 2,NA,TRUE,j,j,NA,NA,NA,2,6,"14,12,8,9,11,6,13,7,2,10,3,15,5,1,4"
14718,commdev-image-keyboard-response,262,513980,learnblock1,null,img/planet13_left.png,13,Community 2,NA,FALSE,null,f,NA,NA,NA,2,6,"14,12,8,9,11,6,13,7,2,10,3,15,5,1,4"
14718,commdev-image-keyboard-response,263,515231,learnblock1,13.000000000058208,img/planet6_left.png,6,Community 2,NA,TRUE,f,f,NA,NA,NA,2,6,"14,12,8,9,11,6,13,7,2,10,3,15,5,1,4"
14718,commdev-image-keyboard-response,264,516482,learnblock1,null,img/planet10_right.png,10,Community 2,NA,FALSE,null,j,NA,NA,NA,2,6,"14,12,8,9,11,6,13,7,2,10,3,15,5,1,4"
14718,commdev-image-keyboard-response,265,517736,learnblock1,837,img/planet6_left.png,6,Community 2,NA,TRUE,f,f,NA,NA,NA,2,6,"14,12,8,9,11,6,13,7,2,10,3,15,5,1,4"
14718,commdev-image-keyboard-response,266,518987,learnblock1,1129,img/planet13_left.png,13,Community 2,NA,TRUE,f,f,NA,NA,NA,2,6,"14,12,8,9,11,6,13,7,2,10,3,15,5,1,4"
14718,commdev-image-keyboard-response,267,520238,learnblock1,711,img/planet6_left.png,6,Community 2,NA,TRUE,f,f,NA,NA,NA,2,6,"14,12,8,9,11,6,13,7,2,10,3,15,5,1,4"
14718,commdev-image-keyboard-response,268,521489,learnblock1,null,img/planet9_right.png,9,Community 1,NA,FALSE,null,j,NA,NA,NA,2,6,"14,12,8,9,11,6,13,7,2,10,3,15,5,1,4"
14718,commdev-image-keyboard-response,269,522740,learnblock1,79.99999999994179,img/planet12_left.png,12,Community 1,NA,FALSE,j,f,NA,NA,NA,2,6,"14,12,8,9,11,6,13,7,2,10,3,15,5,1,4"
14718,commdev-image-keyboard-response,270,523991,learnblock1,861,img/planet14_left.png,14,Community 1,NA,TRUE,f,f,NA,NA,NA,2,6,"14,12,8,9,11,6,13,7,2,10,3,15,5,1,4"
14718,commdev-image-keyboard-response,271,525242,learnblock1,1058,img/planet11_right.png,11,Community 1,NA,TRUE,j,j,NA,NA,NA,2,6,"14,12,8,9,11,6,13,7,2,10,3,15,5,1,4"
14718,commdev-image-keyboard-response,272,526493,learnblock1,663,img/planet14_right.png,14,Community 1,NA,TRUE,j,j,NA,NA,NA,2,6,"14,12,8,9,11,6,13,7,2,10,3,15,5,1,4"
14718,commdev-image-keyboard-response,273,527744,learnblock1,852,img/planet9_left.png,9,Community 1,NA,TRUE,f,f,NA,NA,NA,2,6,"14,12,8,9,11,6,13,7,2,10,3,15,5,1,4"
14718,commdev-image-keyboard-response,274,528995,learnblock1,1025,img/planet8_left.png,8,Community 1,NA,TRUE,f,f,NA,NA,NA,2,6,"14,12,8,9,11,6,13,7,2,10,3,15,5,1,4"
14718,commdev-image-keyboard-response,275,530246,learnblock1,574,img/planet9_left.png,9,Community 1,NA,TRUE,f,f,NA,NA,NA,2,6,"14,12,8,9,11,6,13,7,2,10,3,15,5,1,4"
14718,commdev-image-keyboard-response,276,531497,learnblock1,667,img/planet8_right.png,8,Community 1,NA,TRUE,j,j,NA,NA,NA,2,6,"14,12,8,9,11,6,13,7,2,10,3,15,5,1,4"
14718,commdev-image-keyboard-response,277,532748,learnblock1,null,img/planet14_right.png,14,Community 1,NA,FALSE,null,j,NA,NA,NA,2,6,"14,12,8,9,11,6,13,7,2,10,3,15,5,1,4"
14718,commdev-image-keyboard-response,278,533999,learnblock1,21.999999999883585,img/planet9_left.png,9,Community 1,NA,FALSE,j,f,NA,NA,NA,2,6,"14,12,8,9,11,6,13,7,2,10,3,15,5,1,4"
14718,commdev-image-keyboard-response,279,535250,learnblock1,634,img/planet8_right.png,8,Community 1,NA,TRUE,j,j,NA,NA,NA,2,6,"14,12,8,9,11,6,13,7,2,10,3,15,5,1,4"
14718,commdev-image-keyboard-response,280,536501,learnblock1,655,img/planet14_right.png,14,Community 1,NA,TRUE,j,j,NA,NA,NA,2,6,"14,12,8,9,11,6,13,7,2,10,3,15,5,1,4"
14718,commdev-image-keyboard-response,281,537752,learnblock1,732,img/planet11_left.png,11,Community 1,NA,TRUE,f,f,NA,NA,NA,2,6,"14,12,8,9,11,6,13,7,2,10,3,15,5,1,4"
14718,commdev-image-keyboard-response,282,539003,learnblock1,665,img/planet14_right.png,14,Community 1,NA,TRUE,j,j,NA,NA,NA,2,6,"14,12,8,9,11,6,13,7,2,10,3,15,5,1,4"
14718,commdev-image-keyboard-response,283,540254,learnblock1,678.9999999998836,img/planet12_left.png,12,Community 1,NA,FALSE,j,f,NA,NA,NA,2,6,"14,12,8,9,11,6,13,7,2,10,3,15,5,1,4"
14718,commdev-image-keyboard-response,284,541505,learnblock1,627,img/planet11_right.png,11,Community 1,NA,TRUE,j,j,NA,NA,NA,2,6,"14,12,8,9,11,6,13,7,2,10,3,15,5,1,4"
14718,commdev-image-keyboard-response,285,542756,learnblock1,720,img/planet12_right.png,12,Community 1,NA,TRUE,j,j,NA,NA,NA,2,6,"14,12,8,9,11,6,13,7,2,10,3,15,5,1,4"
14718,commdev-image-keyboard-response,286,544007,learnblock1,797,img/planet8_left.png,8,Community 1,NA,TRUE,f,f,NA,NA,NA,2,6,"14,12,8,9,11,6,13,7,2,10,3,15,5,1,4"
14718,commdev-image-keyboard-response,287,545258,learnblock1,852,img/planet12_left.png,12,Community 1,NA,TRUE,f,f,NA,NA,NA,2,6,"14,12,8,9,11,6,13,7,2,10,3,15,5,1,4"
14718,commdev-image-keyboard-response,288,546509,learnblock1,647,img/planet8_right.png,8,Community 1,NA,TRUE,j,j,NA,NA,NA,2,6,"14,12,8,9,11,6,13,7,2,10,3,15,5,1,4"
14718,commdev-image-keyboard-response,289,547760,learnblock1,1004,img/planet11_left.png,11,Community 1,NA,TRUE,f,f,NA,NA,NA,2,6,"14,12,8,9,11,6,13,7,2,10,3,15,5,1,4"
14718,commdev-image-keyboard-response,290,549011,learnblock1,986,img/planet14_right.png,14,Community 1,NA,TRUE,j,j,NA,NA,NA,2,6,"14,12,8,9,11,6,13,7,2,10,3,15,5,1,4"
14718,commdev-image-keyboard-response,291,550264,learnblock1,997,img/planet11_left.png,11,Community 1,NA,TRUE,f,f,NA,NA,NA,2,6,"14,12,8,9,11,6,13,7,2,10,3,15,5,1,4"
14718,commdev-image-keyboard-response,292,551515,learnblock1,817,img/planet3_right.png,3,Community 3,NA,TRUE,j,j,NA,NA,NA,2,6,"14,12,8,9,11,6,13,7,2,10,3,15,5,1,4"
14718,commdev-image-keyboard-response,293,552768,learnblock1,709,img/planet11_left.png,11,Community 1,NA,TRUE,f,f,NA,NA,NA,2,6,"14,12,8,9,11,6,13,7,2,10,3,15,5,1,4"
14718,commdev-image-keyboard-response,294,554020,learnblock1,777,img/planet12_right.png,12,Community 1,NA,TRUE,j,j,NA,NA,NA,2,6,"14,12,8,9,11,6,13,7,2,10,3,15,5,1,4"
14718,commdev-image-keyboard-response,295,555271,learnblock1,573,img/planet9_left.png,9,Community 1,NA,TRUE,f,f,NA,NA,NA,2,6,"14,12,8,9,11,6,13,7,2,10,3,15,5,1,4"
14718,commdev-image-keyboard-response,296,556522,learnblock1,754,img/planet6_right.png,6,Community 2,NA,TRUE,j,j,NA,NA,NA,2,6,"14,12,8,9,11,6,13,7,2,10,3,15,5,1,4"
14718,commdev-image-keyboard-response,297,557773,learnblock1,670.9999999998836,img/planet13_left.png,13,Community 2,NA,TRUE,f,f,NA,NA,NA,2,6,"14,12,8,9,11,6,13,7,2,10,3,15,5,1,4"
14718,commdev-image-keyboard-response,298,559024,learnblock1,741,img/planet7_left.png,7,Community 2,NA,TRUE,f,f,NA,NA,NA,2,6,"14,12,8,9,11,6,13,7,2,10,3,15,5,1,4"
14718,commdev-image-keyboard-response,299,560275,learnblock1,null,img/planet10_left.png,10,Community 2,NA,FALSE,null,f,NA,NA,NA,2,6,"14,12,8,9,11,6,13,7,2,10,3,15,5,1,4"
14718,commdev-image-keyboard-response,300,561526,learnblock1,670.0000000001164,img/planet2_left.png,2,Community 2,NA,TRUE,f,f,NA,NA,NA,2,6,"14,12,8,9,11,6,13,7,2,10,3,15,5,1,4"
14718,commdev-image-keyboard-response,301,562777,learnblock1,779,img/planet6_left.png,6,Community 2,NA,TRUE,f,f,NA,NA,NA,2,6,"14,12,8,9,11,6,13,7,2,10,3,15,5,1,4"
14718,commdev-image-keyboard-response,302,564028,learnblock1,623.9999999998836,img/planet10_left.png,10,Community 2,NA,TRUE,f,f,NA,NA,NA,2,6,"14,12,8,9,11,6,13,7,2,10,3,15,5,1,4"
14718,commdev-image-keyboard-response,303,565279,learnblock1,677,img/planet13_left.png,13,Community 2,NA,TRUE,f,f,NA,NA,NA,2,6,"14,12,8,9,11,6,13,7,2,10,3,15,5,1,4"
14718,commdev-image-keyboard-response,304,566530,learnblock1,706,img/planet7_right.png,7,Community 2,NA,TRUE,j,j,NA,NA,NA,2,6,"14,12,8,9,11,6,13,7,2,10,3,15,5,1,4"
14718,commdev-image-keyboard-response,305,567781,learnblock1,695,img/planet2_left.png,2,Community 2,NA,TRUE,f,f,NA,NA,NA,2,6,"14,12,8,9,11,6,13,7,2,10,3,15,5,1,4"
14718,commdev-image-keyboard-response,306,569032,learnblock1,588,img/planet10_left.png,10,Community 2,NA,TRUE,f,f,NA,NA,NA,2,6,"14,12,8,9,11,6,13,7,2,10,3,15,5,1,4"
14718,commdev-image-keyboard-response,307,570283,learnblock1,561,img/planet7_right.png,7,Community 2,NA,FALSE,f,j,NA,NA,NA,2,6,"14,12,8,9,11,6,13,7,2,10,3,15,5,1,4"
14718,commdev-image-keyboard-response,308,571534,learnblock1,878,img/planet15_left.png,15,Community 3,NA,TRUE,f,f,NA,NA,NA,2,6,"14,12,8,9,11,6,13,7,2,10,3,15,5,1,4"
14718,commdev-image-keyboard-response,309,572785,learnblock1,763,img/planet7_right.png,7,Community 2,NA,TRUE,j,j,NA,NA,NA,2,6,"14,12,8,9,11,6,13,7,2,10,3,15,5,1,4"
14718,commdev-image-keyboard-response,310,574036,learnblock1,680,img/planet15_right.png,15,Community 3,NA,TRUE,j,j,NA,NA,NA,2,6,"14,12,8,9,11,6,13,7,2,10,3,15,5,1,4"
14718,commdev-image-keyboard-response,311,575287,learnblock1,821,img/planet4_left.png,4,Community 3,NA,TRUE,f,f,NA,NA,NA,2,6,"14,12,8,9,11,6,13,7,2,10,3,15,5,1,4"
14718,commdev-image-keyboard-response,312,576538,learnblock1,970,img/planet5_left.png,5,Community 3,NA,TRUE,f,f,NA,NA,NA,2,6,"14,12,8,9,11,6,13,7,2,10,3,15,5,1,4"
14718,commdev-image-keyboard-response,313,577791,learnblock1,726,img/planet1_left.png,1,Community 3,NA,TRUE,f,f,NA,NA,NA,2,6,"14,12,8,9,11,6,13,7,2,10,3,15,5,1,4"
14718,commdev-image-keyboard-response,314,579043,learnblock1,610,img/planet4_right.png,4,Community 3,NA,TRUE,j,j,NA,NA,NA,2,6,"14,12,8,9,11,6,13,7,2,10,3,15,5,1,4"
14718,commdev-image-keyboard-response,315,580294,learnblock1,606,img/planet1_right.png,1,Community 3,NA,TRUE,j,j,NA,NA,NA,2,6,"14,12,8,9,11,6,13,7,2,10,3,15,5,1,4"
14718,commdev-image-keyboard-response,316,581547,learnblock1,699.0000000001164,img/planet5_right.png,5,Community 3,NA,TRUE,j,j,NA,NA,NA,2,6,"14,12,8,9,11,6,13,7,2,10,3,15,5,1,4"
14718,commdev-image-keyboard-response,317,582799,learnblock1,662.9999999998836,img/planet4_right.png,4,Community 3,NA,TRUE,j,j,NA,NA,NA,2,6,"14,12,8,9,11,6,13,7,2,10,3,15,5,1,4"
14718,commdev-image-keyboard-response,318,584050,learnblock1,723,img/planet15_left.png,15,Community 3,NA,TRUE,f,f,NA,NA,NA,2,6,"14,12,8,9,11,6,13,7,2,10,3,15,5,1,4"
14718,commdev-image-keyboard-response,319,585301,learnblock1,672,img/planet1_right.png,1,Community 3,NA,TRUE,j,j,NA,NA,NA,2,6,"14,12,8,9,11,6,13,7,2,10,3,15,5,1,4"
14718,commdev-image-keyboard-response,320,586552,learnblock1,693.0000000001164,img/planet4_left.png,4,Community 3,NA,TRUE,f,f,NA,NA,NA,2,6,"14,12,8,9,11,6,13,7,2,10,3,15,5,1,4"
14718,commdev-image-keyboard-response,321,587803,learnblock1,817.9999999998836,img/planet1_right.png,1,Community 3,NA,TRUE,j,j,NA,NA,NA,2,6,"14,12,8,9,11,6,13,7,2,10,3,15,5,1,4"
14718,commdev-image-keyboard-response,322,589054,learnblock1,734,img/planet15_right.png,15,Community 3,NA,TRUE,j,j,NA,NA,NA,2,6,"14,12,8,9,11,6,13,7,2,10,3,15,5,1,4"
14718,commdev-image-keyboard-response,323,590305,learnblock1,515,img/planet1_right.png,1,Community 3,NA,TRUE,j,j,NA,NA,NA,2,6,"14,12,8,9,11,6,13,7,2,10,3,15,5,1,4"
14718,commdev-image-keyboard-response,324,591556,learnblock1,792,img/planet5_left.png,5,Community 3,NA,TRUE,f,f,NA,NA,NA,2,6,"14,12,8,9,11,6,13,7,2,10,3,15,5,1,4"
14718,commdev-image-keyboard-response,325,592807,learnblock1,829,img/planet3_right.png,3,Community 3,NA,TRUE,j,j,NA,NA,NA,2,6,"14,12,8,9,11,6,13,7,2,10,3,15,5,1,4"
14718,commdev-image-keyboard-response,326,594058,learnblock1,586,img/planet1_right.png,1,Community 3,NA,TRUE,j,j,NA,NA,NA,2,6,"14,12,8,9,11,6,13,7,2,10,3,15,5,1,4"
14718,commdev-image-keyboard-response,327,595309,learnblock1,616,img/planet5_right.png,5,Community 3,NA,TRUE,j,j,NA,NA,NA,2,6,"14,12,8,9,11,6,13,7,2,10,3,15,5,1,4"
14718,commdev-image-keyboard-response,328,596560,learnblock1,765,img/planet1_left.png,1,Community 3,NA,TRUE,f,f,NA,NA,NA,2,6,"14,12,8,9,11,6,13,7,2,10,3,15,5,1,4"
14718,commdev-image-keyboard-response,329,597811,learnblock1,706,img/planet4_left.png,4,Community 3,NA,TRUE,f,f,NA,NA,NA,2,6,"14,12,8,9,11,6,13,7,2,10,3,15,5,1,4"
14718,commdev-image-keyboard-response,330,599063,learnblock1,766,img/planet5_left.png,5,Community 3,NA,TRUE,f,f,NA,NA,NA,2,6,"14,12,8,9,11,6,13,7,2,10,3,15,5,1,4"
14718,commdev-image-keyboard-response,331,600314,learnblock1,643,img/planet4_left.png,4,Community 3,NA,TRUE,f,f,NA,NA,NA,2,6,"14,12,8,9,11,6,13,7,2,10,3,15,5,1,4"
14718,commdev-image-keyboard-response,332,601566,learnblock1,639,img/planet5_right.png,5,Community 3,NA,TRUE,j,j,NA,NA,NA,2,6,"14,12,8,9,11,6,13,7,2,10,3,15,5,1,4"
14718,commdev-image-keyboard-response,333,602819,learnblock1,834,img/planet4_left.png,4,Community 3,NA,TRUE,f,f,NA,NA,NA,2,6,"14,12,8,9,11,6,13,7,2,10,3,15,5,1,4"
14718,commdev-image-keyboard-response,334,604071,learnblock1,750,img/planet3_right.png,3,Community 3,NA,TRUE,j,j,NA,NA,NA,2,6,"14,12,8,9,11,6,13,7,2,10,3,15,5,1,4"
14718,commdev-image-keyboard-response,335,605322,learnblock1,722,img/planet5_right.png,5,Community 3,NA,TRUE,j,j,NA,NA,NA,2,6,"14,12,8,9,11,6,13,7,2,10,3,15,5,1,4"
14718,commdev-image-keyboard-response,336,606573,learnblock1,632,img/planet1_left.png,1,Community 3,NA,TRUE,f,f,NA,NA,NA,2,6,"14,12,8,9,11,6,13,7,2,10,3,15,5,1,4"
14718,commdev-image-keyboard-response,337,607825,learnblock1,668,img/planet4_left.png,4,Community 3,NA,TRUE,f,f,NA,NA,NA,2,6,"14,12,8,9,11,6,13,7,2,10,3,15,5,1,4"
14718,commdev-image-keyboard-response,338,609076,learnblock1,641,img/planet3_left.png,3,Community 3,NA,TRUE,f,f,NA,NA,NA,2,6,"14,12,8,9,11,6,13,7,2,10,3,15,5,1,4"
14718,commdev-image-keyboard-response,339,610328,learnblock1,621,img/planet4_right.png,4,Community 3,NA,FALSE,f,j,NA,NA,NA,2,6,"14,12,8,9,11,6,13,7,2,10,3,15,5,1,4"
14718,commdev-image-keyboard-response,340,611580,learnblock1,905,img/planet1_left.png,1,Community 3,NA,TRUE,f,f,NA,NA,NA,2,6,"14,12,8,9,11,6,13,7,2,10,3,15,5,1,4"
14718,commdev-image-keyboard-response,341,612831,learnblock1,653,img/planet5_right.png,5,Community 3,NA,TRUE,j,j,NA,NA,NA,2,6,"14,12,8,9,11,6,13,7,2,10,3,15,5,1,4"
14718,commdev-image-keyboard-response,342,614082,learnblock1,810,img/planet4_left.png,4,Community 3,NA,TRUE,f,f,NA,NA,NA,2,6,"14,12,8,9,11,6,13,7,2,10,3,15,5,1,4"
14718,commdev-image-keyboard-response,343,615333,learnblock1,871,img/planet1_right.png,1,Community 3,NA,TRUE,j,j,NA,NA,NA,2,6,"14,12,8,9,11,6,13,7,2,10,3,15,5,1,4"
14718,commdev-image-keyboard-response,344,616584,learnblock1,972,img/planet3_right.png,3,Community 3,NA,TRUE,j,j,NA,NA,NA,2,6,"14,12,8,9,11,6,13,7,2,10,3,15,5,1,4"
14718,commdev-image-keyboard-response,345,617835,learnblock1,762,img/planet4_left.png,4,Community 3,NA,TRUE,f,f,NA,NA,NA,2,6,"14,12,8,9,11,6,13,7,2,10,3,15,5,1,4"
14718,commdev-image-keyboard-response,346,619086,learnblock1,759,img/planet5_left.png,5,Community 3,NA,TRUE,f,f,NA,NA,NA,2,6,"14,12,8,9,11,6,13,7,2,10,3,15,5,1,4"
14718,commdev-image-keyboard-response,347,620337,learnblock1,1108,img/planet3_left.png,3,Community 3,NA,TRUE,f,f,NA,NA,NA,2,6,"14,12,8,9,11,6,13,7,2,10,3,15,5,1,4"
14718,commdev-image-keyboard-response,351,1944667,learnblock2,711,img/planet7_left.png,7,Community 2,NA,TRUE,f,f,NA,NA,NA,2,6,"14,12,8,9,11,6,13,7,2,10,3,15,5,1,4"
14718,commdev-image-keyboard-response,352,1945918,learnblock2,715,img/planet10_left.png,10,Community 2,NA,TRUE,f,f,NA,NA,NA,2,6,"14,12,8,9,11,6,13,7,2,10,3,15,5,1,4"
14718,commdev-image-keyboard-response,353,1947169,learnblock2,888,img/planet6_left.png,6,Community 2,NA,TRUE,f,f,NA,NA,NA,2,6,"14,12,8,9,11,6,13,7,2,10,3,15,5,1,4"
14718,commdev-image-keyboard-response,354,1948421,learnblock2,645,img/planet10_left.png,10,Community 2,NA,TRUE,f,f,NA,NA,NA,2,6,"14,12,8,9,11,6,13,7,2,10,3,15,5,1,4"
14718,commdev-image-keyboard-response,355,1949673,learnblock2,569.0000000002328,img/planet2_left.png,2,Community 2,NA,TRUE,f,f,NA,NA,NA,2,6,"14,12,8,9,11,6,13,7,2,10,3,15,5,1,4"
14718,commdev-image-keyboard-response,356,1950924,learnblock2,628.9999999997672,img/planet10_left.png,10,Community 2,NA,TRUE,f,f,NA,NA,NA,2,6,"14,12,8,9,11,6,13,7,2,10,3,15,5,1,4"
14718,commdev-image-keyboard-response,357,1952175,learnblock2,649,img/planet6_left.png,6,Community 2,NA,TRUE,f,f,NA,NA,NA,2,6,"14,12,8,9,11,6,13,7,2,10,3,15,5,1,4"
14718,commdev-image-keyboard-response,358,1953429,learnblock2,517,img/planet10_left.png,10,Community 2,NA,TRUE,f,f,NA,NA,NA,2,6,"14,12,8,9,11,6,13,7,2,10,3,15,5,1,4"
14718,commdev-image-keyboard-response,359,1954680,learnblock2,545,img/planet13_left.png,13,Community 2,NA,TRUE,f,f,NA,NA,NA,2,6,"14,12,8,9,11,6,13,7,2,10,3,15,5,1,4"
14718,commdev-image-keyboard-response,360,1955932,learnblock2,573,img/planet2_left.png,2,Community 2,NA,TRUE,f,f,NA,NA,NA,2,6,"14,12,8,9,11,6,13,7,2,10,3,15,5,1,4"
14718,commdev-image-keyboard-response,361,1957184,learnblock2,770,img/planet13_right.png,13,Community 2,NA,TRUE,j,j,NA,NA,NA,2,6,"14,12,8,9,11,6,13,7,2,10,3,15,5,1,4"
14718,commdev-image-keyboard-response,362,1958436,learnblock2,814,img/planet7_left.png,7,Community 2,NA,TRUE,f,f,NA,NA,NA,2,6,"14,12,8,9,11,6,13,7,2,10,3,15,5,1,4"
14718,commdev-image-keyboard-response,363,1959687,learnblock2,666,img/planet15_left.png,15,Community 3,NA,TRUE,f,f,NA,NA,NA,2,6,"14,12,8,9,11,6,13,7,2,10,3,15,5,1,4"
14718,commdev-image-keyboard-response,364,1960938,learnblock2,703,img/planet4_left.png,4,Community 3,NA,TRUE,f,f,NA,NA,NA,2,6,"14,12,8,9,11,6,13,7,2,10,3,15,5,1,4"
14718,commdev-image-keyboard-response,365,1962189,learnblock2,556,img/planet5_left.png,5,Community 3,NA,TRUE,f,f,NA,NA,NA,2,6,"14,12,8,9,11,6,13,7,2,10,3,15,5,1,4"
14718,commdev-image-keyboard-response,366,1963440,learnblock2,681,img/planet1_right.png,1,Community 3,NA,TRUE,j,j,NA,NA,NA,2,6,"14,12,8,9,11,6,13,7,2,10,3,15,5,1,4"
14718,commdev-image-keyboard-response,367,1964691,learnblock2,622,img/planet4_right.png,4,Community 3,NA,TRUE,j,j,NA,NA,NA,2,6,"14,12,8,9,11,6,13,7,2,10,3,15,5,1,4"
14718,commdev-image-keyboard-response,368,1965942,learnblock2,579,img/planet1_right.png,1,Community 3,NA,TRUE,j,j,NA,NA,NA,2,6,"14,12,8,9,11,6,13,7,2,10,3,15,5,1,4"
14718,commdev-image-keyboard-response,369,1967193,learnblock2,503.99999999976717,img/planet5_right.png,5,Community 3,NA,TRUE,j,j,NA,NA,NA,2,6,"14,12,8,9,11,6,13,7,2,10,3,15,5,1,4"
14718,commdev-image-keyboard-response,370,1968446,learnblock2,756,img/planet3_left.png,3,Community 3,NA,TRUE,f,f,NA,NA,NA,2,6,"14,12,8,9,11,6,13,7,2,10,3,15,5,1,4"
14718,commdev-image-keyboard-response,371,1969698,learnblock2,720,img/planet4_left.png,4,Community 3,NA,TRUE,f,f,NA,NA,NA,2,6,"14,12,8,9,11,6,13,7,2,10,3,15,5,1,4"
14718,commdev-image-keyboard-response,372,1970950,learnblock2,740,img/planet5_right.png,5,Community 3,NA,TRUE,j,j,NA,NA,NA,2,6,"14,12,8,9,11,6,13,7,2,10,3,15,5,1,4"
14718,commdev-image-keyboard-response,373,1972201,learnblock2,617,img/planet4_right.png,4,Community 3,NA,FALSE,f,j,NA,NA,NA,2,6,"14,12,8,9,11,6,13,7,2,10,3,15,5,1,4"
14718,commdev-image-keyboard-response,374,1973453,learnblock2,716.9999999997672,img/planet5_right.png,5,Community 3,NA,TRUE,j,j,NA,NA,NA,2,6,"14,12,8,9,11,6,13,7,2,10,3,15,5,1,4"
14718,commdev-image-keyboard-response,375,1974705,learnblock2,561.9999999997672,img/planet4_right.png,4,Community 3,NA,TRUE,j,j,NA,NA,NA,2,6,"14,12,8,9,11,6,13,7,2,10,3,15,5,1,4"
14718,commdev-image-keyboard-response,376,1975956,learnblock2,518,img/planet15_right.png,15,Community 3,NA,TRUE,j,j,NA,NA,NA,2,6,"14,12,8,9,11,6,13,7,2,10,3,15,5,1,4"
14718,commdev-image-keyboard-response,377,1977207,learnblock2,498,img/planet4_right.png,4,Community 3,NA,TRUE,j,j,NA,NA,NA,2,6,"14,12,8,9,11,6,13,7,2,10,3,15,5,1,4"
14718,commdev-image-keyboard-response,378,1978458,learnblock2,839,img/planet3_left.png,3,Community 3,NA,TRUE,f,f,NA,NA,NA,2,6,"14,12,8,9,11,6,13,7,2,10,3,15,5,1,4"
14718,commdev-image-keyboard-response,379,1979709,learnblock2,620,img/planet4_left.png,4,Community 3,NA,TRUE,f,f,NA,NA,NA,2,6,"14,12,8,9,11,6,13,7,2,10,3,15,5,1,4"
14718,commdev-image-keyboard-response,380,1980960,learnblock2,769,img/planet5_left.png,5,Community 3,NA,TRUE,f,f,NA,NA,NA,2,6,"14,12,8,9,11,6,13,7,2,10,3,15,5,1,4"
14718,commdev-image-keyboard-response,381,1982211,learnblock2,662,img/planet1_right.png,1,Community 3,NA,TRUE,j,j,NA,NA,NA,2,6,"14,12,8,9,11,6,13,7,2,10,3,15,5,1,4"
14718,commdev-image-keyboard-response,382,1983462,learnblock2,602.9999999997672,img/planet4_right.png,4,Community 3,NA,TRUE,j,j,NA,NA,NA,2,6,"14,12,8,9,11,6,13,7,2,10,3,15,5,1,4"
14718,commdev-image-keyboard-response,383,1984713,learnblock2,807.9999999997672,img/planet1_left.png,1,Community 3,NA,TRUE,f,f,NA,NA,NA,2,6,"14,12,8,9,11,6,13,7,2,10,3,15,5,1,4"
14718,commdev-image-keyboard-response,384,1985964,learnblock2,605,img/planet15_left.png,15,Community 3,NA,TRUE,f,f,NA,NA,NA,2,6,"14,12,8,9,11,6,13,7,2,10,3,15,5,1,4"
14718,commdev-image-keyboard-response,385,1987215,learnblock2,578,img/planet4_left.png,4,Community 3,NA,TRUE,f,f,NA,NA,NA,2,6,"14,12,8,9,11,6,13,7,2,10,3,15,5,1,4"
14718,commdev-image-keyboard-response,386,1988469,learnblock2,718,img/planet3_left.png,3,Community 3,NA,TRUE,f,f,NA,NA,NA,2,6,"14,12,8,9,11,6,13,7,2,10,3,15,5,1,4"
14718,commdev-image-keyboard-response,387,1989720,learnblock2,809.0000000002328,img/planet4_right.png,4,Community 3,NA,TRUE,j,j,NA,NA,NA,2,6,"14,12,8,9,11,6,13,7,2,10,3,15,5,1,4"
14718,commdev-image-keyboard-response,388,1990971,learnblock2,646.0000000002328,img/planet5_right.png,5,Community 3,NA,TRUE,j,j,NA,NA,NA,2,6,"14,12,8,9,11,6,13,7,2,10,3,15,5,1,4"
14718,commdev-image-keyboard-response,389,1992222,learnblock2,762.9999999997672,img/planet4_left.png,4,Community 3,NA,TRUE,f,f,NA,NA,NA,2,6,"14,12,8,9,11,6,13,7,2,10,3,15,5,1,4"
14718,commdev-image-keyboard-response,390,1993473,learnblock2,593,img/planet1_left.png,1,Community 3,NA,TRUE,f,f,NA,NA,NA,2,6,"14,12,8,9,11,6,13,7,2,10,3,15,5,1,4"
14718,commdev-image-keyboard-response,391,1994725,learnblock2,669,img/planet5_right.png,5,Community 3,NA,TRUE,j,j,NA,NA,NA,2,6,"14,12,8,9,11,6,13,7,2,10,3,15,5,1,4"
14718,commdev-image-keyboard-response,392,1995977,learnblock2,706,img/planet3_right.png,3,Community 3,NA,TRUE,j,j,NA,NA,NA,2,6,"14,12,8,9,11,6,13,7,2,10,3,15,5,1,4"
14718,commdev-image-keyboard-response,393,1997229,learnblock2,750,img/planet5_left.png,5,Community 3,NA,TRUE,f,f,NA,NA,NA,2,6,"14,12,8,9,11,6,13,7,2,10,3,15,5,1,4"
14718,commdev-image-keyboard-response,394,1998480,learnblock2,851,img/planet15_right.png,15,Community 3,NA,TRUE,j,j,NA,NA,NA,2,6,"14,12,8,9,11,6,13,7,2,10,3,15,5,1,4"
14718,commdev-image-keyboard-response,395,1999731,learnblock2,647,img/planet5_right.png,5,Community 3,NA,TRUE,j,j,NA,NA,NA,2,6,"14,12,8,9,11,6,13,7,2,10,3,15,5,1,4"
14718,commdev-image-keyboard-response,396,2000982,learnblock2,867.9999999997672,img/planet3_left.png,3,Community 3,NA,TRUE,f,f,NA,NA,NA,2,6,"14,12,8,9,11,6,13,7,2,10,3,15,5,1,4"
14718,commdev-image-keyboard-response,397,2002233,learnblock2,1096.9999999997672,img/planet1_left.png,1,Community 3,NA,TRUE,f,f,NA,NA,NA,2,6,"14,12,8,9,11,6,13,7,2,10,3,15,5,1,4"
14718,commdev-image-keyboard-response,398,2003484,learnblock2,742,img/planet4_right.png,4,Community 3,NA,TRUE,j,j,NA,NA,NA,2,6,"14,12,8,9,11,6,13,7,2,10,3,15,5,1,4"
14718,commdev-image-keyboard-response,399,2004735,learnblock2,875,img/planet1_left.png,1,Community 3,NA,FALSE,j,f,NA,NA,NA,2,6,"14,12,8,9,11,6,13,7,2,10,3,15,5,1,4"
14718,commdev-image-keyboard-response,400,2005986,learnblock2,1008,img/planet4_left.png,4,Community 3,NA,TRUE,f,f,NA,NA,NA,2,6,"14,12,8,9,11,6,13,7,2,10,3,15,5,1,4"
14718,commdev-image-keyboard-response,401,2007237,learnblock2,749,img/planet5_right.png,5,Community 3,NA,TRUE,j,j,NA,NA,NA,2,6,"14,12,8,9,11,6,13,7,2,10,3,15,5,1,4"
14718,commdev-image-keyboard-response,402,2008488,learnblock2,738,img/planet4_right.png,4,Community 3,NA,TRUE,j,j,NA,NA,NA,2,6,"14,12,8,9,11,6,13,7,2,10,3,15,5,1,4"
14718,commdev-image-keyboard-response,403,2009739,learnblock2,735,img/planet15_right.png,15,Community 3,NA,TRUE,j,j,NA,NA,NA,2,6,"14,12,8,9,11,6,13,7,2,10,3,15,5,1,4"
14718,commdev-image-keyboard-response,404,2010990,learnblock2,596,img/planet7_right.png,7,Community 2,NA,TRUE,j,j,NA,NA,NA,2,6,"14,12,8,9,11,6,13,7,2,10,3,15,5,1,4"
14718,commdev-image-keyboard-response,405,2012241,learnblock2,673,img/planet13_left.png,13,Community 2,NA,TRUE,f,f,NA,NA,NA,2,6,"14,12,8,9,11,6,13,7,2,10,3,15,5,1,4"
14718,commdev-image-keyboard-response,406,2013492,learnblock2,541.9999999997672,img/planet10_left.png,10,Community 2,NA,TRUE,f,f,NA,NA,NA,2,6,"14,12,8,9,11,6,13,7,2,10,3,15,5,1,4"
14718,commdev-image-keyboard-response,407,2014743,learnblock2,691,img/planet2_right.png,2,Community 2,NA,TRUE,j,j,NA,NA,NA,2,6,"14,12,8,9,11,6,13,7,2,10,3,15,5,1,4"
14718,commdev-image-keyboard-response,408,2015994,learnblock2,576,img/planet13_left.png,13,Community 2,NA,TRUE,f,f,NA,NA,NA,2,6,"14,12,8,9,11,6,13,7,2,10,3,15,5,1,4"
14718,commdev-image-keyboard-response,409,2017245,learnblock2,605,img/planet10_right.png,10,Community 2,NA,TRUE,j,j,NA,NA,NA,2,6,"14,12,8,9,11,6,13,7,2,10,3,15,5,1,4"
14718,commdev-image-keyboard-response,410,2018498,learnblock2,658,img/planet7_left.png,7,Community 2,NA,TRUE,f,f,NA,NA,NA,2,6,"14,12,8,9,11,6,13,7,2,10,3,15,5,1,4"
14718,commdev-image-keyboard-response,411,2019750,learnblock2,710,img/planet2_left.png,2,Community 2,NA,TRUE,f,f,NA,NA,NA,2,6,"14,12,8,9,11,6,13,7,2,10,3,15,5,1,4"
14718,commdev-image-keyboard-response,412,2021001,learnblock2,666.0000000002328,img/planet6_right.png,6,Community 2,NA,TRUE,j,j,NA,NA,NA,2,6,"14,12,8,9,11,6,13,7,2,10,3,15,5,1,4"
14718,commdev-image-keyboard-response,413,2022252,learnblock2,533.9999999997672,img/planet13_right.png,13,Community 2,NA,TRUE,j,j,NA,NA,NA,2,6,"14,12,8,9,11,6,13,7,2,10,3,15,5,1,4"
14718,commdev-image-keyboard-response,414,2023505,learnblock2,715,img/planet6_left.png,6,Community 2,NA,TRUE,f,f,NA,NA,NA,2,6,"14,12,8,9,11,6,13,7,2,10,3,15,5,1,4"
14718,commdev-image-keyboard-response,415,2024757,learnblock2,734,img/planet2_left.png,2,Community 2,NA,TRUE,f,f,NA,NA,NA,2,6,"14,12,8,9,11,6,13,7,2,10,3,15,5,1,4"
14718,commdev-image-keyboard-response,416,2026008,learnblock2,682,img/planet7_right.png,7,Community 2,NA,TRUE,j,j,NA,NA,NA,2,6,"14,12,8,9,11,6,13,7,2,10,3,15,5,1,4"
14718,commdev-image-keyboard-response,417,2027259,learnblock2,575,img/planet10_right.png,10,Community 2,NA,TRUE,j,j,NA,NA,NA,2,6,"14,12,8,9,11,6,13,7,2,10,3,15,5,1,4"
14718,commdev-image-keyboard-response,418,2028510,learnblock2,708,img/planet7_left.png,7,Community 2,NA,TRUE,f,f,NA,NA,NA,2,6,"14,12,8,9,11,6,13,7,2,10,3,15,5,1,4"
14718,commdev-image-keyboard-response,419,2029761,learnblock2,608.9999999997672,img/planet13_left.png,13,Community 2,NA,TRUE,f,f,NA,NA,NA,2,6,"14,12,8,9,11,6,13,7,2,10,3,15,5,1,4"
14718,commdev-image-keyboard-response,420,2031012,learnblock2,645.9999999997672,img/planet6_left.png,6,Community 2,NA,TRUE,f,f,NA,NA,NA,2,6,"14,12,8,9,11,6,13,7,2,10,3,15,5,1,4"
14718,commdev-image-keyboard-response,421,2032263,learnblock2,827,img/planet9_right.png,9,Community 1,NA,TRUE,j,j,NA,NA,NA,2,6,"14,12,8,9,11,6,13,7,2,10,3,15,5,1,4"
14718,commdev-image-keyboard-response,422,2033514,learnblock2,576,img/planet14_right.png,14,Community 1,NA,TRUE,j,j,NA,NA,NA,2,6,"14,12,8,9,11,6,13,7,2,10,3,15,5,1,4"
14718,commdev-image-keyboard-response,423,2034765,learnblock2,509,img/planet11_right.png,11,Community 1,NA,TRUE,j,j,NA,NA,NA,2,6,"14,12,8,9,11,6,13,7,2,10,3,15,5,1,4"
14718,commdev-image-keyboard-response,424,2036016,learnblock2,522,img/planet14_right.png,14,Community 1,NA,TRUE,j,j,NA,NA,NA,2,6,"14,12,8,9,11,6,13,7,2,10,3,15,5,1,4"
14718,commdev-image-keyboard-response,425,2037267,learnblock2,399.00000000023283,img/planet12_right.png,12,Community 1,NA,TRUE,j,j,NA,NA,NA,2,6,"14,12,8,9,11,6,13,7,2,10,3,15,5,1,4"
14718,commdev-image-keyboard-response,426,2038518,learnblock2,740,img/planet14_left.png,14,Community 1,NA,TRUE,f,f,NA,NA,NA,2,6,"14,12,8,9,11,6,13,7,2,10,3,15,5,1,4"
14718,commdev-image-keyboard-response,427,2039769,learnblock2,810.0000000002328,img/planet8_right.png,8,Community 1,NA,FALSE,f,j,NA,NA,NA,2,6,"14,12,8,9,11,6,13,7,2,10,3,15,5,1,4"
14718,commdev-image-keyboard-response,428,2041020,learnblock2,567,img/planet14_right.png,14,Community 1,NA,TRUE,j,j,NA,NA,NA,2,6,"14,12,8,9,11,6,13,7,2,10,3,15,5,1,4"
14718,commdev-image-keyboard-response,429,2042271,learnblock2,860,img/planet8_left.png,8,Community 1,NA,TRUE,f,f,NA,NA,NA,2,6,"14,12,8,9,11,6,13,7,2,10,3,15,5,1,4"
14718,commdev-image-keyboard-response,430,2043522,learnblock2,1104.9999999997672,img/planet14_left.png,14,Community 1,NA,TRUE,f,f,NA,NA,NA,2,6,"14,12,8,9,11,6,13,7,2,10,3,15,5,1,4"
14718,commdev-image-keyboard-response,431,2044775,learnblock2,956,img/planet8_left.png,8,Community 1,NA,TRUE,f,f,NA,NA,NA,2,6,"14,12,8,9,11,6,13,7,2,10,3,15,5,1,4"
14718,commdev-image-keyboard-response,432,2046027,learnblock2,744,img/planet9_right.png,9,Community 1,NA,TRUE,j,j,NA,NA,NA,2,6,"14,12,8,9,11,6,13,7,2,10,3,15,5,1,4"
14718,commdev-image-keyboard-response,433,2047278,learnblock2,525,img/planet8_right.png,8,Community 1,NA,TRUE,j,j,NA,NA,NA,2,6,"14,12,8,9,11,6,13,7,2,10,3,15,5,1,4"
14718,commdev-image-keyboard-response,434,2048529,learnblock2,522,img/planet12_right.png,12,Community 1,NA,TRUE,j,j,NA,NA,NA,2,6,"14,12,8,9,11,6,13,7,2,10,3,15,5,1,4"
14718,commdev-image-keyboard-response,435,2049780,learnblock2,743,img/planet11_left.png,11,Community 1,NA,TRUE,f,f,NA,NA,NA,2,6,"14,12,8,9,11,6,13,7,2,10,3,15,5,1,4"
14718,commdev-image-keyboard-response,436,2051031,learnblock2,884,img/planet3_left.png,3,Community 3,NA,FALSE,j,f,NA,NA,NA,2,6,"14,12,8,9,11,6,13,7,2,10,3,15,5,1,4"
14718,commdev-image-keyboard-response,437,2052282,learnblock2,800.9999999997672,img/planet1_left.png,1,Community 3,NA,TRUE,f,f,NA,NA,NA,2,6,"14,12,8,9,11,6,13,7,2,10,3,15,5,1,4"
14718,commdev-image-keyboard-response,438,2053533,learnblock2,886,img/planet3_left.png,3,Community 3,NA,TRUE,f,f,NA,NA,NA,2,6,"14,12,8,9,11,6,13,7,2,10,3,15,5,1,4"
14718,commdev-image-keyboard-response,439,2054784,learnblock2,619.0000000002328,img/planet5_left.png,5,Community 3,NA,TRUE,f,f,NA,NA,NA,2,6,"14,12,8,9,11,6,13,7,2,10,3,15,5,1,4"
14718,commdev-image-keyboard-response,440,2056035,learnblock2,672,img/planet15_right.png,15,Community 3,NA,TRUE,j,j,NA,NA,NA,2,6,"14,12,8,9,11,6,13,7,2,10,3,15,5,1,4"
14718,commdev-image-keyboard-response,441,2057286,learnblock2,694,img/planet4_right.png,4,Community 3,NA,TRUE,j,j,NA,NA,NA,2,6,"14,12,8,9,11,6,13,7,2,10,3,15,5,1,4"
14718,commdev-image-keyboard-response,442,2058537,learnblock2,634,img/planet15_right.png,15,Community 3,NA,TRUE,j,j,NA,NA,NA,2,6,"14,12,8,9,11,6,13,7,2,10,3,15,5,1,4"
14718,commdev-image-keyboard-response,443,2059788,learnblock2,647,img/planet5_left.png,5,Community 3,NA,TRUE,f,f,NA,NA,NA,2,6,"14,12,8,9,11,6,13,7,2,10,3,15,5,1,4"
14718,commdev-image-keyboard-response,444,2061039,learnblock2,796.0000000002328,img/planet1_right.png,1,Community 3,NA,TRUE,j,j,NA,NA,NA,2,6,"14,12,8,9,11,6,13,7,2,10,3,15,5,1,4"
14718,commdev-image-keyboard-response,445,2062290,learnblock2,1072.9999999997672,img/planet5_right.png,5,Community 3,NA,TRUE,j,j,NA,NA,NA,2,6,"14,12,8,9,11,6,13,7,2,10,3,15,5,1,4"
14718,commdev-image-keyboard-response,446,2063541,learnblock2,718.0000000002328,img/planet4_right.png,4,Community 3,NA,TRUE,j,j,NA,NA,NA,2,6,"14,12,8,9,11,6,13,7,2,10,3,15,5,1,4"
14718,commdev-image-keyboard-response,447,2064792,learnblock2,674.9999999995343,img/planet15_right.png,15,Community 3,NA,TRUE,j,j,NA,NA,NA,2,6,"14,12,8,9,11,6,13,7,2,10,3,15,5,1,4"
14718,commdev-image-keyboard-response,448,2066043,learnblock2,576.0000000002328,img/planet5_right.png,5,Community 3,NA,TRUE,j,j,NA,NA,NA,2,6,"14,12,8,9,11,6,13,7,2,10,3,15,5,1,4"
14718,commdev-image-keyboard-response,449,2067294,learnblock2,677.0000000002328,img/planet15_left.png,15,Community 3,NA,TRUE,f,f,NA,NA,NA,2,6,"14,12,8,9,11,6,13,7,2,10,3,15,5,1,4"
14718,commdev-image-keyboard-response,450,2068545,learnblock2,626.0000000002328,img/planet4_left.png,4,Community 3,NA,TRUE,f,f,NA,NA,NA,2,6,"14,12,8,9,11,6,13,7,2,10,3,15,5,1,4"
14718,commdev-image-keyboard-response,451,2069796,learnblock2,727,img/planet3_left.png,3,Community 3,NA,TRUE,f,f,NA,NA,NA,2,6,"14,12,8,9,11,6,13,7,2,10,3,15,5,1,4"
14718,commdev-image-keyboard-response,452,2071050,learnblock2,650.9999999997672,img/planet1_right.png,1,Community 3,NA,TRUE,j,j,NA,NA,NA,2,6,"14,12,8,9,11,6,13,7,2,10,3,15,5,1,4"
14718,commdev-image-keyboard-response,453,2072301,learnblock2,838.9999999997672,img/planet3_left.png,3,Community 3,NA,TRUE,f,f,NA,NA,NA,2,6,"14,12,8,9,11,6,13,7,2,10,3,15,5,1,4"
14718,commdev-image-keyboard-response,454,2073552,learnblock2,708,img/planet1_left.png,1,Community 3,NA,TRUE,f,f,NA,NA,NA,2,6,"14,12,8,9,11,6,13,7,2,10,3,15,5,1,4"
14718,commdev-image-keyboard-response,455,2074805,learnblock2,560,img/planet15_left.png,15,Community 3,NA,TRUE,f,f,NA,NA,NA,2,6,"14,12,8,9,11,6,13,7,2,10,3,15,5,1,4"
14718,commdev-image-keyboard-response,456,2076057,learnblock2,612.0000000002328,img/planet7_left.png,7,Community 2,NA,TRUE,f,f,NA,NA,NA,2,6,"14,12,8,9,11,6,13,7,2,10,3,15,5,1,4"
14718,commdev-image-keyboard-response,457,2077308,learnblock2,560,img/planet2_left.png,2,Community 2,NA,TRUE,f,f,NA,NA,NA,2,6,"14,12,8,9,11,6,13,7,2,10,3,15,5,1,4"
14718,commdev-image-keyboard-response,458,2078559,learnblock2,549,img/planet7_right.png,7,Community 2,NA,FALSE,f,j,NA,NA,NA,2,6,"14,12,8,9,11,6,13,7,2,10,3,15,5,1,4"
14718,commdev-image-keyboard-response,459,2079810,learnblock2,602.0000000002328,img/planet10_left.png,10,Community 2,NA,FALSE,j,f,NA,NA,NA,2,6,"14,12,8,9,11,6,13,7,2,10,3,15,5,1,4"
14718,commdev-image-keyboard-response,460,2081061,learnblock2,478.99999999976717,img/planet2_right.png,2,Community 2,NA,TRUE,j,j,NA,NA,NA,2,6,"14,12,8,9,11,6,13,7,2,10,3,15,5,1,4"
14718,commdev-image-keyboard-response,461,2082312,learnblock2,620.0000000002328,img/planet13_right.png,13,Community 2,NA,TRUE,j,j,NA,NA,NA,2,6,"14,12,8,9,11,6,13,7,2,10,3,15,5,1,4"
14718,commdev-image-keyboard-response,462,2083563,learnblock2,497,img/planet2_right.png,2,Community 2,NA,TRUE,j,j,NA,NA,NA,2,6,"14,12,8,9,11,6,13,7,2,10,3,15,5,1,4"
14718,commdev-image-keyboard-response,463,2084814,learnblock2,590.0000000002328,img/planet13_right.png,13,Community 2,NA,TRUE,j,j,NA,NA,NA,2,6,"14,12,8,9,11,6,13,7,2,10,3,15,5,1,4"
14718,commdev-image-keyboard-response,464,2086065,learnblock2,627,img/planet7_right.png,7,Community 2,NA,TRUE,j,j,NA,NA,NA,2,6,"14,12,8,9,11,6,13,7,2,10,3,15,5,1,4"
14718,commdev-image-keyboard-response,465,2087316,learnblock2,679.9999999997672,img/planet15_right.png,15,Community 3,NA,TRUE,j,j,NA,NA,NA,2,6,"14,12,8,9,11,6,13,7,2,10,3,15,5,1,4"
14718,commdev-image-keyboard-response,466,2088567,learnblock2,949,img/planet7_left.png,7,Community 2,NA,TRUE,f,f,NA,NA,NA,2,6,"14,12,8,9,11,6,13,7,2,10,3,15,5,1,4"
14718,commdev-image-keyboard-response,467,2089818,learnblock2,889.9999999997672,img/planet10_right.png,10,Community 2,NA,TRUE,j,j,NA,NA,NA,2,6,"14,12,8,9,11,6,13,7,2,10,3,15,5,1,4"
14718,commdev-image-keyboard-response,468,2091069,learnblock2,831,img/planet6_left.png,6,Community 2,NA,TRUE,f,f,NA,NA,NA,2,6,"14,12,8,9,11,6,13,7,2,10,3,15,5,1,4"
14718,commdev-image-keyboard-response,469,2092320,learnblock2,924,img/planet13_left.png,13,Community 2,NA,TRUE,f,f,NA,NA,NA,2,6,"14,12,8,9,11,6,13,7,2,10,3,15,5,1,4"
14718,commdev-image-keyboard-response,470,2093571,learnblock2,1049,img/planet2_left.png,2,Community 2,NA,TRUE,f,f,NA,NA,NA,2,6,"14,12,8,9,11,6,13,7,2,10,3,15,5,1,4"
14718,commdev-image-keyboard-response,471,2094822,learnblock2,910,img/planet13_right.png,13,Community 2,NA,TRUE,j,j,NA,NA,NA,2,6,"14,12,8,9,11,6,13,7,2,10,3,15,5,1,4"
14718,commdev-image-keyboard-response,472,2096073,learnblock2,947.0000000002328,img/planet7_left.png,7,Community 2,NA,TRUE,f,f,NA,NA,NA,2,6,"14,12,8,9,11,6,13,7,2,10,3,15,5,1,4"
14718,commdev-image-keyboard-response,473,2097326,learnblock2,967,img/planet10_right.png,10,Community 2,NA,TRUE,j,j,NA,NA,NA,2,6,"14,12,8,9,11,6,13,7,2,10,3,15,5,1,4"
14718,commdev-image-keyboard-response,474,2098578,learnblock2,787,img/planet7_right.png,7,Community 2,NA,TRUE,j,j,NA,NA,NA,2,6,"14,12,8,9,11,6,13,7,2,10,3,15,5,1,4"
14718,commdev-image-keyboard-response,475,2099829,learnblock2,735,img/planet2_right.png,2,Community 2,NA,TRUE,j,j,NA,NA,NA,2,6,"14,12,8,9,11,6,13,7,2,10,3,15,5,1,4"
14718,commdev-image-keyboard-response,476,2101080,learnblock2,684,img/planet6_right.png,6,Community 2,NA,TRUE,j,j,NA,NA,NA,2,6,"14,12,8,9,11,6,13,7,2,10,3,15,5,1,4"
14718,commdev-image-keyboard-response,477,2102333,learnblock2,648,img/planet2_right.png,2,Community 2,NA,TRUE,j,j,NA,NA,NA,2,6,"14,12,8,9,11,6,13,7,2,10,3,15,5,1,4"
14718,commdev-image-keyboard-response,478,2103585,learnblock2,868,img/planet6_left.png,6,Community 2,NA,TRUE,f,f,NA,NA,NA,2,6,"14,12,8,9,11,6,13,7,2,10,3,15,5,1,4"
14718,commdev-image-keyboard-response,479,2104836,learnblock2,1039.9999999995343,img/planet2_left.png,2,Community 2,NA,TRUE,f,f,NA,NA,NA,2,6,"14,12,8,9,11,6,13,7,2,10,3,15,5,1,4"
14718,commdev-image-keyboard-response,480,2106087,learnblock2,813.9999999995343,img/planet7_right.png,7,Community 2,NA,TRUE,j,j,NA,NA,NA,2,6,"14,12,8,9,11,6,13,7,2,10,3,15,5,1,4"
14718,commdev-image-keyboard-response,481,2107338,learnblock2,739,img/planet2_right.png,2,Community 2,NA,TRUE,j,j,NA,NA,NA,2,6,"14,12,8,9,11,6,13,7,2,10,3,15,5,1,4"
14718,commdev-image-keyboard-response,482,2108589,learnblock2,704,img/planet7_right.png,7,Community 2,NA,TRUE,j,j,NA,NA,NA,2,6,"14,12,8,9,11,6,13,7,2,10,3,15,5,1,4"
14718,commdev-image-keyboard-response,483,2109840,learnblock2,661,img/planet13_left.png,13,Community 2,NA,TRUE,f,f,NA,NA,NA,2,6,"14,12,8,9,11,6,13,7,2,10,3,15,5,1,4"
14718,commdev-image-keyboard-response,484,2111091,learnblock2,810,img/planet7_right.png,7,Community 2,NA,TRUE,j,j,NA,NA,NA,2,6,"14,12,8,9,11,6,13,7,2,10,3,15,5,1,4"
14718,commdev-image-keyboard-response,485,2112342,learnblock2,1079,img/planet2_left.png,2,Community 2,NA,TRUE,f,f,NA,NA,NA,2,6,"14,12,8,9,11,6,13,7,2,10,3,15,5,1,4"
14718,commdev-image-keyboard-response,486,2113593,learnblock2,876,img/planet7_right.png,7,Community 2,NA,TRUE,j,j,NA,NA,NA,2,6,"14,12,8,9,11,6,13,7,2,10,3,15,5,1,4"
14718,commdev-image-keyboard-response,487,2114844,learnblock2,601,img/planet10_left.png,10,Community 2,NA,TRUE,f,f,NA,NA,NA,2,6,"14,12,8,9,11,6,13,7,2,10,3,15,5,1,4"
14718,commdev-image-keyboard-response,488,2116095,learnblock2,566,img/planet2_left.png,2,Community 2,NA,TRUE,f,f,NA,NA,NA,2,6,"14,12,8,9,11,6,13,7,2,10,3,15,5,1,4"
14718,commdev-image-keyboard-response,489,2117346,learnblock2,683,img/planet7_right.png,7,Community 2,NA,TRUE,j,j,NA,NA,NA,2,6,"14,12,8,9,11,6,13,7,2,10,3,15,5,1,4"
14718,commdev-image-keyboard-response,490,2118597,learnblock2,672,img/planet13_left.png,13,Community 2,NA,TRUE,f,f,NA,NA,NA,2,6,"14,12,8,9,11,6,13,7,2,10,3,15,5,1,4"
14718,commdev-image-keyboard-response,491,2119848,learnblock2,621,img/planet7_left.png,7,Community 2,NA,TRUE,f,f,NA,NA,NA,2,6,"14,12,8,9,11,6,13,7,2,10,3,15,5,1,4"
14718,commdev-image-keyboard-response,492,2121099,learnblock2,650,img/planet15_right.png,15,Community 3,NA,TRUE,j,j,NA,NA,NA,2,6,"14,12,8,9,11,6,13,7,2,10,3,15,5,1,4"
14718,commdev-image-keyboard-response,493,2122350,learnblock2,719,img/planet1_left.png,1,Community 3,NA,TRUE,f,f,NA,NA,NA,2,6,"14,12,8,9,11,6,13,7,2,10,3,15,5,1,4"
14718,commdev-image-keyboard-response,494,2123603,learnblock2,859,img/planet5_left.png,5,Community 3,NA,TRUE,f,f,NA,NA,NA,2,6,"14,12,8,9,11,6,13,7,2,10,3,15,5,1,4"
14718,commdev-image-keyboard-response,495,2124855,learnblock2,1119,img/planet3_right.png,3,Community 3,NA,TRUE,j,j,NA,NA,NA,2,6,"14,12,8,9,11,6,13,7,2,10,3,15,5,1,4"
14718,commdev-image-keyboard-response,496,2126106,learnblock2,867,img/planet4_left.png,4,Community 3,NA,TRUE,f,f,NA,NA,NA,2,6,"14,12,8,9,11,6,13,7,2,10,3,15,5,1,4"
14718,commdev-image-keyboard-response,497,2127357,learnblock2,704,img/planet1_right.png,1,Community 3,NA,TRUE,j,j,NA,NA,NA,2,6,"14,12,8,9,11,6,13,7,2,10,3,15,5,1,4"
14718,commdev-image-keyboard-response,498,2128609,learnblock2,580,img/planet4_left.png,4,Community 3,NA,TRUE,f,f,NA,NA,NA,2,6,"14,12,8,9,11,6,13,7,2,10,3,15,5,1,4"
14718,commdev-image-keyboard-response,499,2129861,learnblock2,664,img/planet1_right.png,1,Community 3,NA,TRUE,j,j,NA,NA,NA,2,6,"14,12,8,9,11,6,13,7,2,10,3,15,5,1,4"
14718,commdev-image-keyboard-response,500,2131113,learnblock2,692,img/planet5_right.png,5,Community 3,NA,TRUE,j,j,NA,NA,NA,2,6,"14,12,8,9,11,6,13,7,2,10,3,15,5,1,4"
14718,commdev-image-keyboard-response,501,2132364,learnblock2,857.0000000004657,img/planet3_left.png,3,Community 3,NA,TRUE,f,f,NA,NA,NA,2,6,"14,12,8,9,11,6,13,7,2,10,3,15,5,1,4"
14718,commdev-image-keyboard-response,502,2133615,learnblock2,766,img/planet11_right.png,11,Community 1,NA,TRUE,j,j,NA,NA,NA,2,6,"14,12,8,9,11,6,13,7,2,10,3,15,5,1,4"
14718,commdev-image-keyboard-response,503,2134866,learnblock2,802.9999999995343,img/planet14_left.png,14,Community 1,NA,TRUE,f,f,NA,NA,NA,2,6,"14,12,8,9,11,6,13,7,2,10,3,15,5,1,4"
14718,commdev-image-keyboard-response,504,2136117,learnblock2,752,img/planet12_left.png,12,Community 1,NA,TRUE,f,f,NA,NA,NA,2,6,"14,12,8,9,11,6,13,7,2,10,3,15,5,1,4"
14718,commdev-image-keyboard-response,505,2137368,learnblock2,605,img/planet9_right.png,9,Community 1,NA,TRUE,j,j,NA,NA,NA,2,6,"14,12,8,9,11,6,13,7,2,10,3,15,5,1,4"
14718,commdev-image-keyboard-response,506,2138619,learnblock2,650,img/planet6_right.png,6,Community 2,NA,TRUE,j,j,NA,NA,NA,2,6,"14,12,8,9,11,6,13,7,2,10,3,15,5,1,4"
14718,commdev-image-keyboard-response,507,2139870,learnblock2,575,img/planet2_right.png,2,Community 2,NA,TRUE,j,j,NA,NA,NA,2,6,"14,12,8,9,11,6,13,7,2,10,3,15,5,1,4"
14718,commdev-image-keyboard-response,508,2141121,learnblock2,596,img/planet10_right.png,10,Community 2,NA,TRUE,j,j,NA,NA,NA,2,6,"14,12,8,9,11,6,13,7,2,10,3,15,5,1,4"
14718,commdev-image-keyboard-response,509,2142371,learnblock2,697,img/planet13_left.png,13,Community 2,NA,TRUE,f,f,NA,NA,NA,2,6,"14,12,8,9,11,6,13,7,2,10,3,15,5,1,4"
14718,commdev-image-keyboard-response,510,2143622,learnblock2,647,img/planet6_left.png,6,Community 2,NA,TRUE,f,f,NA,NA,NA,2,6,"14,12,8,9,11,6,13,7,2,10,3,15,5,1,4"
14718,commdev-image-keyboard-response,511,2144874,learnblock2,748,img/planet13_right.png,13,Community 2,NA,TRUE,j,j,NA,NA,NA,2,6,"14,12,8,9,11,6,13,7,2,10,3,15,5,1,4"
14718,commdev-image-keyboard-response,512,2146124,learnblock2,802,img/planet7_right.png,7,Community 2,NA,TRUE,j,j,NA,NA,NA,2,6,"14,12,8,9,11,6,13,7,2,10,3,15,5,1,4"
14718,commdev-image-keyboard-response,513,2147375,learnblock2,573.9999999995343,img/planet10_right.png,10,Community 2,NA,TRUE,j,j,NA,NA,NA,2,6,"14,12,8,9,11,6,13,7,2,10,3,15,5,1,4"
14718,commdev-image-keyboard-response,514,2148626,learnblock2,691.0000000004657,img/planet6_right.png,6,Community 2,NA,TRUE,j,j,NA,NA,NA,2,6,"14,12,8,9,11,6,13,7,2,10,3,15,5,1,4"
14718,commdev-image-keyboard-response,515,2149877,learnblock2,536.0000000004657,img/planet13_right.png,13,Community 2,NA,TRUE,j,j,NA,NA,NA,2,6,"14,12,8,9,11,6,13,7,2,10,3,15,5,1,4"
14718,commdev-image-keyboard-response,516,2151128,learnblock2,557,img/planet6_right.png,6,Community 2,NA,TRUE,j,j,NA,NA,NA,2,6,"14,12,8,9,11,6,13,7,2,10,3,15,5,1,4"
14718,commdev-image-keyboard-response,517,2152382,learnblock2,672,img/planet10_left.png,10,Community 2,NA,TRUE,f,f,NA,NA,NA,2,6,"14,12,8,9,11,6,13,7,2,10,3,15,5,1,4"
14718,commdev-image-keyboard-response,518,2153633,learnblock2,524,img/planet13_left.png,13,Community 2,NA,TRUE,f,f,NA,NA,NA,2,6,"14,12,8,9,11,6,13,7,2,10,3,15,5,1,4"
14718,commdev-image-keyboard-response,519,2154885,learnblock2,616.9999999995343,img/planet2_right.png,2,Community 2,NA,TRUE,j,j,NA,NA,NA,2,6,"14,12,8,9,11,6,13,7,2,10,3,15,5,1,4"
14718,commdev-image-keyboard-response,520,2156136,learnblock2,575,img/planet6_right.png,6,Community 2,NA,TRUE,j,j,NA,NA,NA,2,6,"14,12,8,9,11,6,13,7,2,10,3,15,5,1,4"
14718,commdev-image-keyboard-response,521,2157387,learnblock2,650,img/planet2_left.png,2,Community 2,NA,TRUE,f,f,NA,NA,NA,2,6,"14,12,8,9,11,6,13,7,2,10,3,15,5,1,4"
14718,commdev-image-keyboard-response,522,2158638,learnblock2,632,img/planet7_right.png,7,Community 2,NA,TRUE,j,j,NA,NA,NA,2,6,"14,12,8,9,11,6,13,7,2,10,3,15,5,1,4"
14718,commdev-image-keyboard-response,523,2159889,learnblock2,765,img/planet13_left.png,13,Community 2,NA,TRUE,f,f,NA,NA,NA,2,6,"14,12,8,9,11,6,13,7,2,10,3,15,5,1,4"
14718,commdev-image-keyboard-response,524,2161140,learnblock2,674,img/planet10_left.png,10,Community 2,NA,TRUE,f,f,NA,NA,NA,2,6,"14,12,8,9,11,6,13,7,2,10,3,15,5,1,4"
14718,commdev-image-keyboard-response,525,2162391,learnblock2,631,img/planet7_right.png,7,Community 2,NA,TRUE,j,j,NA,NA,NA,2,6,"14,12,8,9,11,6,13,7,2,10,3,15,5,1,4"
14718,commdev-image-keyboard-response,526,2163642,learnblock2,740,img/planet13_left.png,13,Community 2,NA,TRUE,f,f,NA,NA,NA,2,6,"14,12,8,9,11,6,13,7,2,10,3,15,5,1,4"
14718,commdev-image-keyboard-response,527,2164892,learnblock2,617.0000000004657,img/planet10_right.png,10,Community 2,NA,TRUE,j,j,NA,NA,NA,2,6,"14,12,8,9,11,6,13,7,2,10,3,15,5,1,4"
14718,commdev-image-keyboard-response,528,2166143,learnblock2,1134,img/planet7_right.png,7,Community 2,NA,TRUE,j,j,NA,NA,NA,2,6,"14,12,8,9,11,6,13,7,2,10,3,15,5,1,4"
14718,commdev-image-keyboard-response,529,2167395,learnblock2,627,img/planet15_right.png,15,Community 3,NA,TRUE,j,j,NA,NA,NA,2,6,"14,12,8,9,11,6,13,7,2,10,3,15,5,1,4"
14718,commdev-image-keyboard-response,530,2168645,learnblock2,648,img/planet1_left.png,1,Community 3,NA,TRUE,f,f,NA,NA,NA,2,6,"14,12,8,9,11,6,13,7,2,10,3,15,5,1,4"
14718,commdev-image-keyboard-response,531,2169896,learnblock2,909,img/planet3_right.png,3,Community 3,NA,TRUE,j,j,NA,NA,NA,2,6,"14,12,8,9,11,6,13,7,2,10,3,15,5,1,4"
14718,commdev-image-keyboard-response,532,2171147,learnblock2,570,img/planet5_right.png,5,Community 3,NA,TRUE,j,j,NA,NA,NA,2,6,"14,12,8,9,11,6,13,7,2,10,3,15,5,1,4"
14718,commdev-image-keyboard-response,533,2172398,learnblock2,831,img/planet3_left.png,3,Community 3,NA,TRUE,f,f,NA,NA,NA,2,6,"14,12,8,9,11,6,13,7,2,10,3,15,5,1,4"
14718,commdev-image-keyboard-response,534,2173649,learnblock2,580,img/planet4_left.png,4,Community 3,NA,TRUE,f,f,NA,NA,NA,2,6,"14,12,8,9,11,6,13,7,2,10,3,15,5,1,4"
14718,commdev-image-keyboard-response,535,2174903,learnblock2,784,img/planet3_left.png,3,Community 3,NA,TRUE,f,f,NA,NA,NA,2,6,"14,12,8,9,11,6,13,7,2,10,3,15,5,1,4"
14718,commdev-image-keyboard-response,536,2176154,learnblock2,564,img/planet1_left.png,1,Community 3,NA,TRUE,f,f,NA,NA,NA,2,6,"14,12,8,9,11,6,13,7,2,10,3,15,5,1,4"
14718,commdev-image-keyboard-response,537,2177405,learnblock2,760,img/planet3_right.png,3,Community 3,NA,TRUE,j,j,NA,NA,NA,2,6,"14,12,8,9,11,6,13,7,2,10,3,15,5,1,4"
14718,commdev-image-keyboard-response,538,2178658,learnblock2,645,img/planet5_right.png,5,Community 3,NA,TRUE,j,j,NA,NA,NA,2,6,"14,12,8,9,11,6,13,7,2,10,3,15,5,1,4"
14718,commdev-image-keyboard-response,539,2179910,learnblock2,505.00000000046566,img/planet1_right.png,1,Community 3,NA,TRUE,j,j,NA,NA,NA,2,6,"14,12,8,9,11,6,13,7,2,10,3,15,5,1,4"
14718,commdev-image-keyboard-response,540,2181162,learnblock2,596,img/planet5_right.png,5,Community 3,NA,TRUE,j,j,NA,NA,NA,2,6,"14,12,8,9,11,6,13,7,2,10,3,15,5,1,4"
14718,commdev-image-keyboard-response,541,2182413,learnblock2,729,img/planet15_left.png,15,Community 3,NA,TRUE,f,f,NA,NA,NA,2,6,"14,12,8,9,11,6,13,7,2,10,3,15,5,1,4"
14718,commdev-image-keyboard-response,542,2183663,learnblock2,828.9999999995343,img/planet1_right.png,1,Community 3,NA,TRUE,j,j,NA,NA,NA,2,6,"14,12,8,9,11,6,13,7,2,10,3,15,5,1,4"
14718,commdev-image-keyboard-response,543,2184914,learnblock2,692,img/planet3_right.png,3,Community 3,NA,TRUE,j,j,NA,NA,NA,2,6,"14,12,8,9,11,6,13,7,2,10,3,15,5,1,4"
14718,commdev-image-keyboard-response,544,2186165,learnblock2,617,img/planet1_left.png,1,Community 3,NA,TRUE,f,f,NA,NA,NA,2,6,"14,12,8,9,11,6,13,7,2,10,3,15,5,1,4"
14718,commdev-image-keyboard-response,545,2187416,learnblock2,822,img/planet3_left.png,3,Community 3,NA,TRUE,f,f,NA,NA,NA,2,6,"14,12,8,9,11,6,13,7,2,10,3,15,5,1,4"
14718,commdev-image-keyboard-response,546,2188667,learnblock2,611,img/planet4_left.png,4,Community 3,NA,TRUE,f,f,NA,NA,NA,2,6,"14,12,8,9,11,6,13,7,2,10,3,15,5,1,4"
14718,commdev-image-keyboard-response,547,2189918,learnblock2,601,img/planet1_right.png,1,Community 3,NA,FALSE,f,j,NA,NA,NA,2,6,"14,12,8,9,11,6,13,7,2,10,3,15,5,1,4"
14718,commdev-image-keyboard-response,548,2191169,learnblock2,621,img/planet15_left.png,15,Community 3,NA,TRUE,f,f,NA,NA,NA,2,6,"14,12,8,9,11,6,13,7,2,10,3,15,5,1,4"
14718,commdev-image-keyboard-response,549,2192420,learnblock2,730,img/planet7_left.png,7,Community 2,NA,TRUE,f,f,NA,NA,NA,2,6,"14,12,8,9,11,6,13,7,2,10,3,15,5,1,4"
14718,commdev-image-keyboard-response,550,2193671,learnblock2,551.0000000004657,img/planet2_right.png,2,Community 2,NA,TRUE,j,j,NA,NA,NA,2,6,"14,12,8,9,11,6,13,7,2,10,3,15,5,1,4"
14718,commdev-image-keyboard-response,551,2194922,learnblock2,725,img/planet13_left.png,13,Community 2,NA,TRUE,f,f,NA,NA,NA,2,6,"14,12,8,9,11,6,13,7,2,10,3,15,5,1,4"
14718,commdev-image-keyboard-response,552,2196173,learnblock2,778,img/planet2_left.png,2,Community 2,NA,TRUE,f,f,NA,NA,NA,2,6,"14,12,8,9,11,6,13,7,2,10,3,15,5,1,4"
14718,commdev-image-keyboard-response,553,2197424,learnblock2,630,img/planet6_right.png,6,Community 2,NA,TRUE,j,j,NA,NA,NA,2,6,"14,12,8,9,11,6,13,7,2,10,3,15,5,1,4"
14718,commdev-image-keyboard-response,554,2198675,learnblock2,683,img/planet2_left.png,2,Community 2,NA,TRUE,f,f,NA,NA,NA,2,6,"14,12,8,9,11,6,13,7,2,10,3,15,5,1,4"
14718,commdev-image-keyboard-response,555,2199926,learnblock2,680.0000000004657,img/planet7_left.png,7,Community 2,NA,TRUE,f,f,NA,NA,NA,2,6,"14,12,8,9,11,6,13,7,2,10,3,15,5,1,4"
14718,commdev-image-keyboard-response,556,2201177,learnblock2,653,img/planet13_right.png,13,Community 2,NA,TRUE,j,j,NA,NA,NA,2,6,"14,12,8,9,11,6,13,7,2,10,3,15,5,1,4"
14718,commdev-image-keyboard-response,557,2202428,learnblock2,658,img/planet6_left.png,6,Community 2,NA,TRUE,f,f,NA,NA,NA,2,6,"14,12,8,9,11,6,13,7,2,10,3,15,5,1,4"
14718,commdev-image-keyboard-response,558,2203682,learnblock2,781,img/planet9_left.png,9,Community 1,NA,TRUE,f,f,NA,NA,NA,2,6,"14,12,8,9,11,6,13,7,2,10,3,15,5,1,4"
14718,commdev-image-keyboard-response,559,2204933,learnblock2,705,img/planet14_left.png,14,Community 1,NA,TRUE,f,f,NA,NA,NA,2,6,"14,12,8,9,11,6,13,7,2,10,3,15,5,1,4"
14718,commdev-image-keyboard-response,560,2206185,learnblock2,717.9999999995343,img/planet11_left.png,11,Community 1,NA,TRUE,f,f,NA,NA,NA,2,6,"14,12,8,9,11,6,13,7,2,10,3,15,5,1,4"
14718,commdev-image-keyboard-response,561,2207436,learnblock2,667,img/planet8_right.png,8,Community 1,NA,TRUE,j,j,NA,NA,NA,2,6,"14,12,8,9,11,6,13,7,2,10,3,15,5,1,4"
14718,commdev-image-keyboard-response,562,2208688,learnblock2,583,img/planet9_right.png,9,Community 1,NA,TRUE,j,j,NA,NA,NA,2,6,"14,12,8,9,11,6,13,7,2,10,3,15,5,1,4"
14718,commdev-image-keyboard-response,563,2209940,learnblock2,555,img/planet12_right.png,12,Community 1,NA,TRUE,j,j,NA,NA,NA,2,6,"14,12,8,9,11,6,13,7,2,10,3,15,5,1,4"
14718,commdev-image-keyboard-response,564,2211191,learnblock2,607,img/planet8_right.png,8,Community 1,NA,TRUE,j,j,NA,NA,NA,2,6,"14,12,8,9,11,6,13,7,2,10,3,15,5,1,4"
14718,commdev-image-keyboard-response,565,2212442,learnblock2,596,img/planet11_right.png,11,Community 1,NA,TRUE,j,j,NA,NA,NA,2,6,"14,12,8,9,11,6,13,7,2,10,3,15,5,1,4"
14718,commdev-image-keyboard-response,566,2213693,learnblock2,832.9999999995343,img/planet8_left.png,8,Community 1,NA,TRUE,f,f,NA,NA,NA,2,6,"14,12,8,9,11,6,13,7,2,10,3,15,5,1,4"
14718,commdev-image-keyboard-response,567,2214944,learnblock2,950,img/planet12_right.png,12,Community 1,NA,TRUE,j,j,NA,NA,NA,2,6,"14,12,8,9,11,6,13,7,2,10,3,15,5,1,4"
14718,commdev-image-keyboard-response,568,2216195,learnblock2,707,img/planet11_right.png,11,Community 1,NA,TRUE,j,j,NA,NA,NA,2,6,"14,12,8,9,11,6,13,7,2,10,3,15,5,1,4"
14718,commdev-image-keyboard-response,569,2217446,learnblock2,816,img/planet14_left.png,14,Community 1,NA,TRUE,f,f,NA,NA,NA,2,6,"14,12,8,9,11,6,13,7,2,10,3,15,5,1,4"
14718,commdev-image-keyboard-response,570,2218697,learnblock2,733,img/planet8_right.png,8,Community 1,NA,TRUE,j,j,NA,NA,NA,2,6,"14,12,8,9,11,6,13,7,2,10,3,15,5,1,4"
14718,commdev-image-keyboard-response,571,2219948,learnblock2,755.0000000004657,img/planet14_left.png,14,Community 1,NA,TRUE,f,f,NA,NA,NA,2,6,"14,12,8,9,11,6,13,7,2,10,3,15,5,1,4"
14718,commdev-image-keyboard-response,572,2221199,learnblock2,839,img/planet8_right.png,8,Community 1,NA,TRUE,j,j,NA,NA,NA,2,6,"14,12,8,9,11,6,13,7,2,10,3,15,5,1,4"
14718,commdev-image-keyboard-response,573,2222450,learnblock2,725,img/planet14_right.png,14,Community 1,NA,TRUE,j,j,NA,NA,NA,2,6,"14,12,8,9,11,6,13,7,2,10,3,15,5,1,4"
14718,commdev-image-keyboard-response,574,2223701,learnblock2,522.0000000004657,img/planet12_right.png,12,Community 1,NA,TRUE,j,j,NA,NA,NA,2,6,"14,12,8,9,11,6,13,7,2,10,3,15,5,1,4"
14718,commdev-image-keyboard-response,575,2224952,learnblock2,527,img/planet11_right.png,11,Community 1,NA,TRUE,j,j,NA,NA,NA,2,6,"14,12,8,9,11,6,13,7,2,10,3,15,5,1,4"
14718,commdev-image-keyboard-response,576,2226206,learnblock2,762,img/planet14_left.png,14,Community 1,NA,TRUE,f,f,NA,NA,NA,2,6,"14,12,8,9,11,6,13,7,2,10,3,15,5,1,4"
14718,commdev-image-keyboard-response,577,2227457,learnblock2,671,img/planet11_right.png,11,Community 1,NA,TRUE,j,j,NA,NA,NA,2,6,"14,12,8,9,11,6,13,7,2,10,3,15,5,1,4"
14718,commdev-image-keyboard-response,578,2228708,learnblock2,771,img/planet3_left.png,3,Community 3,NA,TRUE,f,f,NA,NA,NA,2,6,"14,12,8,9,11,6,13,7,2,10,3,15,5,1,4"
14718,commdev-image-keyboard-response,579,2229959,learnblock2,720,img/planet5_right.png,5,Community 3,NA,TRUE,j,j,NA,NA,NA,2,6,"14,12,8,9,11,6,13,7,2,10,3,15,5,1,4"
14718,commdev-image-keyboard-response,580,2231210,learnblock2,597,img/planet3_left.png,3,Community 3,NA,FALSE,j,f,NA,NA,NA,2,6,"14,12,8,9,11,6,13,7,2,10,3,15,5,1,4"
14718,commdev-image-keyboard-response,581,2232463,learnblock2,785,img/planet5_left.png,5,Community 3,NA,TRUE,f,f,NA,NA,NA,2,6,"14,12,8,9,11,6,13,7,2,10,3,15,5,1,4"
14718,commdev-image-keyboard-response,582,2233715,learnblock2,804.9999999995343,img/planet1_right.png,1,Community 3,NA,TRUE,j,j,NA,NA,NA,2,6,"14,12,8,9,11,6,13,7,2,10,3,15,5,1,4"
14718,commdev-image-keyboard-response,583,2234966,learnblock2,825,img/planet15_left.png,15,Community 3,NA,TRUE,f,f,NA,NA,NA,2,6,"14,12,8,9,11,6,13,7,2,10,3,15,5,1,4"
14718,commdev-image-keyboard-response,584,2236217,learnblock2,718.0000000004657,img/planet4_left.png,4,Community 3,NA,TRUE,f,f,NA,NA,NA,2,6,"14,12,8,9,11,6,13,7,2,10,3,15,5,1,4"
14718,commdev-image-keyboard-response,585,2237468,learnblock2,739,img/planet15_right.png,15,Community 3,NA,TRUE,j,j,NA,NA,NA,2,6,"14,12,8,9,11,6,13,7,2,10,3,15,5,1,4"
14718,commdev-image-keyboard-response,586,2238719,learnblock2,792.0000000004657,img/planet5_left.png,5,Community 3,NA,TRUE,f,f,NA,NA,NA,2,6,"14,12,8,9,11,6,13,7,2,10,3,15,5,1,4"
14718,commdev-image-keyboard-response,587,2239970,learnblock2,813,img/planet4_left.png,4,Community 3,NA,TRUE,f,f,NA,NA,NA,2,6,"14,12,8,9,11,6,13,7,2,10,3,15,5,1,4"
14718,commdev-image-keyboard-response,588,2241222,learnblock2,634,img/planet1_left.png,1,Community 3,NA,TRUE,f,f,NA,NA,NA,2,6,"14,12,8,9,11,6,13,7,2,10,3,15,5,1,4"
14718,commdev-image-keyboard-response,589,2242472,learnblock2,663,img/planet3_right.png,3,Community 3,NA,TRUE,j,j,NA,NA,NA,2,6,"14,12,8,9,11,6,13,7,2,10,3,15,5,1,4"
14718,commdev-image-keyboard-response,590,2243723,learnblock2,563.9999999995343,img/planet4_right.png,4,Community 3,NA,TRUE,j,j,NA,NA,NA,2,6,"14,12,8,9,11,6,13,7,2,10,3,15,5,1,4"
14718,commdev-image-keyboard-response,591,2244974,learnblock2,777,img/planet5_left.png,5,Community 3,NA,TRUE,f,f,NA,NA,NA,2,6,"14,12,8,9,11,6,13,7,2,10,3,15,5,1,4"
14718,commdev-image-keyboard-response,592,2246225,learnblock2,758,img/planet4_left.png,4,Community 3,NA,TRUE,f,f,NA,NA,NA,2,6,"14,12,8,9,11,6,13,7,2,10,3,15,5,1,4"
14718,commdev-image-keyboard-response,593,2247476,learnblock2,667,img/planet1_right.png,1,Community 3,NA,TRUE,j,j,NA,NA,NA,2,6,"14,12,8,9,11,6,13,7,2,10,3,15,5,1,4"
14718,commdev-image-keyboard-response,594,2248727,learnblock2,544,img/planet4_right.png,4,Community 3,NA,TRUE,j,j,NA,NA,NA,2,6,"14,12,8,9,11,6,13,7,2,10,3,15,5,1,4"
14718,commdev-image-keyboard-response,595,2249978,learnblock2,741,img/planet3_right.png,3,Community 3,NA,TRUE,j,j,NA,NA,NA,2,6,"14,12,8,9,11,6,13,7,2,10,3,15,5,1,4"
14718,commdev-image-keyboard-response,596,2251229,learnblock2,802.0000000004657,img/planet1_left.png,1,Community 3,NA,TRUE,f,f,NA,NA,NA,2,6,"14,12,8,9,11,6,13,7,2,10,3,15,5,1,4"
14718,commdev-image-keyboard-response,597,2252480,learnblock2,847,img/planet4_right.png,4,Community 3,NA,TRUE,j,j,NA,NA,NA,2,6,"14,12,8,9,11,6,13,7,2,10,3,15,5,1,4"
14718,commdev-image-keyboard-response,598,2253731,learnblock2,764,img/planet5_left.png,5,Community 3,NA,TRUE,f,f,NA,NA,NA,2,6,"14,12,8,9,11,6,13,7,2,10,3,15,5,1,4"
14718,commdev-image-keyboard-response,599,2254982,learnblock2,721,img/planet3_left.png,3,Community 3,NA,TRUE,f,f,NA,NA,NA,2,6,"14,12,8,9,11,6,13,7,2,10,3,15,5,1,4"
14718,commdev-image-keyboard-response,600,2256233,learnblock2,646,img/planet4_right.png,4,Community 3,NA,TRUE,j,j,NA,NA,NA,2,6,"14,12,8,9,11,6,13,7,2,10,3,15,5,1,4"
14718,commdev-image-keyboard-response,601,2257484,learnblock2,707,img/planet15_right.png,15,Community 3,NA,TRUE,j,j,NA,NA,NA,2,6,"14,12,8,9,11,6,13,7,2,10,3,15,5,1,4"
14718,commdev-image-keyboard-response,602,2258735,learnblock2,688,img/planet5_right.png,5,Community 3,NA,TRUE,j,j,NA,NA,NA,2,6,"14,12,8,9,11,6,13,7,2,10,3,15,5,1,4"
14718,commdev-image-keyboard-response,603,2259986,learnblock2,606,img/planet4_right.png,4,Community 3,NA,TRUE,j,j,NA,NA,NA,2,6,"14,12,8,9,11,6,13,7,2,10,3,15,5,1,4"
14718,commdev-image-keyboard-response,604,2261240,learnblock2,777,img/planet3_right.png,3,Community 3,NA,TRUE,j,j,NA,NA,NA,2,6,"14,12,8,9,11,6,13,7,2,10,3,15,5,1,4"
14718,commdev-image-keyboard-response,605,2262491,learnblock2,797,img/planet11_right.png,11,Community 1,NA,TRUE,j,j,NA,NA,NA,2,6,"14,12,8,9,11,6,13,7,2,10,3,15,5,1,4"
14718,commdev-image-keyboard-response,606,2263742,learnblock2,907,img/planet14_left.png,14,Community 1,NA,TRUE,f,f,NA,NA,NA,2,6,"14,12,8,9,11,6,13,7,2,10,3,15,5,1,4"
14718,commdev-image-keyboard-response,607,2264993,learnblock2,789.9999999995343,img/planet8_left.png,8,Community 1,NA,TRUE,f,f,NA,NA,NA,2,6,"14,12,8,9,11,6,13,7,2,10,3,15,5,1,4"
14718,commdev-image-keyboard-response,608,2266244,learnblock2,683,img/planet11_right.png,11,Community 1,NA,TRUE,j,j,NA,NA,NA,2,6,"14,12,8,9,11,6,13,7,2,10,3,15,5,1,4"
14718,commdev-image-keyboard-response,609,2267495,learnblock2,1184,img/planet8_left.png,8,Community 1,NA,FALSE,j,f,NA,NA,NA,2,6,"14,12,8,9,11,6,13,7,2,10,3,15,5,1,4"
14718,commdev-image-keyboard-response,610,2268746,learnblock2,718,img/planet12_right.png,12,Community 1,NA,TRUE,j,j,NA,NA,NA,2,6,"14,12,8,9,11,6,13,7,2,10,3,15,5,1,4"
14718,commdev-image-keyboard-response,611,2269997,learnblock2,851,img/planet14_left.png,14,Community 1,NA,TRUE,f,f,NA,NA,NA,2,6,"14,12,8,9,11,6,13,7,2,10,3,15,5,1,4"
14718,commdev-image-keyboard-response,612,2271248,learnblock2,664,img/planet11_right.png,11,Community 1,NA,TRUE,j,j,NA,NA,NA,2,6,"14,12,8,9,11,6,13,7,2,10,3,15,5,1,4"
