subject_id,trial_type,trial_index,time_elapsed,block,rt,stimulus,planet,community,response,correct,key_press,learning_correct_response,parse,init_locations,final_locations,browser_interactions,num_comp,planet_map
14223,commdev-instructions,7,32878,NA,2601,"<p>In this game, you will be shown a 3x3 grid of patterns.</p> <p>The last one in the bottom right-hand corner, <strong>will be missing:</strong></p> <div style='width: 700px;'><div style='float: top;'><img style='width: 200px;' src='practice/p1_M1.png'></img><p class='small'>You need to select<strong> which of the four possible patterns </strong>along the bottom<strong> fits into the gap:</strong></p></div><div style='float: top;'><img style='width: 300px;' src='practice/p1_T1.png'></img></div><br>",NA,NA,NA,NA,NA,NA,NA,NA,NA,1,7,"6,7,10,3,5,15,11,1,14,4,12,8,2,13,9"
14223,commdev-instructions,8,53283,NA,2402.5,"<p>Try to be as fast and as accurate as you can be.</p> <p>If you cannot solve the puzzle then you should guess - you will not be penalised for an incorrect answer.</p> <p>The task contains a shuffled mix of easy, medium and hard puzzles.</p> <p>You will have <strong>30 seconds</strong> to complete each puzzle.</p><br>",NA,NA,NA,NA,NA,NA,NA,NA,NA,1,7,"6,7,10,3,5,15,11,1,14,4,12,8,2,13,9"
14223,commdev-instructions,15,81675,NA,1567.7999999523163,<p><strong>Success!</strong></p> <p>You seem to be getting the hang of this...</p> <p>Let's move on to the real trials.</p><br>,NA,NA,NA,NA,NA,NA,NA,NA,NA,1,7,"6,7,10,3,5,15,11,1,14,4,12,8,2,13,9"
14223,commdev-instructions,93,586748,NA,12581.699999809265,"<p>In this game, you are a scientist on board a space shuttle. </p><p> On each mission, you will visit planets all across the universe.</p><img src=""img/controlroom.jpg"" width=300vw>",NA,NA,NA,NA,NA,NA,NA,NA,NA,1,7,"6,7,10,3,5,15,11,1,14,4,12,8,2,13,9"
14223,commdev-instructions,94,590279,NA,1462.2000000476837,"<p>Here are a few planets you might see:</p><img src=""img/practice1.png"" width=200vw><img src=""img/practice2.png"" width=200vw><img src=""img/practice3.png"" width=200vw>",NA,NA,NA,NA,NA,NA,NA,NA,NA,1,7,"6,7,10,3,5,15,11,1,14,4,12,8,2,13,9"
14223,commdev-instructions,95,599539,NA,1862.5999999046326,"<p>Your job as a scientist is to record which direction the winds are moving on each planet.</p><p>There are two types of wind directions:</p><img src=""img/practice1_left.png"" width=200vw><img src=""img/practice1_right.png"" width=200vw>",NA,NA,NA,NA,NA,NA,NA,NA,NA,1,7,"6,7,10,3,5,15,11,1,14,4,12,8,2,13,9"
14223,commdev-instructions,96,605687,NA,1269.7999999523163,"<p>If the winds are moving this way, press the letter <strong>F</strong> on the keyboard as fast as you can.</p><img src=""img/leftwind.png"" width=250vw>",NA,NA,NA,NA,NA,NA,NA,NA,NA,1,7,"6,7,10,3,5,15,11,1,14,4,12,8,2,13,9"
14223,commdev-instructions,97,612583,NA,2395.7999999523163,"<p>If the winds are moving this way, press the letter <strong>J</strong> on the keyboard as fast as you can.</p><img src=""img/rightwind.png"" width=350vw>",NA,NA,NA,NA,NA,NA,NA,NA,NA,1,7,"6,7,10,3,5,15,11,1,14,4,12,8,2,13,9"
14223,commdev-instructions,98,620652,NA,3634.9000000953674,<p>You will have 1 second to respond. Try to respond before the time runs out!,NA,NA,NA,NA,NA,NA,NA,NA,NA,1,7,"6,7,10,3,5,15,11,1,14,4,12,8,2,13,9"
14223,commdev-instructions,99,627187,NA,1109.5999999046326,<p>The planets you will visit will look different from each other.</p><p>You should respond <strong>only</strong> based on wind direction.,NA,NA,NA,NA,NA,NA,NA,NA,NA,1,7,"6,7,10,3,5,15,11,1,14,4,12,8,2,13,9"
14223,commdev-instructions,100,636795,NA,4437.5,"<p> Ready to start the practice round? </p><p> Remember, press <strong>F</strong> or <strong>J</strong> depending on the wind direction.<br><img src=""img/categorize_planet_example.png""",NA,NA,NA,NA,NA,NA,NA,NA,NA,1,7,"6,7,10,3,5,15,11,1,14,4,12,8,2,13,9"
14223,commdev-instructions,112,713958,NA,15597.299999952316,"<p>Great, now try a short practice mission. </p><p> This time, you will have 1 second to respond and you won't know whether you pressed the right or wrong key for each planet.</p>",NA,NA,NA,NA,NA,NA,NA,NA,NA,1,7,"6,7,10,3,5,15,11,1,14,4,12,8,2,13,9"
14223,commdev-image-keyboard-response,113,715314,practice,825.5,img/practice4_right.png,NA,Number not found in mappings,NA,TRUE,j,j,NA,NA,NA,1,7,"6,7,10,3,5,15,11,1,14,4,12,8,2,13,9"
14223,commdev-image-keyboard-response,114,716567,practice,null,img/practice3_right.png,NA,Number not found in mappings,NA,FALSE,null,j,NA,NA,NA,1,7,"6,7,10,3,5,15,11,1,14,4,12,8,2,13,9"
14223,commdev-image-keyboard-response,115,717819,practice,176.20000004768372,img/practice4_right.png,NA,Number not found in mappings,NA,TRUE,j,j,NA,NA,NA,1,7,"6,7,10,3,5,15,11,1,14,4,12,8,2,13,9"
14223,commdev-image-keyboard-response,116,719084,practice,783.6000001430511,img/practice3_right.png,NA,Number not found in mappings,NA,TRUE,j,j,NA,NA,NA,1,7,"6,7,10,3,5,15,11,1,14,4,12,8,2,13,9"
14223,commdev-image-keyboard-response,117,720341,practice,542.4000000953674,img/practice1_left.png,NA,Number not found in mappings,NA,TRUE,f,f,NA,NA,NA,1,7,"6,7,10,3,5,15,11,1,14,4,12,8,2,13,9"
14223,commdev-image-keyboard-response,118,721595,practice,350.19999980926514,img/practice2_right.png,NA,Number not found in mappings,NA,TRUE,j,j,NA,NA,NA,1,7,"6,7,10,3,5,15,11,1,14,4,12,8,2,13,9"
14223,commdev-image-keyboard-response,119,722850,practice,253,img/practice1_right.png,NA,Number not found in mappings,NA,TRUE,j,j,NA,NA,NA,1,7,"6,7,10,3,5,15,11,1,14,4,12,8,2,13,9"
14223,commdev-image-keyboard-response,120,724107,practice,252.79999995231628,img/practice3_right.png,NA,Number not found in mappings,NA,TRUE,j,j,NA,NA,NA,1,7,"6,7,10,3,5,15,11,1,14,4,12,8,2,13,9"
14223,commdev-instructions,121,750870,NA,17219.5,"<p>Great job with the practice round.</p><p>During real missions, you won't know whether you pressed the right or wrong key for each planet.</p><p>But between missions, we will tell you how you did overall.</p>",NA,NA,NA,NA,NA,NA,NA,NA,NA,1,7,"6,7,10,3,5,15,11,1,14,4,12,8,2,13,9"
14223,commdev-instructions,122,763213,NA,4102.5,<p>Try your best! You will be paid a bonus based on how many correct responses you make!</p><p>Responses that are too slow will not count toward your bonus.</p>,NA,NA,NA,NA,NA,NA,NA,NA,NA,1,7,"6,7,10,3,5,15,11,1,14,4,12,8,2,13,9"
14223,commdev-instructions,123,771703,NA,2292.800000190735,"<p>You are almost ready to start the real game.</p><p> First, we are going to ask you some questions about how the game works.</p>",NA,NA,NA,NA,NA,NA,NA,NA,NA,1,7,"6,7,10,3,5,15,11,1,14,4,12,8,2,13,9"
14223,commdev-instructions,132,861178,NA,6906.799999952316,"<p> Nice work! It is now time to start the real game.<p></p>You will go on two missions to record wind directions of different planets.<p></p>Each one will take about 5 minutes. You will get to take a break between missions.<p><p> Remember, press <strong>F</strong> or <strong>J</strong> depending on the wind direction. Good luck!<br><img src=""img/categorize_planet_example.png""",NA,NA,NA,NA,NA,NA,NA,NA,NA,1,7,"6,7,10,3,5,15,11,1,14,4,12,8,2,13,9"
14223,commdev-image-keyboard-response,134,870811,learnblock1,null,img/planet6_left.png,6,Community 1,NA,FALSE,null,f,NA,NA,NA,1,7,"6,7,10,3,5,15,11,1,14,4,12,8,2,13,9"
14223,commdev-image-keyboard-response,135,872075,learnblock1,493.2999999523163,img/planet10_right.png,10,Community 1,NA,FALSE,f,j,NA,NA,NA,1,7,"6,7,10,3,5,15,11,1,14,4,12,8,2,13,9"
14223,commdev-image-keyboard-response,136,873330,learnblock1,530,img/planet6_left.png,6,Community 1,NA,FALSE,j,f,NA,NA,NA,1,7,"6,7,10,3,5,15,11,1,14,4,12,8,2,13,9"
14223,commdev-image-keyboard-response,137,874590,learnblock1,672.2999999523163,img/planet3_right.png,3,Community 1,NA,FALSE,f,j,NA,NA,NA,1,7,"6,7,10,3,5,15,11,1,14,4,12,8,2,13,9"
14223,commdev-image-keyboard-response,138,875858,learnblock1,576.5999999046326,img/planet10_left.png,10,Community 1,NA,TRUE,f,f,NA,NA,NA,1,7,"6,7,10,3,5,15,11,1,14,4,12,8,2,13,9"
14223,commdev-image-keyboard-response,139,877113,learnblock1,462.89999985694885,img/planet6_left.png,6,Community 1,NA,FALSE,j,f,NA,NA,NA,1,7,"6,7,10,3,5,15,11,1,14,4,12,8,2,13,9"
14223,commdev-image-keyboard-response,140,878378,learnblock1,865.5,img/planet3_right.png,3,Community 1,NA,TRUE,j,j,NA,NA,NA,1,7,"6,7,10,3,5,15,11,1,14,4,12,8,2,13,9"
14223,commdev-image-keyboard-response,141,879649,learnblock1,735.7000000476837,img/planet6_right.png,6,Community 1,NA,TRUE,j,j,NA,NA,NA,1,7,"6,7,10,3,5,15,11,1,14,4,12,8,2,13,9"
14223,commdev-image-keyboard-response,142,880915,learnblock1,841,img/planet7_right.png,7,Community 1,NA,FALSE,f,j,NA,NA,NA,1,7,"6,7,10,3,5,15,11,1,14,4,12,8,2,13,9"
14223,commdev-image-keyboard-response,143,882170,learnblock1,978.7000000476837,img/planet6_right.png,6,Community 1,NA,TRUE,j,j,NA,NA,NA,1,7,"6,7,10,3,5,15,11,1,14,4,12,8,2,13,9"
14223,commdev-image-keyboard-response,144,883425,learnblock1,799.1000001430511,img/planet3_left.png,3,Community 1,NA,TRUE,f,f,NA,NA,NA,1,7,"6,7,10,3,5,15,11,1,14,4,12,8,2,13,9"
14223,commdev-image-keyboard-response,145,884677,learnblock1,694.6000001430511,img/planet7_left.png,7,Community 1,NA,FALSE,j,f,NA,NA,NA,1,7,"6,7,10,3,5,15,11,1,14,4,12,8,2,13,9"
14223,commdev-image-keyboard-response,146,885928,learnblock1,509.69999980926514,img/planet10_left.png,10,Community 1,NA,TRUE,f,f,NA,NA,NA,1,7,"6,7,10,3,5,15,11,1,14,4,12,8,2,13,9"
14223,commdev-image-keyboard-response,147,887190,learnblock1,511.2999999523163,img/planet3_left.png,3,Community 1,NA,TRUE,f,f,NA,NA,NA,1,7,"6,7,10,3,5,15,11,1,14,4,12,8,2,13,9"
14223,commdev-image-keyboard-response,148,888441,learnblock1,748.7999999523163,img/planet6_left.png,6,Community 1,NA,TRUE,f,f,NA,NA,NA,1,7,"6,7,10,3,5,15,11,1,14,4,12,8,2,13,9"
14223,commdev-image-keyboard-response,149,889692,learnblock1,740.1000001430511,img/planet3_left.png,3,Community 1,NA,TRUE,f,f,NA,NA,NA,1,7,"6,7,10,3,5,15,11,1,14,4,12,8,2,13,9"
14223,commdev-image-keyboard-response,150,890943,learnblock1,462.7999999523163,img/planet15_left.png,15,Community 2,NA,TRUE,f,f,NA,NA,NA,1,7,"6,7,10,3,5,15,11,1,14,4,12,8,2,13,9"
14223,commdev-image-keyboard-response,151,892196,learnblock1,579.5,img/planet11_left.png,11,Community 2,NA,TRUE,f,f,NA,NA,NA,1,7,"6,7,10,3,5,15,11,1,14,4,12,8,2,13,9"
14223,commdev-image-keyboard-response,152,893447,learnblock1,481.7999999523163,img/planet14_left.png,14,Community 2,NA,TRUE,f,f,NA,NA,NA,1,7,"6,7,10,3,5,15,11,1,14,4,12,8,2,13,9"
14223,commdev-image-keyboard-response,153,894698,learnblock1,547,img/planet4_right.png,4,Community 2,NA,TRUE,j,j,NA,NA,NA,1,7,"6,7,10,3,5,15,11,1,14,4,12,8,2,13,9"
14223,commdev-image-keyboard-response,154,895950,learnblock1,661.7000000476837,img/planet15_right.png,15,Community 2,NA,FALSE,f,j,NA,NA,NA,1,7,"6,7,10,3,5,15,11,1,14,4,12,8,2,13,9"
14223,commdev-image-keyboard-response,155,897202,learnblock1,552.8999998569489,img/planet4_left.png,4,Community 2,NA,FALSE,j,f,NA,NA,NA,1,7,"6,7,10,3,5,15,11,1,14,4,12,8,2,13,9"
14223,commdev-image-keyboard-response,156,898466,learnblock1,635.0999999046326,img/planet11_right.png,11,Community 2,NA,TRUE,j,j,NA,NA,NA,1,7,"6,7,10,3,5,15,11,1,14,4,12,8,2,13,9"
14223,commdev-image-keyboard-response,157,899718,learnblock1,773.2999999523163,img/planet4_left.png,4,Community 2,NA,TRUE,f,f,NA,NA,NA,1,7,"6,7,10,3,5,15,11,1,14,4,12,8,2,13,9"
14223,commdev-image-keyboard-response,158,900969,learnblock1,738.7999999523163,img/planet11_left.png,11,Community 2,NA,FALSE,j,f,NA,NA,NA,1,7,"6,7,10,3,5,15,11,1,14,4,12,8,2,13,9"
14223,commdev-image-keyboard-response,159,902222,learnblock1,754.2999999523163,img/planet1_right.png,1,Community 2,NA,TRUE,j,j,NA,NA,NA,1,7,"6,7,10,3,5,15,11,1,14,4,12,8,2,13,9"
14223,commdev-image-keyboard-response,160,903479,learnblock1,578.7999999523163,img/planet11_left.png,11,Community 2,NA,TRUE,f,f,NA,NA,NA,1,7,"6,7,10,3,5,15,11,1,14,4,12,8,2,13,9"
14223,commdev-image-keyboard-response,161,904730,learnblock1,512.6000001430511,img/planet1_right.png,1,Community 2,NA,TRUE,j,j,NA,NA,NA,1,7,"6,7,10,3,5,15,11,1,14,4,12,8,2,13,9"
14223,commdev-image-keyboard-response,162,905981,learnblock1,435.5,img/planet4_right.png,4,Community 2,NA,FALSE,f,j,NA,NA,NA,1,7,"6,7,10,3,5,15,11,1,14,4,12,8,2,13,9"
14223,commdev-image-keyboard-response,163,907240,learnblock1,965.4000000953674,img/planet11_right.png,11,Community 2,NA,FALSE,f,j,NA,NA,NA,1,7,"6,7,10,3,5,15,11,1,14,4,12,8,2,13,9"
14223,commdev-image-keyboard-response,164,908492,learnblock1,1044.2000000476837,img/planet4_left.png,4,Community 2,NA,FALSE,j,f,NA,NA,NA,1,7,"6,7,10,3,5,15,11,1,14,4,12,8,2,13,9"
14223,commdev-image-keyboard-response,165,909743,learnblock1,945.8999998569489,img/planet11_left.png,11,Community 2,NA,TRUE,f,f,NA,NA,NA,1,7,"6,7,10,3,5,15,11,1,14,4,12,8,2,13,9"
14223,commdev-image-keyboard-response,166,910994,learnblock1,738.6000001430511,img/planet1_right.png,1,Community 2,NA,TRUE,j,j,NA,NA,NA,1,7,"6,7,10,3,5,15,11,1,14,4,12,8,2,13,9"
14223,commdev-image-keyboard-response,167,912252,learnblock1,585.7999999523163,img/planet11_left.png,11,Community 2,NA,TRUE,f,f,NA,NA,NA,1,7,"6,7,10,3,5,15,11,1,14,4,12,8,2,13,9"
14223,commdev-image-keyboard-response,168,913504,learnblock1,694,img/planet4_right.png,4,Community 2,NA,TRUE,j,j,NA,NA,NA,1,7,"6,7,10,3,5,15,11,1,14,4,12,8,2,13,9"
14223,commdev-image-keyboard-response,169,914756,learnblock1,799.6000001430511,img/planet14_right.png,14,Community 2,NA,TRUE,j,j,NA,NA,NA,1,7,"6,7,10,3,5,15,11,1,14,4,12,8,2,13,9"
14223,commdev-image-keyboard-response,170,916008,learnblock1,595.2000000476837,img/planet15_right.png,15,Community 2,NA,FALSE,f,j,NA,NA,NA,1,7,"6,7,10,3,5,15,11,1,14,4,12,8,2,13,9"
14223,commdev-image-keyboard-response,171,917260,learnblock1,560.5999999046326,img/planet11_right.png,11,Community 2,NA,TRUE,j,j,NA,NA,NA,1,7,"6,7,10,3,5,15,11,1,14,4,12,8,2,13,9"
14223,commdev-image-keyboard-response,172,918513,learnblock1,568.7999999523163,img/planet1_right.png,1,Community 2,NA,FALSE,f,j,NA,NA,NA,1,7,"6,7,10,3,5,15,11,1,14,4,12,8,2,13,9"
14223,commdev-image-keyboard-response,173,919764,learnblock1,633.2999999523163,img/planet4_left.png,4,Community 2,NA,FALSE,j,f,NA,NA,NA,1,7,"6,7,10,3,5,15,11,1,14,4,12,8,2,13,9"
14223,commdev-image-keyboard-response,174,921017,learnblock1,747.7000000476837,img/planet1_left.png,1,Community 2,NA,TRUE,f,f,NA,NA,NA,1,7,"6,7,10,3,5,15,11,1,14,4,12,8,2,13,9"
14223,commdev-image-keyboard-response,175,922268,learnblock1,710.2999999523163,img/planet4_left.png,4,Community 2,NA,TRUE,f,f,NA,NA,NA,1,7,"6,7,10,3,5,15,11,1,14,4,12,8,2,13,9"
14223,commdev-image-keyboard-response,176,923520,learnblock1,627.5,img/planet15_left.png,15,Community 2,NA,TRUE,f,f,NA,NA,NA,1,7,"6,7,10,3,5,15,11,1,14,4,12,8,2,13,9"
14223,commdev-image-keyboard-response,177,924772,learnblock1,675.0999999046326,img/planet4_left.png,4,Community 2,NA,TRUE,f,f,NA,NA,NA,1,7,"6,7,10,3,5,15,11,1,14,4,12,8,2,13,9"
14223,commdev-image-keyboard-response,178,926022,learnblock1,693.9000000953674,img/planet1_left.png,1,Community 2,NA,TRUE,f,f,NA,NA,NA,1,7,"6,7,10,3,5,15,11,1,14,4,12,8,2,13,9"
14223,commdev-image-keyboard-response,179,927274,learnblock1,595.1000001430511,img/planet8_left.png,8,Community 3,NA,TRUE,f,f,NA,NA,NA,1,7,"6,7,10,3,5,15,11,1,14,4,12,8,2,13,9"
14223,commdev-image-keyboard-response,180,928525,learnblock1,504.60000014305115,img/planet2_left.png,2,Community 3,NA,TRUE,f,f,NA,NA,NA,1,7,"6,7,10,3,5,15,11,1,14,4,12,8,2,13,9"
14223,commdev-image-keyboard-response,181,929777,learnblock1,401.09999990463257,img/planet9_right.png,9,Community 3,NA,FALSE,f,j,NA,NA,NA,1,7,"6,7,10,3,5,15,11,1,14,4,12,8,2,13,9"
14223,commdev-image-keyboard-response,182,931028,learnblock1,673.8999998569489,img/planet8_left.png,8,Community 3,NA,TRUE,f,f,NA,NA,NA,1,7,"6,7,10,3,5,15,11,1,14,4,12,8,2,13,9"
14223,commdev-image-keyboard-response,183,932280,learnblock1,578.7999999523163,img/planet1_right.png,1,Community 2,NA,TRUE,j,j,NA,NA,NA,1,7,"6,7,10,3,5,15,11,1,14,4,12,8,2,13,9"
14223,commdev-image-keyboard-response,184,933545,learnblock1,510.40000009536743,img/planet4_right.png,4,Community 2,NA,FALSE,f,j,NA,NA,NA,1,7,"6,7,10,3,5,15,11,1,14,4,12,8,2,13,9"
14223,commdev-image-keyboard-response,185,934796,learnblock1,697.0999999046326,img/planet15_right.png,15,Community 2,NA,TRUE,j,j,NA,NA,NA,1,7,"6,7,10,3,5,15,11,1,14,4,12,8,2,13,9"
14223,commdev-image-keyboard-response,186,936047,learnblock1,682.5999999046326,img/planet4_left.png,4,Community 2,NA,TRUE,f,f,NA,NA,NA,1,7,"6,7,10,3,5,15,11,1,14,4,12,8,2,13,9"
14223,commdev-image-keyboard-response,187,937299,learnblock1,740.5,img/planet15_left.png,15,Community 2,NA,TRUE,f,f,NA,NA,NA,1,7,"6,7,10,3,5,15,11,1,14,4,12,8,2,13,9"
14223,commdev-image-keyboard-response,188,938551,learnblock1,763.2000000476837,img/planet3_right.png,3,Community 1,NA,FALSE,f,j,NA,NA,NA,1,7,"6,7,10,3,5,15,11,1,14,4,12,8,2,13,9"
14223,commdev-image-keyboard-response,189,939803,learnblock1,730.4000000953674,img/planet6_right.png,6,Community 1,NA,TRUE,j,j,NA,NA,NA,1,7,"6,7,10,3,5,15,11,1,14,4,12,8,2,13,9"
14223,commdev-image-keyboard-response,190,941064,learnblock1,810.5999999046326,img/planet7_left.png,7,Community 1,NA,TRUE,f,f,NA,NA,NA,1,7,"6,7,10,3,5,15,11,1,14,4,12,8,2,13,9"
14223,commdev-image-keyboard-response,191,942321,learnblock1,745.7999999523163,img/planet6_left.png,6,Community 1,NA,TRUE,f,f,NA,NA,NA,1,7,"6,7,10,3,5,15,11,1,14,4,12,8,2,13,9"
14223,commdev-image-keyboard-response,192,943573,learnblock1,910.2000000476837,img/planet3_left.png,3,Community 1,NA,FALSE,j,f,NA,NA,NA,1,7,"6,7,10,3,5,15,11,1,14,4,12,8,2,13,9"
14223,commdev-image-keyboard-response,193,944824,learnblock1,742.2999999523163,img/planet6_left.png,6,Community 1,NA,TRUE,f,f,NA,NA,NA,1,7,"6,7,10,3,5,15,11,1,14,4,12,8,2,13,9"
14223,commdev-image-keyboard-response,194,946076,learnblock1,833.8999998569489,img/planet5_right.png,5,Community 1,NA,TRUE,j,j,NA,NA,NA,1,7,"6,7,10,3,5,15,11,1,14,4,12,8,2,13,9"
14223,commdev-image-keyboard-response,195,947334,learnblock1,982,img/planet7_left.png,7,Community 1,NA,TRUE,f,f,NA,NA,NA,1,7,"6,7,10,3,5,15,11,1,14,4,12,8,2,13,9"
14223,commdev-image-keyboard-response,196,948586,learnblock1,769.1000001430511,img/planet3_left.png,3,Community 1,NA,TRUE,f,f,NA,NA,NA,1,7,"6,7,10,3,5,15,11,1,14,4,12,8,2,13,9"
14223,commdev-image-keyboard-response,197,949838,learnblock1,721.5,img/planet7_left.png,7,Community 1,NA,TRUE,f,f,NA,NA,NA,1,7,"6,7,10,3,5,15,11,1,14,4,12,8,2,13,9"
14223,commdev-image-keyboard-response,198,951091,learnblock1,681.2999999523163,img/planet6_left.png,6,Community 1,NA,TRUE,f,f,NA,NA,NA,1,7,"6,7,10,3,5,15,11,1,14,4,12,8,2,13,9"
14223,commdev-image-keyboard-response,199,952342,learnblock1,697.7999999523163,img/planet3_left.png,3,Community 1,NA,TRUE,f,f,NA,NA,NA,1,7,"6,7,10,3,5,15,11,1,14,4,12,8,2,13,9"
14223,commdev-image-keyboard-response,200,953592,learnblock1,596.2000000476837,img/planet10_left.png,10,Community 1,NA,TRUE,f,f,NA,NA,NA,1,7,"6,7,10,3,5,15,11,1,14,4,12,8,2,13,9"
14223,commdev-image-keyboard-response,201,954843,learnblock1,631.7999999523163,img/planet6_left.png,6,Community 1,NA,TRUE,f,f,NA,NA,NA,1,7,"6,7,10,3,5,15,11,1,14,4,12,8,2,13,9"
14223,commdev-image-keyboard-response,202,956095,learnblock1,821.7000000476837,img/planet5_left.png,5,Community 1,NA,TRUE,f,f,NA,NA,NA,1,7,"6,7,10,3,5,15,11,1,14,4,12,8,2,13,9"
14223,commdev-image-keyboard-response,203,957346,learnblock1,665.2999999523163,img/planet12_right.png,12,Community 3,NA,FALSE,f,j,NA,NA,NA,1,7,"6,7,10,3,5,15,11,1,14,4,12,8,2,13,9"
14223,commdev-image-keyboard-response,204,958597,learnblock1,888.9000000953674,img/planet5_right.png,5,Community 1,NA,TRUE,j,j,NA,NA,NA,1,7,"6,7,10,3,5,15,11,1,14,4,12,8,2,13,9"
14223,commdev-image-keyboard-response,205,959849,learnblock1,816.7999999523163,img/planet12_right.png,12,Community 3,NA,TRUE,j,j,NA,NA,NA,1,7,"6,7,10,3,5,15,11,1,14,4,12,8,2,13,9"
14223,commdev-image-keyboard-response,206,961101,learnblock1,812,img/planet13_left.png,13,Community 3,NA,TRUE,f,f,NA,NA,NA,1,7,"6,7,10,3,5,15,11,1,14,4,12,8,2,13,9"
14223,commdev-image-keyboard-response,207,962353,learnblock1,782.9000000953674,img/planet9_left.png,9,Community 3,NA,TRUE,f,f,NA,NA,NA,1,7,"6,7,10,3,5,15,11,1,14,4,12,8,2,13,9"
14223,commdev-image-keyboard-response,208,963603,learnblock1,799.2000000476837,img/planet8_left.png,8,Community 3,NA,FALSE,j,f,NA,NA,NA,1,7,"6,7,10,3,5,15,11,1,14,4,12,8,2,13,9"
14223,commdev-image-keyboard-response,209,964855,learnblock1,762,img/planet9_left.png,9,Community 3,NA,TRUE,f,f,NA,NA,NA,1,7,"6,7,10,3,5,15,11,1,14,4,12,8,2,13,9"
14223,commdev-image-keyboard-response,210,966106,learnblock1,851.0999999046326,img/planet12_right.png,12,Community 3,NA,TRUE,j,j,NA,NA,NA,1,7,"6,7,10,3,5,15,11,1,14,4,12,8,2,13,9"
14223,commdev-image-keyboard-response,211,967358,learnblock1,961.2999999523163,img/planet13_right.png,13,Community 3,NA,TRUE,j,j,NA,NA,NA,1,7,"6,7,10,3,5,15,11,1,14,4,12,8,2,13,9"
14223,commdev-image-keyboard-response,212,968610,learnblock1,827.0999999046326,img/planet9_left.png,9,Community 3,NA,TRUE,f,f,NA,NA,NA,1,7,"6,7,10,3,5,15,11,1,14,4,12,8,2,13,9"
14223,commdev-image-keyboard-response,213,969874,learnblock1,893.5,img/planet2_left.png,2,Community 3,NA,TRUE,f,f,NA,NA,NA,1,7,"6,7,10,3,5,15,11,1,14,4,12,8,2,13,9"
14223,commdev-image-keyboard-response,214,971126,learnblock1,773.7999999523163,img/planet12_right.png,12,Community 3,NA,TRUE,j,j,NA,NA,NA,1,7,"6,7,10,3,5,15,11,1,14,4,12,8,2,13,9"
14223,commdev-image-keyboard-response,215,972377,learnblock1,821,img/planet9_right.png,9,Community 3,NA,TRUE,j,j,NA,NA,NA,1,7,"6,7,10,3,5,15,11,1,14,4,12,8,2,13,9"
14223,commdev-image-keyboard-response,216,973628,learnblock1,769.8000001907349,img/planet8_left.png,8,Community 3,NA,TRUE,f,f,NA,NA,NA,1,7,"6,7,10,3,5,15,11,1,14,4,12,8,2,13,9"
14223,commdev-image-keyboard-response,217,974879,learnblock1,741.9000000953674,img/planet9_left.png,9,Community 3,NA,FALSE,j,f,NA,NA,NA,1,7,"6,7,10,3,5,15,11,1,14,4,12,8,2,13,9"
14223,commdev-image-keyboard-response,218,976131,learnblock1,682.6999998092651,img/planet2_left.png,2,Community 3,NA,TRUE,f,f,NA,NA,NA,1,7,"6,7,10,3,5,15,11,1,14,4,12,8,2,13,9"
14223,commdev-image-keyboard-response,219,977384,learnblock1,618.5999999046326,img/planet9_left.png,9,Community 3,NA,TRUE,f,f,NA,NA,NA,1,7,"6,7,10,3,5,15,11,1,14,4,12,8,2,13,9"
14223,commdev-image-keyboard-response,220,978636,learnblock1,1200.3000001907349,img/planet8_left.png,8,Community 3,NA,TRUE,f,f,NA,NA,NA,1,7,"6,7,10,3,5,15,11,1,14,4,12,8,2,13,9"
14223,commdev-image-keyboard-response,221,979887,learnblock1,828.2999999523163,img/planet2_left.png,2,Community 3,NA,TRUE,f,f,NA,NA,NA,1,7,"6,7,10,3,5,15,11,1,14,4,12,8,2,13,9"
14223,commdev-image-keyboard-response,222,981139,learnblock1,557.2999999523163,img/planet13_right.png,13,Community 3,NA,FALSE,f,j,NA,NA,NA,1,7,"6,7,10,3,5,15,11,1,14,4,12,8,2,13,9"
14223,commdev-image-keyboard-response,223,982391,learnblock1,732,img/planet12_left.png,12,Community 3,NA,TRUE,f,f,NA,NA,NA,1,7,"6,7,10,3,5,15,11,1,14,4,12,8,2,13,9"
14223,commdev-image-keyboard-response,224,983642,learnblock1,667.7000000476837,img/planet2_right.png,2,Community 3,NA,TRUE,j,j,NA,NA,NA,1,7,"6,7,10,3,5,15,11,1,14,4,12,8,2,13,9"
14223,commdev-image-keyboard-response,225,984894,learnblock1,637.3999998569489,img/planet8_left.png,8,Community 3,NA,FALSE,j,f,NA,NA,NA,1,7,"6,7,10,3,5,15,11,1,14,4,12,8,2,13,9"
14223,commdev-image-keyboard-response,226,986145,learnblock1,794.2999999523163,img/planet9_left.png,9,Community 3,NA,TRUE,f,f,NA,NA,NA,1,7,"6,7,10,3,5,15,11,1,14,4,12,8,2,13,9"
14223,commdev-image-keyboard-response,227,987396,learnblock1,798.2999999523163,img/planet13_left.png,13,Community 3,NA,FALSE,j,f,NA,NA,NA,1,7,"6,7,10,3,5,15,11,1,14,4,12,8,2,13,9"
14223,commdev-image-keyboard-response,228,988648,learnblock1,859.0999999046326,img/planet8_right.png,8,Community 3,NA,TRUE,j,j,NA,NA,NA,1,7,"6,7,10,3,5,15,11,1,14,4,12,8,2,13,9"
14223,commdev-image-keyboard-response,229,989907,learnblock1,732.4000000953674,img/planet9_right.png,9,Community 3,NA,TRUE,j,j,NA,NA,NA,1,7,"6,7,10,3,5,15,11,1,14,4,12,8,2,13,9"
14223,commdev-image-keyboard-response,230,991159,learnblock1,747.6000001430511,img/planet13_left.png,13,Community 3,NA,TRUE,f,f,NA,NA,NA,1,7,"6,7,10,3,5,15,11,1,14,4,12,8,2,13,9"
14223,commdev-image-keyboard-response,231,992415,learnblock1,702.2999999523163,img/planet8_left.png,8,Community 3,NA,TRUE,f,f,NA,NA,NA,1,7,"6,7,10,3,5,15,11,1,14,4,12,8,2,13,9"
14223,commdev-image-keyboard-response,232,993667,learnblock1,700.2000000476837,img/planet9_left.png,9,Community 3,NA,TRUE,f,f,NA,NA,NA,1,7,"6,7,10,3,5,15,11,1,14,4,12,8,2,13,9"
14223,commdev-image-keyboard-response,233,994921,learnblock1,768.2999999523163,img/planet8_right.png,8,Community 3,NA,TRUE,j,j,NA,NA,NA,1,7,"6,7,10,3,5,15,11,1,14,4,12,8,2,13,9"
14223,commdev-image-keyboard-response,234,996174,learnblock1,695.5,img/planet9_right.png,9,Community 3,NA,TRUE,j,j,NA,NA,NA,1,7,"6,7,10,3,5,15,11,1,14,4,12,8,2,13,9"
14223,commdev-image-keyboard-response,235,997424,learnblock1,739.6000001430511,img/planet13_left.png,13,Community 3,NA,TRUE,f,f,NA,NA,NA,1,7,"6,7,10,3,5,15,11,1,14,4,12,8,2,13,9"
14223,commdev-image-keyboard-response,236,998676,learnblock1,838.6999998092651,img/planet12_right.png,12,Community 3,NA,TRUE,j,j,NA,NA,NA,1,7,"6,7,10,3,5,15,11,1,14,4,12,8,2,13,9"
14223,commdev-image-keyboard-response,237,999928,learnblock1,621.3000001907349,img/planet9_left.png,9,Community 3,NA,TRUE,f,f,NA,NA,NA,1,7,"6,7,10,3,5,15,11,1,14,4,12,8,2,13,9"
14223,commdev-image-keyboard-response,238,1001179,learnblock1,832.5,img/planet8_right.png,8,Community 3,NA,FALSE,f,j,NA,NA,NA,1,7,"6,7,10,3,5,15,11,1,14,4,12,8,2,13,9"
14223,commdev-image-keyboard-response,239,1002431,learnblock1,5.299999952316284,img/planet9_left.png,9,Community 3,NA,FALSE,j,f,NA,NA,NA,1,7,"6,7,10,3,5,15,11,1,14,4,12,8,2,13,9"
14223,commdev-image-keyboard-response,240,1003683,learnblock1,691.7000000476837,img/planet12_left.png,12,Community 3,NA,TRUE,f,f,NA,NA,NA,1,7,"6,7,10,3,5,15,11,1,14,4,12,8,2,13,9"
14223,commdev-image-keyboard-response,241,1004935,learnblock1,819.0999999046326,img/planet2_left.png,2,Community 3,NA,TRUE,f,f,NA,NA,NA,1,7,"6,7,10,3,5,15,11,1,14,4,12,8,2,13,9"
14223,commdev-image-keyboard-response,242,1006186,learnblock1,704.4000000953674,img/planet9_right.png,9,Community 3,NA,FALSE,f,j,NA,NA,NA,1,7,"6,7,10,3,5,15,11,1,14,4,12,8,2,13,9"
14223,commdev-image-keyboard-response,243,1007437,learnblock1,749.6999998092651,img/planet13_right.png,13,Community 3,NA,TRUE,j,j,NA,NA,NA,1,7,"6,7,10,3,5,15,11,1,14,4,12,8,2,13,9"
14223,commdev-image-keyboard-response,244,1008689,learnblock1,686.5999999046326,img/planet2_left.png,2,Community 3,NA,TRUE,f,f,NA,NA,NA,1,7,"6,7,10,3,5,15,11,1,14,4,12,8,2,13,9"
14223,commdev-image-keyboard-response,245,1009941,learnblock1,734.2999999523163,img/planet12_left.png,12,Community 3,NA,TRUE,f,f,NA,NA,NA,1,7,"6,7,10,3,5,15,11,1,14,4,12,8,2,13,9"
14223,commdev-image-keyboard-response,246,1011193,learnblock1,516.7999999523163,img/planet9_right.png,9,Community 3,NA,TRUE,j,j,NA,NA,NA,1,7,"6,7,10,3,5,15,11,1,14,4,12,8,2,13,9"
14223,commdev-image-keyboard-response,247,1012444,learnblock1,547,img/planet13_left.png,13,Community 3,NA,TRUE,f,f,NA,NA,NA,1,7,"6,7,10,3,5,15,11,1,14,4,12,8,2,13,9"
14223,commdev-image-keyboard-response,248,1013699,learnblock1,null,img/planet12_right.png,12,Community 3,NA,FALSE,null,j,NA,NA,NA,1,7,"6,7,10,3,5,15,11,1,14,4,12,8,2,13,9"
14223,commdev-image-keyboard-response,249,1014952,learnblock1,null,img/planet2_left.png,2,Community 3,NA,FALSE,null,f,NA,NA,NA,1,7,"6,7,10,3,5,15,11,1,14,4,12,8,2,13,9"
14223,commdev-image-keyboard-response,250,1016203,learnblock1,null,img/planet8_left.png,8,Community 3,NA,FALSE,null,f,NA,NA,NA,1,7,"6,7,10,3,5,15,11,1,14,4,12,8,2,13,9"
14223,commdev-image-keyboard-response,251,1017455,learnblock1,null,img/planet1_left.png,1,Community 2,NA,FALSE,null,f,NA,NA,NA,1,7,"6,7,10,3,5,15,11,1,14,4,12,8,2,13,9"
14223,commdev-image-keyboard-response,252,1018707,learnblock1,893.8999998569489,img/planet8_right.png,8,Community 3,NA,TRUE,j,j,NA,NA,NA,1,7,"6,7,10,3,5,15,11,1,14,4,12,8,2,13,9"
14223,commdev-image-keyboard-response,253,1019959,learnblock1,732.1999998092651,img/planet1_right.png,1,Community 2,NA,TRUE,j,j,NA,NA,NA,1,7,"6,7,10,3,5,15,11,1,14,4,12,8,2,13,9"
14223,commdev-image-keyboard-response,254,1021210,learnblock1,756.5,img/planet14_right.png,14,Community 2,NA,TRUE,j,j,NA,NA,NA,1,7,"6,7,10,3,5,15,11,1,14,4,12,8,2,13,9"
14223,commdev-image-keyboard-response,255,1022461,learnblock1,746.3999998569489,img/planet15_left.png,15,Community 2,NA,FALSE,j,f,NA,NA,NA,1,7,"6,7,10,3,5,15,11,1,14,4,12,8,2,13,9"
14223,commdev-image-keyboard-response,256,1023712,learnblock1,911.7999999523163,img/planet3_right.png,3,Community 1,NA,FALSE,f,j,NA,NA,NA,1,7,"6,7,10,3,5,15,11,1,14,4,12,8,2,13,9"
14223,commdev-image-keyboard-response,257,1024964,learnblock1,1038.6000001430511,img/planet7_left.png,7,Community 1,NA,TRUE,f,f,NA,NA,NA,1,7,"6,7,10,3,5,15,11,1,14,4,12,8,2,13,9"
14223,commdev-image-keyboard-response,258,1026215,learnblock1,1082.2000000476837,img/planet3_left.png,3,Community 1,NA,TRUE,f,f,NA,NA,NA,1,7,"6,7,10,3,5,15,11,1,14,4,12,8,2,13,9"
14223,commdev-image-keyboard-response,259,1027466,learnblock1,887.2999999523163,img/planet15_right.png,15,Community 2,NA,TRUE,j,j,NA,NA,NA,1,7,"6,7,10,3,5,15,11,1,14,4,12,8,2,13,9"
14223,commdev-image-keyboard-response,260,1028718,learnblock1,1066.5,img/planet4_left.png,4,Community 2,NA,TRUE,f,f,NA,NA,NA,1,7,"6,7,10,3,5,15,11,1,14,4,12,8,2,13,9"
14223,commdev-image-keyboard-response,261,1029969,learnblock1,948,img/planet14_right.png,14,Community 2,NA,TRUE,j,j,NA,NA,NA,1,7,"6,7,10,3,5,15,11,1,14,4,12,8,2,13,9"
14223,commdev-image-keyboard-response,262,1031220,learnblock1,872,img/planet4_right.png,4,Community 2,NA,TRUE,j,j,NA,NA,NA,1,7,"6,7,10,3,5,15,11,1,14,4,12,8,2,13,9"
14223,commdev-image-keyboard-response,263,1032472,learnblock1,1042,img/planet11_left.png,11,Community 2,NA,TRUE,f,f,NA,NA,NA,1,7,"6,7,10,3,5,15,11,1,14,4,12,8,2,13,9"
14223,commdev-image-keyboard-response,264,1033723,learnblock1,941.7999999523163,img/planet4_left.png,4,Community 2,NA,TRUE,f,f,NA,NA,NA,1,7,"6,7,10,3,5,15,11,1,14,4,12,8,2,13,9"
14223,commdev-image-keyboard-response,265,1034975,learnblock1,869.0999999046326,img/planet1_right.png,1,Community 2,NA,TRUE,j,j,NA,NA,NA,1,7,"6,7,10,3,5,15,11,1,14,4,12,8,2,13,9"
14223,commdev-image-keyboard-response,266,1036227,learnblock1,853.9000000953674,img/planet14_right.png,14,Community 2,NA,FALSE,f,j,NA,NA,NA,1,7,"6,7,10,3,5,15,11,1,14,4,12,8,2,13,9"
14223,commdev-image-keyboard-response,267,1037480,learnblock1,923.7000000476837,img/planet1_right.png,1,Community 2,NA,TRUE,j,j,NA,NA,NA,1,7,"6,7,10,3,5,15,11,1,14,4,12,8,2,13,9"
14223,commdev-image-keyboard-response,268,1038731,learnblock1,980.7999999523163,img/planet11_left.png,11,Community 2,NA,TRUE,f,f,NA,NA,NA,1,7,"6,7,10,3,5,15,11,1,14,4,12,8,2,13,9"
14223,commdev-image-keyboard-response,269,1039982,learnblock1,1053.8000001907349,img/planet14_right.png,14,Community 2,NA,FALSE,f,j,NA,NA,NA,1,7,"6,7,10,3,5,15,11,1,14,4,12,8,2,13,9"
14223,commdev-image-keyboard-response,270,1041234,learnblock1,891.5999999046326,img/planet15_left.png,15,Community 2,NA,TRUE,f,f,NA,NA,NA,1,7,"6,7,10,3,5,15,11,1,14,4,12,8,2,13,9"
14223,commdev-image-keyboard-response,271,1042490,learnblock1,697.5,img/planet4_right.png,4,Community 2,NA,TRUE,j,j,NA,NA,NA,1,7,"6,7,10,3,5,15,11,1,14,4,12,8,2,13,9"
14223,commdev-image-keyboard-response,272,1043742,learnblock1,740.8999998569489,img/planet15_right.png,15,Community 2,NA,TRUE,j,j,NA,NA,NA,1,7,"6,7,10,3,5,15,11,1,14,4,12,8,2,13,9"
14223,commdev-image-keyboard-response,273,1044993,learnblock1,689.5,img/planet11_left.png,11,Community 2,NA,TRUE,f,f,NA,NA,NA,1,7,"6,7,10,3,5,15,11,1,14,4,12,8,2,13,9"
14223,commdev-image-keyboard-response,274,1046244,learnblock1,829.2999999523163,img/planet15_right.png,15,Community 2,NA,TRUE,j,j,NA,NA,NA,1,7,"6,7,10,3,5,15,11,1,14,4,12,8,2,13,9"
14223,commdev-image-keyboard-response,275,1047495,learnblock1,721.9000000953674,img/planet14_right.png,14,Community 2,NA,FALSE,f,j,NA,NA,NA,1,7,"6,7,10,3,5,15,11,1,14,4,12,8,2,13,9"
14223,commdev-image-keyboard-response,276,1048748,learnblock1,982.7999999523163,img/planet15_left.png,15,Community 2,NA,TRUE,f,f,NA,NA,NA,1,7,"6,7,10,3,5,15,11,1,14,4,12,8,2,13,9"
14223,commdev-image-keyboard-response,277,1049999,learnblock1,1159.2000000476837,img/planet11_right.png,11,Community 2,NA,TRUE,j,j,NA,NA,NA,1,7,"6,7,10,3,5,15,11,1,14,4,12,8,2,13,9"
14223,commdev-image-keyboard-response,278,1051250,learnblock1,973.7999999523163,img/planet15_left.png,15,Community 2,NA,TRUE,f,f,NA,NA,NA,1,7,"6,7,10,3,5,15,11,1,14,4,12,8,2,13,9"
14223,commdev-image-keyboard-response,279,1052501,learnblock1,43.19999980926514,img/planet3_right.png,3,Community 1,NA,TRUE,j,j,NA,NA,NA,1,7,"6,7,10,3,5,15,11,1,14,4,12,8,2,13,9"
14223,commdev-image-keyboard-response,280,1053753,learnblock1,761.7999999523163,img/planet6_right.png,6,Community 1,NA,TRUE,j,j,NA,NA,NA,1,7,"6,7,10,3,5,15,11,1,14,4,12,8,2,13,9"
14223,commdev-image-keyboard-response,281,1055005,learnblock1,831.6000001430511,img/planet7_right.png,7,Community 1,NA,TRUE,j,j,NA,NA,NA,1,7,"6,7,10,3,5,15,11,1,14,4,12,8,2,13,9"
14223,commdev-image-keyboard-response,282,1056256,learnblock1,776.4000000953674,img/planet5_right.png,5,Community 1,NA,TRUE,j,j,NA,NA,NA,1,7,"6,7,10,3,5,15,11,1,14,4,12,8,2,13,9"
14223,commdev-image-keyboard-response,283,1057507,learnblock1,827.6999998092651,img/planet7_right.png,7,Community 1,NA,TRUE,j,j,NA,NA,NA,1,7,"6,7,10,3,5,15,11,1,14,4,12,8,2,13,9"
14223,commdev-image-keyboard-response,284,1058758,learnblock1,771.4000000953674,img/planet10_right.png,10,Community 1,NA,TRUE,j,j,NA,NA,NA,1,7,"6,7,10,3,5,15,11,1,14,4,12,8,2,13,9"
14223,commdev-image-keyboard-response,285,1060010,learnblock1,823.2000000476837,img/planet3_left.png,3,Community 1,NA,TRUE,f,f,NA,NA,NA,1,7,"6,7,10,3,5,15,11,1,14,4,12,8,2,13,9"
14223,commdev-image-keyboard-response,286,1061262,learnblock1,959.5999999046326,img/planet7_right.png,7,Community 1,NA,FALSE,f,j,NA,NA,NA,1,7,"6,7,10,3,5,15,11,1,14,4,12,8,2,13,9"
14223,commdev-image-keyboard-response,287,1062513,learnblock1,1201.9000000953674,img/planet3_right.png,3,Community 1,NA,TRUE,j,j,NA,NA,NA,1,7,"6,7,10,3,5,15,11,1,14,4,12,8,2,13,9"
14223,commdev-image-keyboard-response,288,1063764,learnblock1,null,img/planet15_right.png,15,Community 2,NA,FALSE,null,j,NA,NA,NA,1,7,"6,7,10,3,5,15,11,1,14,4,12,8,2,13,9"
14223,commdev-image-keyboard-response,289,1065020,learnblock1,42.299999952316284,img/planet3_left.png,3,Community 1,NA,TRUE,f,f,NA,NA,NA,1,7,"6,7,10,3,5,15,11,1,14,4,12,8,2,13,9"
14223,commdev-image-keyboard-response,290,1066273,learnblock1,970.7000000476837,img/planet15_left.png,15,Community 2,NA,TRUE,f,f,NA,NA,NA,1,7,"6,7,10,3,5,15,11,1,14,4,12,8,2,13,9"
14223,commdev-image-keyboard-response,291,1067524,learnblock1,993.2000000476837,img/planet3_right.png,3,Community 1,NA,TRUE,j,j,NA,NA,NA,1,7,"6,7,10,3,5,15,11,1,14,4,12,8,2,13,9"
14223,commdev-image-keyboard-response,292,1068776,learnblock1,921,img/planet7_right.png,7,Community 1,NA,FALSE,f,j,NA,NA,NA,1,7,"6,7,10,3,5,15,11,1,14,4,12,8,2,13,9"
14223,commdev-image-keyboard-response,293,1070027,learnblock1,70.09999990463257,img/planet5_right.png,5,Community 1,NA,TRUE,j,j,NA,NA,NA,1,7,"6,7,10,3,5,15,11,1,14,4,12,8,2,13,9"
14223,commdev-image-keyboard-response,294,1071279,learnblock1,802.3999998569489,img/planet6_left.png,6,Community 1,NA,TRUE,f,f,NA,NA,NA,1,7,"6,7,10,3,5,15,11,1,14,4,12,8,2,13,9"
14223,commdev-image-keyboard-response,295,1072531,learnblock1,902,img/planet3_right.png,3,Community 1,NA,TRUE,j,j,NA,NA,NA,1,7,"6,7,10,3,5,15,11,1,14,4,12,8,2,13,9"
14223,commdev-image-keyboard-response,296,1073783,learnblock1,899.2999999523163,img/planet10_right.png,10,Community 1,NA,TRUE,j,j,NA,NA,NA,1,7,"6,7,10,3,5,15,11,1,14,4,12,8,2,13,9"
14223,commdev-image-keyboard-response,297,1075035,learnblock1,980.7000000476837,img/planet5_left.png,5,Community 1,NA,TRUE,f,f,NA,NA,NA,1,7,"6,7,10,3,5,15,11,1,14,4,12,8,2,13,9"
14223,commdev-image-keyboard-response,298,1076287,learnblock1,null,img/planet12_right.png,12,Community 3,NA,FALSE,null,j,NA,NA,NA,1,7,"6,7,10,3,5,15,11,1,14,4,12,8,2,13,9"
14223,commdev-image-keyboard-response,299,1077537,learnblock1,107.29999995231628,img/planet9_left.png,9,Community 3,NA,FALSE,j,f,NA,NA,NA,1,7,"6,7,10,3,5,15,11,1,14,4,12,8,2,13,9"
14223,commdev-image-keyboard-response,300,1078789,learnblock1,796.1999998092651,img/planet8_right.png,8,Community 3,NA,TRUE,j,j,NA,NA,NA,1,7,"6,7,10,3,5,15,11,1,14,4,12,8,2,13,9"
14223,commdev-image-keyboard-response,301,1080040,learnblock1,854.5999999046326,img/planet9_left.png,9,Community 3,NA,FALSE,j,f,NA,NA,NA,1,7,"6,7,10,3,5,15,11,1,14,4,12,8,2,13,9"
14223,commdev-image-keyboard-response,302,1081291,learnblock1,992.4000000953674,img/planet13_left.png,13,Community 3,NA,TRUE,f,f,NA,NA,NA,1,7,"6,7,10,3,5,15,11,1,14,4,12,8,2,13,9"
14223,commdev-image-keyboard-response,303,1082543,learnblock1,910.9000000953674,img/planet9_right.png,9,Community 3,NA,FALSE,f,j,NA,NA,NA,1,7,"6,7,10,3,5,15,11,1,14,4,12,8,2,13,9"
14223,commdev-image-keyboard-response,304,1083794,learnblock1,823.5,img/planet12_right.png,12,Community 3,NA,TRUE,j,j,NA,NA,NA,1,7,"6,7,10,3,5,15,11,1,14,4,12,8,2,13,9"
14223,commdev-image-keyboard-response,305,1085044,learnblock1,788,img/planet5_right.png,5,Community 1,NA,TRUE,j,j,NA,NA,NA,1,7,"6,7,10,3,5,15,11,1,14,4,12,8,2,13,9"
14223,commdev-image-keyboard-response,306,1086296,learnblock1,818.5,img/planet6_right.png,6,Community 1,NA,TRUE,j,j,NA,NA,NA,1,7,"6,7,10,3,5,15,11,1,14,4,12,8,2,13,9"
14223,commdev-image-keyboard-response,307,1087547,learnblock1,null,img/planet3_left.png,3,Community 1,NA,FALSE,null,f,NA,NA,NA,1,7,"6,7,10,3,5,15,11,1,14,4,12,8,2,13,9"
14223,commdev-image-keyboard-response,308,1088798,learnblock1,null,img/planet10_left.png,10,Community 1,NA,FALSE,null,f,NA,NA,NA,1,7,"6,7,10,3,5,15,11,1,14,4,12,8,2,13,9"
14223,commdev-image-keyboard-response,309,1090050,learnblock1,null,img/planet7_right.png,7,Community 1,NA,FALSE,null,j,NA,NA,NA,1,7,"6,7,10,3,5,15,11,1,14,4,12,8,2,13,9"
14223,commdev-image-keyboard-response,310,1091301,learnblock1,802.5,img/planet6_left.png,6,Community 1,NA,TRUE,f,f,NA,NA,NA,1,7,"6,7,10,3,5,15,11,1,14,4,12,8,2,13,9"
14223,commdev-image-keyboard-response,311,1092553,learnblock1,595.2999999523163,img/planet10_left.png,10,Community 1,NA,TRUE,f,f,NA,NA,NA,1,7,"6,7,10,3,5,15,11,1,14,4,12,8,2,13,9"
14223,commdev-image-keyboard-response,312,1093805,learnblock1,449.5,img/planet5_right.png,5,Community 1,NA,FALSE,f,j,NA,NA,NA,1,7,"6,7,10,3,5,15,11,1,14,4,12,8,2,13,9"
14223,commdev-image-keyboard-response,313,1095056,learnblock1,707.8999998569489,img/planet10_left.png,10,Community 1,NA,FALSE,j,f,NA,NA,NA,1,7,"6,7,10,3,5,15,11,1,14,4,12,8,2,13,9"
14223,commdev-image-keyboard-response,314,1096307,learnblock1,753.5999999046326,img/planet3_left.png,3,Community 1,NA,TRUE,f,f,NA,NA,NA,1,7,"6,7,10,3,5,15,11,1,14,4,12,8,2,13,9"
14223,commdev-image-keyboard-response,315,1097558,learnblock1,638.2000000476837,img/planet6_right.png,6,Community 1,NA,FALSE,f,j,NA,NA,NA,1,7,"6,7,10,3,5,15,11,1,14,4,12,8,2,13,9"
14223,commdev-image-keyboard-response,316,1098809,learnblock1,790.0999999046326,img/planet5_right.png,5,Community 1,NA,TRUE,j,j,NA,NA,NA,1,7,"6,7,10,3,5,15,11,1,14,4,12,8,2,13,9"
14223,commdev-image-keyboard-response,317,1100061,learnblock1,860.5,img/planet12_right.png,12,Community 3,NA,TRUE,j,j,NA,NA,NA,1,7,"6,7,10,3,5,15,11,1,14,4,12,8,2,13,9"
14223,commdev-image-keyboard-response,318,1101312,learnblock1,543.7999999523163,img/planet2_left.png,2,Community 3,NA,TRUE,f,f,NA,NA,NA,1,7,"6,7,10,3,5,15,11,1,14,4,12,8,2,13,9"
14223,commdev-image-keyboard-response,319,1102564,learnblock1,608.7000000476837,img/planet13_left.png,13,Community 3,NA,TRUE,f,f,NA,NA,NA,1,7,"6,7,10,3,5,15,11,1,14,4,12,8,2,13,9"
14223,commdev-image-keyboard-response,320,1103815,learnblock1,706.0999999046326,img/planet8_right.png,8,Community 3,NA,TRUE,j,j,NA,NA,NA,1,7,"6,7,10,3,5,15,11,1,14,4,12,8,2,13,9"
14223,commdev-image-keyboard-response,321,1105067,learnblock1,811.5999999046326,img/planet1_right.png,1,Community 2,NA,TRUE,j,j,NA,NA,NA,1,7,"6,7,10,3,5,15,11,1,14,4,12,8,2,13,9"
14223,commdev-image-keyboard-response,322,1106318,learnblock1,714.5,img/planet8_right.png,8,Community 3,NA,TRUE,j,j,NA,NA,NA,1,7,"6,7,10,3,5,15,11,1,14,4,12,8,2,13,9"
14223,commdev-image-keyboard-response,323,1107569,learnblock1,670.7999999523163,img/planet9_left.png,9,Community 3,NA,TRUE,f,f,NA,NA,NA,1,7,"6,7,10,3,5,15,11,1,14,4,12,8,2,13,9"
14223,commdev-image-keyboard-response,324,1108822,learnblock1,811.6999998092651,img/planet12_right.png,12,Community 3,NA,TRUE,j,j,NA,NA,NA,1,7,"6,7,10,3,5,15,11,1,14,4,12,8,2,13,9"
14223,commdev-image-keyboard-response,325,1110073,learnblock1,641.4000000953674,img/planet2_left.png,2,Community 3,NA,TRUE,f,f,NA,NA,NA,1,7,"6,7,10,3,5,15,11,1,14,4,12,8,2,13,9"
14223,commdev-image-keyboard-response,326,1111324,learnblock1,805,img/planet8_left.png,8,Community 3,NA,TRUE,f,f,NA,NA,NA,1,7,"6,7,10,3,5,15,11,1,14,4,12,8,2,13,9"
14223,commdev-image-keyboard-response,327,1112575,learnblock1,869.5999999046326,img/planet2_right.png,2,Community 3,NA,TRUE,j,j,NA,NA,NA,1,7,"6,7,10,3,5,15,11,1,14,4,12,8,2,13,9"
14223,commdev-image-keyboard-response,328,1113826,learnblock1,737.4000000953674,img/planet9_left.png,9,Community 3,NA,TRUE,f,f,NA,NA,NA,1,7,"6,7,10,3,5,15,11,1,14,4,12,8,2,13,9"
14223,commdev-image-keyboard-response,329,1115078,learnblock1,686.7000000476837,img/planet8_left.png,8,Community 3,NA,FALSE,j,f,NA,NA,NA,1,7,"6,7,10,3,5,15,11,1,14,4,12,8,2,13,9"
14223,commdev-image-keyboard-response,330,1116329,learnblock1,760.3999998569489,img/planet2_right.png,2,Community 3,NA,FALSE,f,j,NA,NA,NA,1,7,"6,7,10,3,5,15,11,1,14,4,12,8,2,13,9"
14223,commdev-image-keyboard-response,331,1117581,learnblock1,525.5999999046326,img/planet12_left.png,12,Community 3,NA,TRUE,f,f,NA,NA,NA,1,7,"6,7,10,3,5,15,11,1,14,4,12,8,2,13,9"
14223,commdev-image-keyboard-response,332,1118833,learnblock1,463.90000009536743,img/planet9_right.png,9,Community 3,NA,FALSE,f,j,NA,NA,NA,1,7,"6,7,10,3,5,15,11,1,14,4,12,8,2,13,9"
14223,commdev-image-keyboard-response,333,1120085,learnblock1,715.2000000476837,img/planet13_right.png,13,Community 3,NA,TRUE,j,j,NA,NA,NA,1,7,"6,7,10,3,5,15,11,1,14,4,12,8,2,13,9"
14223,commdev-image-keyboard-response,334,1121336,learnblock1,806.0999999046326,img/planet2_right.png,2,Community 3,NA,FALSE,f,j,NA,NA,NA,1,7,"6,7,10,3,5,15,11,1,14,4,12,8,2,13,9"
14223,commdev-image-keyboard-response,335,1122588,learnblock1,922.9000000953674,img/planet8_right.png,8,Community 3,NA,TRUE,j,j,NA,NA,NA,1,7,"6,7,10,3,5,15,11,1,14,4,12,8,2,13,9"
14223,commdev-image-keyboard-response,336,1123839,learnblock1,1143.4000000953674,img/planet9_left.png,9,Community 3,NA,TRUE,f,f,NA,NA,NA,1,7,"6,7,10,3,5,15,11,1,14,4,12,8,2,13,9"
14223,commdev-image-keyboard-response,337,1125090,learnblock1,939.5999999046326,img/planet13_right.png,13,Community 3,NA,TRUE,j,j,NA,NA,NA,1,7,"6,7,10,3,5,15,11,1,14,4,12,8,2,13,9"
14223,commdev-image-keyboard-response,338,1126342,learnblock1,1050.5,img/planet8_left.png,8,Community 3,NA,TRUE,f,f,NA,NA,NA,1,7,"6,7,10,3,5,15,11,1,14,4,12,8,2,13,9"
14223,commdev-image-keyboard-response,339,1127593,learnblock1,1110.4000000953674,img/planet13_left.png,13,Community 3,NA,TRUE,f,f,NA,NA,NA,1,7,"6,7,10,3,5,15,11,1,14,4,12,8,2,13,9"
14223,commdev-image-keyboard-response,340,1128857,learnblock1,988.7999999523163,img/planet2_right.png,2,Community 3,NA,TRUE,j,j,NA,NA,NA,1,7,"6,7,10,3,5,15,11,1,14,4,12,8,2,13,9"
14223,commdev-image-keyboard-response,341,1130108,learnblock1,1245,img/planet8_right.png,8,Community 3,NA,TRUE,j,j,NA,NA,NA,1,7,"6,7,10,3,5,15,11,1,14,4,12,8,2,13,9"
14223,commdev-image-keyboard-response,342,1131367,learnblock1,850.2999999523163,img/planet9_right.png,9,Community 3,NA,TRUE,j,j,NA,NA,NA,1,7,"6,7,10,3,5,15,11,1,14,4,12,8,2,13,9"
14223,commdev-image-keyboard-response,343,1132619,learnblock1,797.5,img/planet12_left.png,12,Community 3,NA,TRUE,f,f,NA,NA,NA,1,7,"6,7,10,3,5,15,11,1,14,4,12,8,2,13,9"
14223,commdev-image-keyboard-response,344,1133870,learnblock1,892.7000000476837,img/planet9_left.png,9,Community 3,NA,TRUE,f,f,NA,NA,NA,1,7,"6,7,10,3,5,15,11,1,14,4,12,8,2,13,9"
14223,commdev-image-keyboard-response,345,1135121,learnblock1,846.0999999046326,img/planet12_left.png,12,Community 3,NA,TRUE,f,f,NA,NA,NA,1,7,"6,7,10,3,5,15,11,1,14,4,12,8,2,13,9"
14223,commdev-image-keyboard-response,346,1136373,learnblock1,835.7999999523163,img/planet9_left.png,9,Community 3,NA,TRUE,f,f,NA,NA,NA,1,7,"6,7,10,3,5,15,11,1,14,4,12,8,2,13,9"
14223,commdev-image-keyboard-response,347,1137625,learnblock1,887.0999999046326,img/planet2_left.png,2,Community 3,NA,TRUE,f,f,NA,NA,NA,1,7,"6,7,10,3,5,15,11,1,14,4,12,8,2,13,9"
14223,commdev-image-keyboard-response,348,1138886,learnblock1,898.3000001907349,img/planet9_right.png,9,Community 3,NA,TRUE,j,j,NA,NA,NA,1,7,"6,7,10,3,5,15,11,1,14,4,12,8,2,13,9"
14223,commdev-image-keyboard-response,349,1140137,learnblock1,828.7999999523163,img/planet8_left.png,8,Community 3,NA,TRUE,f,f,NA,NA,NA,1,7,"6,7,10,3,5,15,11,1,14,4,12,8,2,13,9"
14223,commdev-image-keyboard-response,350,1141389,learnblock1,703.7000000476837,img/planet9_left.png,9,Community 3,NA,TRUE,f,f,NA,NA,NA,1,7,"6,7,10,3,5,15,11,1,14,4,12,8,2,13,9"
14223,commdev-image-keyboard-response,351,1142640,learnblock1,732.8999998569489,img/planet13_right.png,13,Community 3,NA,TRUE,j,j,NA,NA,NA,1,7,"6,7,10,3,5,15,11,1,14,4,12,8,2,13,9"
14223,commdev-image-keyboard-response,352,1143891,learnblock1,726.3000001907349,img/planet8_left.png,8,Community 3,NA,TRUE,f,f,NA,NA,NA,1,7,"6,7,10,3,5,15,11,1,14,4,12,8,2,13,9"
14223,commdev-image-keyboard-response,353,1145142,learnblock1,666.6000001430511,img/planet9_right.png,9,Community 3,NA,TRUE,j,j,NA,NA,NA,1,7,"6,7,10,3,5,15,11,1,14,4,12,8,2,13,9"
14223,commdev-image-keyboard-response,354,1146394,learnblock1,710,img/planet12_right.png,12,Community 3,NA,FALSE,f,j,NA,NA,NA,1,7,"6,7,10,3,5,15,11,1,14,4,12,8,2,13,9"
14223,commdev-image-keyboard-response,355,1147645,learnblock1,704.7000000476837,img/planet5_right.png,5,Community 1,NA,TRUE,j,j,NA,NA,NA,1,7,"6,7,10,3,5,15,11,1,14,4,12,8,2,13,9"
14223,commdev-image-keyboard-response,356,1148897,learnblock1,721.7999999523163,img/planet6_right.png,6,Community 1,NA,TRUE,j,j,NA,NA,NA,1,7,"6,7,10,3,5,15,11,1,14,4,12,8,2,13,9"
14223,commdev-image-keyboard-response,357,1150148,learnblock1,705.2000000476837,img/planet5_left.png,5,Community 1,NA,TRUE,f,f,NA,NA,NA,1,7,"6,7,10,3,5,15,11,1,14,4,12,8,2,13,9"
14223,commdev-image-keyboard-response,358,1151400,learnblock1,717.2999999523163,img/planet6_left.png,6,Community 1,NA,TRUE,f,f,NA,NA,NA,1,7,"6,7,10,3,5,15,11,1,14,4,12,8,2,13,9"
14223,commdev-image-keyboard-response,359,1152651,learnblock1,540.0999999046326,img/planet10_right.png,10,Community 1,NA,TRUE,j,j,NA,NA,NA,1,7,"6,7,10,3,5,15,11,1,14,4,12,8,2,13,9"
14223,commdev-image-keyboard-response,360,1153903,learnblock1,496.2999999523163,img/planet6_left.png,6,Community 1,NA,TRUE,f,f,NA,NA,NA,1,7,"6,7,10,3,5,15,11,1,14,4,12,8,2,13,9"
14223,commdev-image-keyboard-response,361,1155154,learnblock1,467.5,img/planet10_right.png,10,Community 1,NA,TRUE,j,j,NA,NA,NA,1,7,"6,7,10,3,5,15,11,1,14,4,12,8,2,13,9"
14223,commdev-image-keyboard-response,362,1156407,learnblock1,444.89999985694885,img/planet6_right.png,6,Community 1,NA,FALSE,f,j,NA,NA,NA,1,7,"6,7,10,3,5,15,11,1,14,4,12,8,2,13,9"
14223,commdev-image-keyboard-response,363,1157658,learnblock1,671.7000000476837,img/planet10_right.png,10,Community 1,NA,TRUE,j,j,NA,NA,NA,1,7,"6,7,10,3,5,15,11,1,14,4,12,8,2,13,9"
14223,commdev-image-keyboard-response,364,1158909,learnblock1,909,img/planet5_right.png,5,Community 1,NA,TRUE,j,j,NA,NA,NA,1,7,"6,7,10,3,5,15,11,1,14,4,12,8,2,13,9"
14223,commdev-image-keyboard-response,365,1160160,learnblock1,665.4000000953674,img/planet10_right.png,10,Community 1,NA,TRUE,j,j,NA,NA,NA,1,7,"6,7,10,3,5,15,11,1,14,4,12,8,2,13,9"
14223,commdev-image-keyboard-response,366,1161411,learnblock1,580.0999999046326,img/planet5_right.png,5,Community 1,NA,TRUE,j,j,NA,NA,NA,1,7,"6,7,10,3,5,15,11,1,14,4,12,8,2,13,9"
14223,commdev-image-keyboard-response,367,1162662,learnblock1,506.7999999523163,img/planet10_left.png,10,Community 1,NA,FALSE,j,f,NA,NA,NA,1,7,"6,7,10,3,5,15,11,1,14,4,12,8,2,13,9"
14223,commdev-image-keyboard-response,368,1163914,learnblock1,670.1000001430511,img/planet5_right.png,5,Community 1,NA,TRUE,j,j,NA,NA,NA,1,7,"6,7,10,3,5,15,11,1,14,4,12,8,2,13,9"
14223,commdev-image-keyboard-response,369,1165165,learnblock1,664.7000000476837,img/planet7_right.png,7,Community 1,NA,TRUE,j,j,NA,NA,NA,1,7,"6,7,10,3,5,15,11,1,14,4,12,8,2,13,9"
14223,commdev-image-keyboard-response,370,1166417,learnblock1,561.2000000476837,img/planet10_right.png,10,Community 1,NA,TRUE,j,j,NA,NA,NA,1,7,"6,7,10,3,5,15,11,1,14,4,12,8,2,13,9"
14223,commdev-image-keyboard-response,371,1167668,learnblock1,793.5,img/planet7_right.png,7,Community 1,NA,TRUE,j,j,NA,NA,NA,1,7,"6,7,10,3,5,15,11,1,14,4,12,8,2,13,9"
14223,commdev-image-keyboard-response,372,1168919,learnblock1,1203.7000000476837,img/planet3_right.png,3,Community 1,NA,FALSE,f,j,NA,NA,NA,1,7,"6,7,10,3,5,15,11,1,14,4,12,8,2,13,9"
14223,commdev-image-keyboard-response,373,1170170,learnblock1,177.10000014305115,img/planet10_right.png,10,Community 1,NA,TRUE,j,j,NA,NA,NA,1,7,"6,7,10,3,5,15,11,1,14,4,12,8,2,13,9"
14223,commdev-image-keyboard-response,374,1171421,learnblock1,null,img/planet5_right.png,5,Community 1,NA,FALSE,null,j,NA,NA,NA,1,7,"6,7,10,3,5,15,11,1,14,4,12,8,2,13,9"
14223,commdev-image-keyboard-response,375,1172672,learnblock1,46.200000047683716,img/planet6_left.png,6,Community 1,NA,FALSE,j,f,NA,NA,NA,1,7,"6,7,10,3,5,15,11,1,14,4,12,8,2,13,9"
14223,commdev-image-keyboard-response,376,1173923,learnblock1,983.2999999523163,img/planet7_right.png,7,Community 1,NA,TRUE,j,j,NA,NA,NA,1,7,"6,7,10,3,5,15,11,1,14,4,12,8,2,13,9"
14223,commdev-image-keyboard-response,377,1175175,learnblock1,null,img/planet3_right.png,3,Community 1,NA,FALSE,null,j,NA,NA,NA,1,7,"6,7,10,3,5,15,11,1,14,4,12,8,2,13,9"
14223,commdev-image-keyboard-response,378,1176426,learnblock1,613.5,img/planet10_right.png,10,Community 1,NA,TRUE,j,j,NA,NA,NA,1,7,"6,7,10,3,5,15,11,1,14,4,12,8,2,13,9"
14223,commdev-image-keyboard-response,379,1177678,learnblock1,591.7999999523163,img/planet7_left.png,7,Community 1,NA,FALSE,j,f,NA,NA,NA,1,7,"6,7,10,3,5,15,11,1,14,4,12,8,2,13,9"
14223,commdev-image-keyboard-response,380,1178930,learnblock1,811.2999999523163,img/planet5_right.png,5,Community 1,NA,TRUE,j,j,NA,NA,NA,1,7,"6,7,10,3,5,15,11,1,14,4,12,8,2,13,9"
14223,commdev-image-keyboard-response,381,1180182,learnblock1,836.2000000476837,img/planet10_right.png,10,Community 1,NA,TRUE,j,j,NA,NA,NA,1,7,"6,7,10,3,5,15,11,1,14,4,12,8,2,13,9"
14223,commdev-image-keyboard-response,382,1181433,learnblock1,788.7999999523163,img/planet7_left.png,7,Community 1,NA,TRUE,f,f,NA,NA,NA,1,7,"6,7,10,3,5,15,11,1,14,4,12,8,2,13,9"
14223,commdev-image-keyboard-response,383,1182685,learnblock1,746.5,img/planet5_right.png,5,Community 1,NA,TRUE,j,j,NA,NA,NA,1,7,"6,7,10,3,5,15,11,1,14,4,12,8,2,13,9"
14223,commdev-image-keyboard-response,384,1183936,learnblock1,724.4000000953674,img/planet12_right.png,12,Community 3,NA,FALSE,f,j,NA,NA,NA,1,7,"6,7,10,3,5,15,11,1,14,4,12,8,2,13,9"
14223,commdev-image-keyboard-response,385,1185188,learnblock1,690.1000001430511,img/planet5_right.png,5,Community 1,NA,TRUE,j,j,NA,NA,NA,1,7,"6,7,10,3,5,15,11,1,14,4,12,8,2,13,9"
14223,commdev-image-keyboard-response,386,1186440,learnblock1,743.8000001907349,img/planet12_left.png,12,Community 3,NA,FALSE,j,f,NA,NA,NA,1,7,"6,7,10,3,5,15,11,1,14,4,12,8,2,13,9"
14223,commdev-image-keyboard-response,387,1187690,learnblock1,780.8999998569489,img/planet2_left.png,2,Community 3,NA,TRUE,f,f,NA,NA,NA,1,7,"6,7,10,3,5,15,11,1,14,4,12,8,2,13,9"
14223,commdev-image-keyboard-response,388,1188942,learnblock1,719.8000001907349,img/planet9_left.png,9,Community 3,NA,TRUE,f,f,NA,NA,NA,1,7,"6,7,10,3,5,15,11,1,14,4,12,8,2,13,9"
14223,commdev-image-keyboard-response,389,1190195,learnblock1,714.5999999046326,img/planet12_left.png,12,Community 3,NA,TRUE,f,f,NA,NA,NA,1,7,"6,7,10,3,5,15,11,1,14,4,12,8,2,13,9"
14223,commdev-image-keyboard-response,390,1191446,learnblock1,776.9000000953674,img/planet13_right.png,13,Community 3,NA,FALSE,f,j,NA,NA,NA,1,7,"6,7,10,3,5,15,11,1,14,4,12,8,2,13,9"
14223,commdev-image-keyboard-response,391,1192698,learnblock1,null,img/planet12_right.png,12,Community 3,NA,FALSE,null,j,NA,NA,NA,1,7,"6,7,10,3,5,15,11,1,14,4,12,8,2,13,9"
14223,commdev-image-keyboard-response,392,1193950,learnblock1,177.70000004768372,img/planet5_right.png,5,Community 1,NA,TRUE,j,j,NA,NA,NA,1,7,"6,7,10,3,5,15,11,1,14,4,12,8,2,13,9"
14223,commdev-image-keyboard-response,393,1195202,learnblock1,null,img/planet7_right.png,7,Community 1,NA,FALSE,null,j,NA,NA,NA,1,7,"6,7,10,3,5,15,11,1,14,4,12,8,2,13,9"
14223,commdev-image-keyboard-response,394,1196453,learnblock1,698.9000000953674,img/planet5_right.png,5,Community 1,NA,TRUE,j,j,NA,NA,NA,1,7,"6,7,10,3,5,15,11,1,14,4,12,8,2,13,9"
14223,commdev-image-keyboard-response,395,1197716,learnblock1,516.4000000953674,img/planet7_right.png,7,Community 1,NA,TRUE,j,j,NA,NA,NA,1,7,"6,7,10,3,5,15,11,1,14,4,12,8,2,13,9"
14223,commdev-image-keyboard-response,396,1198981,learnblock1,618.4000000953674,img/planet10_left.png,10,Community 1,NA,TRUE,f,f,NA,NA,NA,1,7,"6,7,10,3,5,15,11,1,14,4,12,8,2,13,9"
14223,commdev-image-keyboard-response,397,1200233,learnblock1,678.4000000953674,img/planet5_left.png,5,Community 1,NA,TRUE,f,f,NA,NA,NA,1,7,"6,7,10,3,5,15,11,1,14,4,12,8,2,13,9"
14223,commdev-image-keyboard-response,398,1201484,learnblock1,676.4000000953674,img/planet7_left.png,7,Community 1,NA,TRUE,f,f,NA,NA,NA,1,7,"6,7,10,3,5,15,11,1,14,4,12,8,2,13,9"
14223,commdev-image-keyboard-response,399,1202735,learnblock1,802.7000000476837,img/planet5_left.png,5,Community 1,NA,TRUE,f,f,NA,NA,NA,1,7,"6,7,10,3,5,15,11,1,14,4,12,8,2,13,9"
14223,commdev-image-keyboard-response,400,1203987,learnblock1,821.2000000476837,img/planet10_left.png,10,Community 1,NA,TRUE,f,f,NA,NA,NA,1,7,"6,7,10,3,5,15,11,1,14,4,12,8,2,13,9"
14223,commdev-image-keyboard-response,401,1205238,learnblock1,992.7999999523163,img/planet3_right.png,3,Community 1,NA,TRUE,j,j,NA,NA,NA,1,7,"6,7,10,3,5,15,11,1,14,4,12,8,2,13,9"
14223,commdev-image-keyboard-response,402,1206489,learnblock1,1051.9000000953674,img/planet15_left.png,15,Community 2,NA,FALSE,j,f,NA,NA,NA,1,7,"6,7,10,3,5,15,11,1,14,4,12,8,2,13,9"
14223,commdev-image-keyboard-response,403,1207739,learnblock1,25.09999990463257,img/planet14_right.png,14,Community 2,NA,FALSE,f,j,NA,NA,NA,1,7,"6,7,10,3,5,15,11,1,14,4,12,8,2,13,9"
14223,commdev-image-keyboard-response,404,1208991,learnblock1,null,img/planet4_right.png,4,Community 2,NA,FALSE,null,j,NA,NA,NA,1,7,"6,7,10,3,5,15,11,1,14,4,12,8,2,13,9"
14223,commdev-image-keyboard-response,405,1210242,learnblock1,null,img/planet11_right.png,11,Community 2,NA,FALSE,null,j,NA,NA,NA,1,7,"6,7,10,3,5,15,11,1,14,4,12,8,2,13,9"
14223,commdev-image-keyboard-response,406,1211493,learnblock1,1099.8999998569489,img/planet15_left.png,15,Community 2,NA,FALSE,j,f,NA,NA,NA,1,7,"6,7,10,3,5,15,11,1,14,4,12,8,2,13,9"
14223,commdev-image-keyboard-response,407,1212744,learnblock1,807.7999999523163,img/planet3_left.png,3,Community 1,NA,TRUE,f,f,NA,NA,NA,1,7,"6,7,10,3,5,15,11,1,14,4,12,8,2,13,9"
14223,commdev-image-keyboard-response,408,1213996,learnblock1,713.1999998092651,img/planet10_right.png,10,Community 1,NA,TRUE,j,j,NA,NA,NA,1,7,"6,7,10,3,5,15,11,1,14,4,12,8,2,13,9"
14223,commdev-image-keyboard-response,409,1215248,learnblock1,588.7999999523163,img/planet5_left.png,5,Community 1,NA,TRUE,f,f,NA,NA,NA,1,7,"6,7,10,3,5,15,11,1,14,4,12,8,2,13,9"
14223,commdev-image-keyboard-response,410,1216500,learnblock1,591.5,img/planet6_right.png,6,Community 1,NA,TRUE,j,j,NA,NA,NA,1,7,"6,7,10,3,5,15,11,1,14,4,12,8,2,13,9"
14223,commdev-image-keyboard-response,411,1217751,learnblock1,732.0999999046326,img/planet10_left.png,10,Community 1,NA,TRUE,f,f,NA,NA,NA,1,7,"6,7,10,3,5,15,11,1,14,4,12,8,2,13,9"
14223,commdev-image-keyboard-response,412,1219003,learnblock1,1199.0999999046326,img/planet3_right.png,3,Community 1,NA,TRUE,j,j,NA,NA,NA,1,7,"6,7,10,3,5,15,11,1,14,4,12,8,2,13,9"
14223,commdev-image-keyboard-response,413,1220254,learnblock1,664.7000000476837,img/planet10_left.png,10,Community 1,NA,FALSE,j,f,NA,NA,NA,1,7,"6,7,10,3,5,15,11,1,14,4,12,8,2,13,9"
14223,commdev-image-keyboard-response,414,1221505,learnblock1,971.6000001430511,img/planet3_left.png,3,Community 1,NA,FALSE,j,f,NA,NA,NA,1,7,"6,7,10,3,5,15,11,1,14,4,12,8,2,13,9"
14223,commdev-image-keyboard-response,415,1222756,learnblock1,847.5,img/planet10_right.png,10,Community 1,NA,TRUE,j,j,NA,NA,NA,1,7,"6,7,10,3,5,15,11,1,14,4,12,8,2,13,9"
14223,commdev-image-keyboard-response,416,1224008,learnblock1,823.2999999523163,img/planet5_right.png,5,Community 1,NA,TRUE,j,j,NA,NA,NA,1,7,"6,7,10,3,5,15,11,1,14,4,12,8,2,13,9"
14223,commdev-image-keyboard-response,417,1225258,learnblock1,722,img/planet7_left.png,7,Community 1,NA,TRUE,f,f,NA,NA,NA,1,7,"6,7,10,3,5,15,11,1,14,4,12,8,2,13,9"
14223,commdev-image-keyboard-response,418,1226510,learnblock1,672.5,img/planet5_right.png,5,Community 1,NA,TRUE,j,j,NA,NA,NA,1,7,"6,7,10,3,5,15,11,1,14,4,12,8,2,13,9"
14223,commdev-image-keyboard-response,419,1227762,learnblock1,857.2999999523163,img/planet7_right.png,7,Community 1,NA,TRUE,j,j,NA,NA,NA,1,7,"6,7,10,3,5,15,11,1,14,4,12,8,2,13,9"
14223,commdev-image-keyboard-response,420,1229013,learnblock1,790,img/planet6_left.png,6,Community 1,NA,TRUE,f,f,NA,NA,NA,1,7,"6,7,10,3,5,15,11,1,14,4,12,8,2,13,9"
14223,commdev-image-keyboard-response,421,1230263,learnblock1,971.4000000953674,img/planet5_left.png,5,Community 1,NA,FALSE,j,f,NA,NA,NA,1,7,"6,7,10,3,5,15,11,1,14,4,12,8,2,13,9"
14223,commdev-image-keyboard-response,422,1231515,learnblock1,826.0999999046326,img/planet10_right.png,10,Community 1,NA,TRUE,j,j,NA,NA,NA,1,7,"6,7,10,3,5,15,11,1,14,4,12,8,2,13,9"
14223,commdev-image-keyboard-response,423,1232766,learnblock1,790.0999999046326,img/planet5_left.png,5,Community 1,NA,TRUE,f,f,NA,NA,NA,1,7,"6,7,10,3,5,15,11,1,14,4,12,8,2,13,9"
14223,commdev-image-keyboard-response,424,1234018,learnblock1,697.2999999523163,img/planet10_left.png,10,Community 1,NA,TRUE,f,f,NA,NA,NA,1,7,"6,7,10,3,5,15,11,1,14,4,12,8,2,13,9"
14223,commdev-image-keyboard-response,425,1235269,learnblock1,609.7999999523163,img/planet6_left.png,6,Community 1,NA,TRUE,f,f,NA,NA,NA,1,7,"6,7,10,3,5,15,11,1,14,4,12,8,2,13,9"
14223,commdev-image-keyboard-response,426,1236520,learnblock1,866.3999998569489,img/planet3_left.png,3,Community 1,NA,FALSE,j,f,NA,NA,NA,1,7,"6,7,10,3,5,15,11,1,14,4,12,8,2,13,9"
14223,commdev-image-keyboard-response,427,1237771,learnblock1,874.3999998569489,img/planet6_right.png,6,Community 1,NA,TRUE,j,j,NA,NA,NA,1,7,"6,7,10,3,5,15,11,1,14,4,12,8,2,13,9"
14223,commdev-image-keyboard-response,428,1239023,learnblock1,936.7000000476837,img/planet5_left.png,5,Community 1,NA,TRUE,f,f,NA,NA,NA,1,7,"6,7,10,3,5,15,11,1,14,4,12,8,2,13,9"
14223,commdev-image-keyboard-response,429,1240274,learnblock1,685.5,img/planet10_right.png,10,Community 1,NA,TRUE,j,j,NA,NA,NA,1,7,"6,7,10,3,5,15,11,1,14,4,12,8,2,13,9"
14223,commdev-image-keyboard-response,430,1241525,learnblock1,699.6999998092651,img/planet7_right.png,7,Community 1,NA,TRUE,j,j,NA,NA,NA,1,7,"6,7,10,3,5,15,11,1,14,4,12,8,2,13,9"
14223,commdev-image-keyboard-response,431,1242777,learnblock1,679.0999999046326,img/planet5_right.png,5,Community 1,NA,TRUE,j,j,NA,NA,NA,1,7,"6,7,10,3,5,15,11,1,14,4,12,8,2,13,9"
14223,commdev-image-keyboard-response,432,1244028,learnblock1,682.7000000476837,img/planet10_left.png,10,Community 1,NA,FALSE,j,f,NA,NA,NA,1,7,"6,7,10,3,5,15,11,1,14,4,12,8,2,13,9"
14223,commdev-image-keyboard-response,433,1245279,learnblock1,null,img/planet7_right.png,7,Community 1,NA,FALSE,null,j,NA,NA,NA,1,7,"6,7,10,3,5,15,11,1,14,4,12,8,2,13,9"
14223,commdev-image-keyboard-response,437,1292078,learnblock2,697.9000000953674,img/planet13_left.png,13,Community 3,NA,TRUE,f,f,NA,NA,NA,1,7,"6,7,10,3,5,15,11,1,14,4,12,8,2,13,9"
14223,commdev-image-keyboard-response,438,1293330,learnblock2,515.5,img/planet8_right.png,8,Community 3,NA,FALSE,f,j,NA,NA,NA,1,7,"6,7,10,3,5,15,11,1,14,4,12,8,2,13,9"
14223,commdev-image-keyboard-response,439,1294582,learnblock2,563.1999998092651,img/planet2_right.png,2,Community 3,NA,TRUE,j,j,NA,NA,NA,1,7,"6,7,10,3,5,15,11,1,14,4,12,8,2,13,9"
14223,commdev-image-keyboard-response,440,1295833,learnblock2,526.3999998569489,img/planet12_left.png,12,Community 3,NA,FALSE,j,f,NA,NA,NA,1,7,"6,7,10,3,5,15,11,1,14,4,12,8,2,13,9"
14223,commdev-image-keyboard-response,441,1297084,learnblock2,831.3999998569489,img/planet13_right.png,13,Community 3,NA,TRUE,j,j,NA,NA,NA,1,7,"6,7,10,3,5,15,11,1,14,4,12,8,2,13,9"
14223,commdev-image-keyboard-response,442,1298335,learnblock2,633.5,img/planet12_right.png,12,Community 3,NA,TRUE,j,j,NA,NA,NA,1,7,"6,7,10,3,5,15,11,1,14,4,12,8,2,13,9"
14223,commdev-image-keyboard-response,443,1299587,learnblock2,694.5999999046326,img/planet13_right.png,13,Community 3,NA,TRUE,j,j,NA,NA,NA,1,7,"6,7,10,3,5,15,11,1,14,4,12,8,2,13,9"
14223,commdev-image-keyboard-response,444,1300838,learnblock2,571.5,img/planet2_left.png,2,Community 3,NA,TRUE,f,f,NA,NA,NA,1,7,"6,7,10,3,5,15,11,1,14,4,12,8,2,13,9"
14223,commdev-image-keyboard-response,445,1302089,learnblock2,586.8999998569489,img/planet13_right.png,13,Community 3,NA,FALSE,f,j,NA,NA,NA,1,7,"6,7,10,3,5,15,11,1,14,4,12,8,2,13,9"
14223,commdev-image-keyboard-response,446,1303340,learnblock2,631.1000001430511,img/planet9_left.png,9,Community 3,NA,FALSE,j,f,NA,NA,NA,1,7,"6,7,10,3,5,15,11,1,14,4,12,8,2,13,9"
14223,commdev-image-keyboard-response,447,1304592,learnblock2,734.6000001430511,img/planet13_left.png,13,Community 3,NA,TRUE,f,f,NA,NA,NA,1,7,"6,7,10,3,5,15,11,1,14,4,12,8,2,13,9"
14223,commdev-image-keyboard-response,448,1305843,learnblock2,652.0999999046326,img/planet9_left.png,9,Community 3,NA,TRUE,f,f,NA,NA,NA,1,7,"6,7,10,3,5,15,11,1,14,4,12,8,2,13,9"
14223,commdev-image-keyboard-response,449,1307095,learnblock2,633.4000000953674,img/planet12_right.png,12,Community 3,NA,TRUE,j,j,NA,NA,NA,1,7,"6,7,10,3,5,15,11,1,14,4,12,8,2,13,9"
14223,commdev-image-keyboard-response,450,1308347,learnblock2,668.5,img/planet9_right.png,9,Community 3,NA,TRUE,j,j,NA,NA,NA,1,7,"6,7,10,3,5,15,11,1,14,4,12,8,2,13,9"
14223,commdev-image-keyboard-response,451,1309599,learnblock2,643.7000000476837,img/planet8_right.png,8,Community 3,NA,TRUE,j,j,NA,NA,NA,1,7,"6,7,10,3,5,15,11,1,14,4,12,8,2,13,9"
14223,commdev-image-keyboard-response,452,1310851,learnblock2,559.0999999046326,img/planet13_right.png,13,Community 3,NA,TRUE,j,j,NA,NA,NA,1,7,"6,7,10,3,5,15,11,1,14,4,12,8,2,13,9"
14223,commdev-image-keyboard-response,453,1312102,learnblock2,650.7999999523163,img/planet2_right.png,2,Community 3,NA,TRUE,j,j,NA,NA,NA,1,7,"6,7,10,3,5,15,11,1,14,4,12,8,2,13,9"
14223,commdev-image-keyboard-response,454,1313354,learnblock2,685.3000001907349,img/planet8_right.png,8,Community 3,NA,TRUE,j,j,NA,NA,NA,1,7,"6,7,10,3,5,15,11,1,14,4,12,8,2,13,9"
14223,commdev-image-keyboard-response,455,1314607,learnblock2,630.5,img/planet2_right.png,2,Community 3,NA,TRUE,j,j,NA,NA,NA,1,7,"6,7,10,3,5,15,11,1,14,4,12,8,2,13,9"
14223,commdev-image-keyboard-response,456,1315858,learnblock2,731.7999999523163,img/planet8_right.png,8,Community 3,NA,TRUE,j,j,NA,NA,NA,1,7,"6,7,10,3,5,15,11,1,14,4,12,8,2,13,9"
14223,commdev-image-keyboard-response,457,1317109,learnblock2,685.7999999523163,img/planet9_right.png,9,Community 3,NA,TRUE,j,j,NA,NA,NA,1,7,"6,7,10,3,5,15,11,1,14,4,12,8,2,13,9"
14223,commdev-image-keyboard-response,458,1318361,learnblock2,611.7000000476837,img/planet12_right.png,12,Community 3,NA,TRUE,j,j,NA,NA,NA,1,7,"6,7,10,3,5,15,11,1,14,4,12,8,2,13,9"
14223,commdev-image-keyboard-response,459,1319614,learnblock2,793,img/planet13_left.png,13,Community 3,NA,TRUE,f,f,NA,NA,NA,1,7,"6,7,10,3,5,15,11,1,14,4,12,8,2,13,9"
14223,commdev-image-keyboard-response,460,1320865,learnblock2,725.7000000476837,img/planet9_left.png,9,Community 3,NA,TRUE,f,f,NA,NA,NA,1,7,"6,7,10,3,5,15,11,1,14,4,12,8,2,13,9"
14223,commdev-image-keyboard-response,461,1322117,learnblock2,799.2999999523163,img/planet12_left.png,12,Community 3,NA,TRUE,f,f,NA,NA,NA,1,7,"6,7,10,3,5,15,11,1,14,4,12,8,2,13,9"
14223,commdev-image-keyboard-response,462,1323368,learnblock2,779.1999998092651,img/planet9_left.png,9,Community 3,NA,TRUE,f,f,NA,NA,NA,1,7,"6,7,10,3,5,15,11,1,14,4,12,8,2,13,9"
14223,commdev-image-keyboard-response,463,1324619,learnblock2,710.8999998569489,img/planet12_left.png,12,Community 3,NA,TRUE,f,f,NA,NA,NA,1,7,"6,7,10,3,5,15,11,1,14,4,12,8,2,13,9"
14223,commdev-image-keyboard-response,464,1325882,learnblock2,799.2000000476837,img/planet9_left.png,9,Community 3,NA,TRUE,f,f,NA,NA,NA,1,7,"6,7,10,3,5,15,11,1,14,4,12,8,2,13,9"
14223,commdev-image-keyboard-response,465,1327132,learnblock2,750.7999999523163,img/planet2_left.png,2,Community 3,NA,TRUE,f,f,NA,NA,NA,1,7,"6,7,10,3,5,15,11,1,14,4,12,8,2,13,9"
14223,commdev-image-keyboard-response,466,1328396,learnblock2,717.0999999046326,img/planet12_left.png,12,Community 3,NA,TRUE,f,f,NA,NA,NA,1,7,"6,7,10,3,5,15,11,1,14,4,12,8,2,13,9"
14223,commdev-image-keyboard-response,467,1329656,learnblock2,744.3000001907349,img/planet5_left.png,5,Community 1,NA,TRUE,f,f,NA,NA,NA,1,7,"6,7,10,3,5,15,11,1,14,4,12,8,2,13,9"
14223,commdev-image-keyboard-response,468,1330908,learnblock2,733.0999999046326,img/planet6_right.png,6,Community 1,NA,TRUE,j,j,NA,NA,NA,1,7,"6,7,10,3,5,15,11,1,14,4,12,8,2,13,9"
14223,commdev-image-keyboard-response,469,1332160,learnblock2,870.7000000476837,img/planet3_left.png,3,Community 1,NA,TRUE,f,f,NA,NA,NA,1,7,"6,7,10,3,5,15,11,1,14,4,12,8,2,13,9"
14223,commdev-image-keyboard-response,470,1333411,learnblock2,789.5,img/planet15_left.png,15,Community 2,NA,TRUE,f,f,NA,NA,NA,1,7,"6,7,10,3,5,15,11,1,14,4,12,8,2,13,9"
14223,commdev-image-keyboard-response,471,1334662,learnblock2,860.0999999046326,img/planet11_left.png,11,Community 2,NA,TRUE,f,f,NA,NA,NA,1,7,"6,7,10,3,5,15,11,1,14,4,12,8,2,13,9"
14223,commdev-image-keyboard-response,472,1335915,learnblock2,795.2000000476837,img/planet14_left.png,14,Community 2,NA,TRUE,f,f,NA,NA,NA,1,7,"6,7,10,3,5,15,11,1,14,4,12,8,2,13,9"
14223,commdev-image-keyboard-response,473,1337166,learnblock2,814.2000000476837,img/planet1_right.png,1,Community 2,NA,TRUE,j,j,NA,NA,NA,1,7,"6,7,10,3,5,15,11,1,14,4,12,8,2,13,9"
14223,commdev-image-keyboard-response,474,1338418,learnblock2,808.8999998569489,img/planet4_left.png,4,Community 2,NA,TRUE,f,f,NA,NA,NA,1,7,"6,7,10,3,5,15,11,1,14,4,12,8,2,13,9"
14223,commdev-image-keyboard-response,475,1339669,learnblock2,887.6999998092651,img/planet14_right.png,14,Community 2,NA,FALSE,f,j,NA,NA,NA,1,7,"6,7,10,3,5,15,11,1,14,4,12,8,2,13,9"
14223,commdev-image-keyboard-response,476,1340920,learnblock2,799.4000000953674,img/planet4_right.png,4,Community 2,NA,TRUE,j,j,NA,NA,NA,1,7,"6,7,10,3,5,15,11,1,14,4,12,8,2,13,9"
14223,commdev-image-keyboard-response,477,1342172,learnblock2,928.0999999046326,img/planet1_left.png,1,Community 2,NA,TRUE,f,f,NA,NA,NA,1,7,"6,7,10,3,5,15,11,1,14,4,12,8,2,13,9"
14223,commdev-image-keyboard-response,478,1343423,learnblock2,731.9000000953674,img/planet4_right.png,4,Community 2,NA,TRUE,j,j,NA,NA,NA,1,7,"6,7,10,3,5,15,11,1,14,4,12,8,2,13,9"
14223,commdev-image-keyboard-response,479,1344690,learnblock2,750.1000001430511,img/planet15_left.png,15,Community 2,NA,TRUE,f,f,NA,NA,NA,1,7,"6,7,10,3,5,15,11,1,14,4,12,8,2,13,9"
14223,commdev-image-keyboard-response,480,1345942,learnblock2,816.2000000476837,img/planet3_left.png,3,Community 1,NA,TRUE,f,f,NA,NA,NA,1,7,"6,7,10,3,5,15,11,1,14,4,12,8,2,13,9"
14223,commdev-image-keyboard-response,481,1347194,learnblock2,797.7999999523163,img/planet10_left.png,10,Community 1,NA,TRUE,f,f,NA,NA,NA,1,7,"6,7,10,3,5,15,11,1,14,4,12,8,2,13,9"
14223,commdev-image-keyboard-response,482,1348445,learnblock2,716.1999998092651,img/planet6_left.png,6,Community 1,NA,TRUE,f,f,NA,NA,NA,1,7,"6,7,10,3,5,15,11,1,14,4,12,8,2,13,9"
14223,commdev-image-keyboard-response,483,1349696,learnblock2,868.7999999523163,img/planet3_right.png,3,Community 1,NA,FALSE,f,j,NA,NA,NA,1,7,"6,7,10,3,5,15,11,1,14,4,12,8,2,13,9"
14223,commdev-image-keyboard-response,484,1350948,learnblock2,835.8999998569489,img/planet15_right.png,15,Community 2,NA,FALSE,f,j,NA,NA,NA,1,7,"6,7,10,3,5,15,11,1,14,4,12,8,2,13,9"
14223,commdev-image-keyboard-response,485,1352200,learnblock2,1118.9000000953674,img/planet14_right.png,14,Community 2,NA,TRUE,j,j,NA,NA,NA,1,7,"6,7,10,3,5,15,11,1,14,4,12,8,2,13,9"
14223,commdev-image-keyboard-response,486,1353451,learnblock2,786.5,img/planet15_right.png,15,Community 2,NA,TRUE,j,j,NA,NA,NA,1,7,"6,7,10,3,5,15,11,1,14,4,12,8,2,13,9"
14223,commdev-image-keyboard-response,487,1354702,learnblock2,656.5,img/planet3_right.png,3,Community 1,NA,TRUE,j,j,NA,NA,NA,1,7,"6,7,10,3,5,15,11,1,14,4,12,8,2,13,9"
14223,commdev-image-keyboard-response,488,1355954,learnblock2,729.7000000476837,img/planet10_left.png,10,Community 1,NA,TRUE,f,f,NA,NA,NA,1,7,"6,7,10,3,5,15,11,1,14,4,12,8,2,13,9"
14223,commdev-image-keyboard-response,489,1357206,learnblock2,748,img/planet6_right.png,6,Community 1,NA,TRUE,j,j,NA,NA,NA,1,7,"6,7,10,3,5,15,11,1,14,4,12,8,2,13,9"
14223,commdev-image-keyboard-response,490,1358458,learnblock2,720.2000000476837,img/planet3_left.png,3,Community 1,NA,TRUE,f,f,NA,NA,NA,1,7,"6,7,10,3,5,15,11,1,14,4,12,8,2,13,9"
14223,commdev-image-keyboard-response,491,1359709,learnblock2,763.5999999046326,img/planet7_left.png,7,Community 1,NA,FALSE,j,f,NA,NA,NA,1,7,"6,7,10,3,5,15,11,1,14,4,12,8,2,13,9"
14223,commdev-image-keyboard-response,492,1360961,learnblock2,801,img/planet6_right.png,6,Community 1,NA,TRUE,j,j,NA,NA,NA,1,7,"6,7,10,3,5,15,11,1,14,4,12,8,2,13,9"
14223,commdev-image-keyboard-response,493,1362212,learnblock2,690.6000001430511,img/planet5_right.png,5,Community 1,NA,TRUE,j,j,NA,NA,NA,1,7,"6,7,10,3,5,15,11,1,14,4,12,8,2,13,9"
14223,commdev-image-keyboard-response,494,1363465,learnblock2,708.3000001907349,img/planet6_left.png,6,Community 1,NA,FALSE,j,f,NA,NA,NA,1,7,"6,7,10,3,5,15,11,1,14,4,12,8,2,13,9"
14223,commdev-image-keyboard-response,495,1364724,learnblock2,766.2999999523163,img/planet10_left.png,10,Community 1,NA,TRUE,f,f,NA,NA,NA,1,7,"6,7,10,3,5,15,11,1,14,4,12,8,2,13,9"
14223,commdev-image-keyboard-response,496,1365976,learnblock2,738,img/planet5_right.png,5,Community 1,NA,TRUE,j,j,NA,NA,NA,1,7,"6,7,10,3,5,15,11,1,14,4,12,8,2,13,9"
14223,commdev-image-keyboard-response,497,1367228,learnblock2,842.9000000953674,img/planet7_left.png,7,Community 1,NA,TRUE,f,f,NA,NA,NA,1,7,"6,7,10,3,5,15,11,1,14,4,12,8,2,13,9"
14223,commdev-image-keyboard-response,498,1368480,learnblock2,929.2999999523163,img/planet3_left.png,3,Community 1,NA,FALSE,j,f,NA,NA,NA,1,7,"6,7,10,3,5,15,11,1,14,4,12,8,2,13,9"
14223,commdev-image-keyboard-response,499,1369732,learnblock2,132.19999980926514,img/planet15_right.png,15,Community 2,NA,FALSE,f,j,NA,NA,NA,1,7,"6,7,10,3,5,15,11,1,14,4,12,8,2,13,9"
14223,commdev-image-keyboard-response,500,1370983,learnblock2,930.4000000953674,img/planet14_right.png,14,Community 2,NA,FALSE,f,j,NA,NA,NA,1,7,"6,7,10,3,5,15,11,1,14,4,12,8,2,13,9"
14223,commdev-image-keyboard-response,501,1372235,learnblock2,799.5999999046326,img/planet4_left.png,4,Community 2,NA,TRUE,f,f,NA,NA,NA,1,7,"6,7,10,3,5,15,11,1,14,4,12,8,2,13,9"
14223,commdev-image-keyboard-response,502,1373486,learnblock2,888.8999998569489,img/planet1_left.png,1,Community 2,NA,TRUE,f,f,NA,NA,NA,1,7,"6,7,10,3,5,15,11,1,14,4,12,8,2,13,9"
14223,commdev-image-keyboard-response,503,1374738,learnblock2,735.8999998569489,img/planet14_left.png,14,Community 2,NA,TRUE,f,f,NA,NA,NA,1,7,"6,7,10,3,5,15,11,1,14,4,12,8,2,13,9"
14223,commdev-image-keyboard-response,504,1375989,learnblock2,765.3999998569489,img/planet15_left.png,15,Community 2,NA,TRUE,f,f,NA,NA,NA,1,7,"6,7,10,3,5,15,11,1,14,4,12,8,2,13,9"
14223,commdev-image-keyboard-response,505,1377241,learnblock2,748.4000000953674,img/planet4_right.png,4,Community 2,NA,FALSE,f,j,NA,NA,NA,1,7,"6,7,10,3,5,15,11,1,14,4,12,8,2,13,9"
14223,commdev-image-keyboard-response,506,1378498,learnblock2,1204.7000000476837,img/planet14_right.png,14,Community 2,NA,TRUE,j,j,NA,NA,NA,1,7,"6,7,10,3,5,15,11,1,14,4,12,8,2,13,9"
14223,commdev-image-keyboard-response,507,1379750,learnblock2,959.4000000953674,img/planet4_left.png,4,Community 2,NA,TRUE,f,f,NA,NA,NA,1,7,"6,7,10,3,5,15,11,1,14,4,12,8,2,13,9"
14223,commdev-image-keyboard-response,508,1381001,learnblock2,905.0999999046326,img/planet1_left.png,1,Community 2,NA,TRUE,f,f,NA,NA,NA,1,7,"6,7,10,3,5,15,11,1,14,4,12,8,2,13,9"
14223,commdev-image-keyboard-response,509,1382261,learnblock2,981.9000000953674,img/planet11_right.png,11,Community 2,NA,FALSE,f,j,NA,NA,NA,1,7,"6,7,10,3,5,15,11,1,14,4,12,8,2,13,9"
14223,commdev-image-keyboard-response,510,1383513,learnblock2,963.9000000953674,img/planet4_left.png,4,Community 2,NA,TRUE,f,f,NA,NA,NA,1,7,"6,7,10,3,5,15,11,1,14,4,12,8,2,13,9"
14223,commdev-image-keyboard-response,511,1384764,learnblock2,1243.0999999046326,img/planet14_left.png,14,Community 2,NA,TRUE,f,f,NA,NA,NA,1,7,"6,7,10,3,5,15,11,1,14,4,12,8,2,13,9"
14223,commdev-image-keyboard-response,512,1386016,learnblock2,994.1000001430511,img/planet4_right.png,4,Community 2,NA,TRUE,j,j,NA,NA,NA,1,7,"6,7,10,3,5,15,11,1,14,4,12,8,2,13,9"
14223,commdev-image-keyboard-response,513,1387268,learnblock2,821.3000001907349,img/planet14_left.png,14,Community 2,NA,TRUE,f,f,NA,NA,NA,1,7,"6,7,10,3,5,15,11,1,14,4,12,8,2,13,9"
14223,commdev-image-keyboard-response,514,1388519,learnblock2,826.8999998569489,img/planet1_right.png,1,Community 2,NA,TRUE,j,j,NA,NA,NA,1,7,"6,7,10,3,5,15,11,1,14,4,12,8,2,13,9"
14223,commdev-image-keyboard-response,515,1389770,learnblock2,602.3999998569489,img/planet4_left.png,4,Community 2,NA,TRUE,f,f,NA,NA,NA,1,7,"6,7,10,3,5,15,11,1,14,4,12,8,2,13,9"
14223,commdev-image-keyboard-response,516,1391023,learnblock2,597.2999999523163,img/planet15_left.png,15,Community 2,NA,FALSE,j,f,NA,NA,NA,1,7,"6,7,10,3,5,15,11,1,14,4,12,8,2,13,9"
14223,commdev-image-keyboard-response,517,1392274,learnblock2,693.3999998569489,img/planet3_left.png,3,Community 1,NA,FALSE,j,f,NA,NA,NA,1,7,"6,7,10,3,5,15,11,1,14,4,12,8,2,13,9"
14223,commdev-image-keyboard-response,518,1393525,learnblock2,967.5,img/planet7_right.png,7,Community 1,NA,FALSE,f,j,NA,NA,NA,1,7,"6,7,10,3,5,15,11,1,14,4,12,8,2,13,9"
14223,commdev-image-keyboard-response,519,1394776,learnblock2,1016.7000000476837,img/planet3_left.png,3,Community 1,NA,TRUE,f,f,NA,NA,NA,1,7,"6,7,10,3,5,15,11,1,14,4,12,8,2,13,9"
14223,commdev-image-keyboard-response,520,1396028,learnblock2,999.7999999523163,img/planet15_left.png,15,Community 2,NA,TRUE,f,f,NA,NA,NA,1,7,"6,7,10,3,5,15,11,1,14,4,12,8,2,13,9"
14223,commdev-image-keyboard-response,521,1397279,learnblock2,1111.7999999523163,img/planet11_right.png,11,Community 2,NA,FALSE,f,j,NA,NA,NA,1,7,"6,7,10,3,5,15,11,1,14,4,12,8,2,13,9"
14223,commdev-image-keyboard-response,522,1398530,learnblock2,1054.7999999523163,img/planet15_right.png,15,Community 2,NA,TRUE,j,j,NA,NA,NA,1,7,"6,7,10,3,5,15,11,1,14,4,12,8,2,13,9"
14223,commdev-image-keyboard-response,523,1399781,learnblock2,1093.7999999523163,img/planet11_right.png,11,Community 2,NA,TRUE,j,j,NA,NA,NA,1,7,"6,7,10,3,5,15,11,1,14,4,12,8,2,13,9"
14223,commdev-image-keyboard-response,524,1401032,learnblock2,1063.7999999523163,img/planet1_left.png,1,Community 2,NA,TRUE,f,f,NA,NA,NA,1,7,"6,7,10,3,5,15,11,1,14,4,12,8,2,13,9"
14223,commdev-image-keyboard-response,525,1402285,learnblock2,1151.7000000476837,img/planet4_right.png,4,Community 2,NA,TRUE,j,j,NA,NA,NA,1,7,"6,7,10,3,5,15,11,1,14,4,12,8,2,13,9"
14223,commdev-image-keyboard-response,526,1403537,learnblock2,973.0999999046326,img/planet1_right.png,1,Community 2,NA,TRUE,j,j,NA,NA,NA,1,7,"6,7,10,3,5,15,11,1,14,4,12,8,2,13,9"
14223,commdev-image-keyboard-response,527,1404788,learnblock2,935.7000000476837,img/planet11_left.png,11,Community 2,NA,TRUE,f,f,NA,NA,NA,1,7,"6,7,10,3,5,15,11,1,14,4,12,8,2,13,9"
14223,commdev-image-keyboard-response,528,1406039,learnblock2,940.2999999523163,img/planet4_right.png,4,Community 2,NA,TRUE,j,j,NA,NA,NA,1,7,"6,7,10,3,5,15,11,1,14,4,12,8,2,13,9"
14223,commdev-image-keyboard-response,529,1407291,learnblock2,null,img/planet14_left.png,14,Community 2,NA,FALSE,null,f,NA,NA,NA,1,7,"6,7,10,3,5,15,11,1,14,4,12,8,2,13,9"
14223,commdev-image-keyboard-response,530,1408543,learnblock2,40.299999952316284,img/planet1_left.png,1,Community 2,NA,FALSE,j,f,NA,NA,NA,1,7,"6,7,10,3,5,15,11,1,14,4,12,8,2,13,9"
14223,commdev-image-keyboard-response,531,1409795,learnblock2,921.9000000953674,img/planet14_left.png,14,Community 2,NA,TRUE,f,f,NA,NA,NA,1,7,"6,7,10,3,5,15,11,1,14,4,12,8,2,13,9"
14223,commdev-image-keyboard-response,532,1411046,learnblock2,822.9000000953674,img/planet4_left.png,4,Community 2,NA,TRUE,f,f,NA,NA,NA,1,7,"6,7,10,3,5,15,11,1,14,4,12,8,2,13,9"
14223,commdev-image-keyboard-response,533,1412298,learnblock2,789,img/planet1_right.png,1,Community 2,NA,TRUE,j,j,NA,NA,NA,1,7,"6,7,10,3,5,15,11,1,14,4,12,8,2,13,9"
14223,commdev-image-keyboard-response,534,1413550,learnblock2,750.2999999523163,img/planet11_right.png,11,Community 2,NA,TRUE,j,j,NA,NA,NA,1,7,"6,7,10,3,5,15,11,1,14,4,12,8,2,13,9"
14223,commdev-image-keyboard-response,535,1414802,learnblock2,869.9000000953674,img/planet15_left.png,15,Community 2,NA,FALSE,j,f,NA,NA,NA,1,7,"6,7,10,3,5,15,11,1,14,4,12,8,2,13,9"
14223,commdev-image-keyboard-response,536,1416053,learnblock2,821.5,img/planet4_left.png,4,Community 2,NA,TRUE,f,f,NA,NA,NA,1,7,"6,7,10,3,5,15,11,1,14,4,12,8,2,13,9"
14223,commdev-image-keyboard-response,537,1417317,learnblock2,814.6000001430511,img/planet1_left.png,1,Community 2,NA,TRUE,f,f,NA,NA,NA,1,7,"6,7,10,3,5,15,11,1,14,4,12,8,2,13,9"
14223,commdev-image-keyboard-response,538,1418568,learnblock2,694.2000000476837,img/planet11_right.png,11,Community 2,NA,FALSE,f,j,NA,NA,NA,1,7,"6,7,10,3,5,15,11,1,14,4,12,8,2,13,9"
14223,commdev-image-keyboard-response,539,1419820,learnblock2,1068.6000001430511,img/planet14_left.png,14,Community 2,NA,TRUE,f,f,NA,NA,NA,1,7,"6,7,10,3,5,15,11,1,14,4,12,8,2,13,9"
14223,commdev-image-keyboard-response,540,1421071,learnblock2,887,img/planet11_left.png,11,Community 2,NA,TRUE,f,f,NA,NA,NA,1,7,"6,7,10,3,5,15,11,1,14,4,12,8,2,13,9"
14223,commdev-image-keyboard-response,541,1422323,learnblock2,885.2999999523163,img/planet15_right.png,15,Community 2,NA,FALSE,f,j,NA,NA,NA,1,7,"6,7,10,3,5,15,11,1,14,4,12,8,2,13,9"
14223,commdev-image-keyboard-response,542,1423583,learnblock2,973.2999999523163,img/planet14_right.png,14,Community 2,NA,TRUE,j,j,NA,NA,NA,1,7,"6,7,10,3,5,15,11,1,14,4,12,8,2,13,9"
14223,commdev-image-keyboard-response,543,1424836,learnblock2,685.0999999046326,img/planet11_left.png,11,Community 2,NA,TRUE,f,f,NA,NA,NA,1,7,"6,7,10,3,5,15,11,1,14,4,12,8,2,13,9"
14223,commdev-image-keyboard-response,544,1426087,learnblock2,694.6999998092651,img/planet4_right.png,4,Community 2,NA,FALSE,f,j,NA,NA,NA,1,7,"6,7,10,3,5,15,11,1,14,4,12,8,2,13,9"
14223,commdev-image-keyboard-response,545,1427339,learnblock2,790.5,img/planet1_left.png,1,Community 2,NA,TRUE,f,f,NA,NA,NA,1,7,"6,7,10,3,5,15,11,1,14,4,12,8,2,13,9"
14223,commdev-image-keyboard-response,546,1428591,learnblock2,827,img/planet8_left.png,8,Community 3,NA,TRUE,f,f,NA,NA,NA,1,7,"6,7,10,3,5,15,11,1,14,4,12,8,2,13,9"
14223,commdev-image-keyboard-response,547,1429843,learnblock2,755.2000000476837,img/planet1_right.png,1,Community 2,NA,TRUE,j,j,NA,NA,NA,1,7,"6,7,10,3,5,15,11,1,14,4,12,8,2,13,9"
14223,commdev-image-keyboard-response,548,1431094,learnblock2,857.7999999523163,img/planet14_right.png,14,Community 2,NA,FALSE,f,j,NA,NA,NA,1,7,"6,7,10,3,5,15,11,1,14,4,12,8,2,13,9"
14223,commdev-image-keyboard-response,549,1432345,learnblock2,null,img/planet4_right.png,4,Community 2,NA,FALSE,null,j,NA,NA,NA,1,7,"6,7,10,3,5,15,11,1,14,4,12,8,2,13,9"
14223,commdev-image-keyboard-response,550,1433597,learnblock2,36.5,img/planet14_left.png,14,Community 2,NA,FALSE,j,f,NA,NA,NA,1,7,"6,7,10,3,5,15,11,1,14,4,12,8,2,13,9"
14223,commdev-image-keyboard-response,551,1434848,learnblock2,27.59999990463257,img/planet15_right.png,15,Community 2,NA,TRUE,j,j,NA,NA,NA,1,7,"6,7,10,3,5,15,11,1,14,4,12,8,2,13,9"
14223,commdev-image-keyboard-response,552,1436099,learnblock2,133.79999995231628,img/planet4_right.png,4,Community 2,NA,TRUE,j,j,NA,NA,NA,1,7,"6,7,10,3,5,15,11,1,14,4,12,8,2,13,9"
14223,commdev-image-keyboard-response,553,1437351,learnblock2,918.7999999523163,img/planet15_left.png,15,Community 2,NA,TRUE,f,f,NA,NA,NA,1,7,"6,7,10,3,5,15,11,1,14,4,12,8,2,13,9"
14223,commdev-image-keyboard-response,554,1438602,learnblock2,625.2000000476837,img/planet14_left.png,14,Community 2,NA,FALSE,j,f,NA,NA,NA,1,7,"6,7,10,3,5,15,11,1,14,4,12,8,2,13,9"
14223,commdev-image-keyboard-response,555,1439854,learnblock2,611.3000001907349,img/planet15_left.png,15,Community 2,NA,TRUE,f,f,NA,NA,NA,1,7,"6,7,10,3,5,15,11,1,14,4,12,8,2,13,9"
14223,commdev-image-keyboard-response,556,1441106,learnblock2,895.4000000953674,img/planet11_right.png,11,Community 2,NA,TRUE,j,j,NA,NA,NA,1,7,"6,7,10,3,5,15,11,1,14,4,12,8,2,13,9"
14223,commdev-image-keyboard-response,557,1442358,learnblock2,779.8000001907349,img/planet1_right.png,1,Community 2,NA,TRUE,j,j,NA,NA,NA,1,7,"6,7,10,3,5,15,11,1,14,4,12,8,2,13,9"
14223,commdev-image-keyboard-response,558,1443610,learnblock2,790.6000001430511,img/planet4_left.png,4,Community 2,NA,TRUE,f,f,NA,NA,NA,1,7,"6,7,10,3,5,15,11,1,14,4,12,8,2,13,9"
14223,commdev-image-keyboard-response,559,1444861,learnblock2,939.5999999046326,img/planet14_left.png,14,Community 2,NA,TRUE,f,f,NA,NA,NA,1,7,"6,7,10,3,5,15,11,1,14,4,12,8,2,13,9"
14223,commdev-image-keyboard-response,560,1446114,learnblock2,862.5999999046326,img/planet11_right.png,11,Community 2,NA,TRUE,j,j,NA,NA,NA,1,7,"6,7,10,3,5,15,11,1,14,4,12,8,2,13,9"
14223,commdev-image-keyboard-response,561,1447366,learnblock2,871,img/planet4_left.png,4,Community 2,NA,TRUE,f,f,NA,NA,NA,1,7,"6,7,10,3,5,15,11,1,14,4,12,8,2,13,9"
14223,commdev-image-keyboard-response,562,1448617,learnblock2,1006.5,img/planet14_right.png,14,Community 2,NA,FALSE,f,j,NA,NA,NA,1,7,"6,7,10,3,5,15,11,1,14,4,12,8,2,13,9"
14223,commdev-image-keyboard-response,563,1449869,learnblock2,945.0999999046326,img/planet11_left.png,11,Community 2,NA,FALSE,j,f,NA,NA,NA,1,7,"6,7,10,3,5,15,11,1,14,4,12,8,2,13,9"
14223,commdev-image-keyboard-response,564,1451121,learnblock2,881.1000001430511,img/planet4_right.png,4,Community 2,NA,TRUE,j,j,NA,NA,NA,1,7,"6,7,10,3,5,15,11,1,14,4,12,8,2,13,9"
14223,commdev-image-keyboard-response,565,1452372,learnblock2,835.9000000953674,img/planet15_left.png,15,Community 2,NA,TRUE,f,f,NA,NA,NA,1,7,"6,7,10,3,5,15,11,1,14,4,12,8,2,13,9"
14223,commdev-image-keyboard-response,566,1453624,learnblock2,null,img/planet11_left.png,11,Community 2,NA,FALSE,null,f,NA,NA,NA,1,7,"6,7,10,3,5,15,11,1,14,4,12,8,2,13,9"
14223,commdev-image-keyboard-response,567,1454877,learnblock2,58.40000009536743,img/planet14_right.png,14,Community 2,NA,TRUE,j,j,NA,NA,NA,1,7,"6,7,10,3,5,15,11,1,14,4,12,8,2,13,9"
14223,commdev-image-keyboard-response,568,1456129,learnblock2,695.4000000953674,img/planet15_right.png,15,Community 2,NA,TRUE,j,j,NA,NA,NA,1,7,"6,7,10,3,5,15,11,1,14,4,12,8,2,13,9"
14223,commdev-image-keyboard-response,569,1457380,learnblock2,878.5999999046326,img/planet14_left.png,14,Community 2,NA,TRUE,f,f,NA,NA,NA,1,7,"6,7,10,3,5,15,11,1,14,4,12,8,2,13,9"
14223,commdev-image-keyboard-response,570,1458632,learnblock2,993.2000000476837,img/planet4_right.png,4,Community 2,NA,FALSE,f,j,NA,NA,NA,1,7,"6,7,10,3,5,15,11,1,14,4,12,8,2,13,9"
14223,commdev-image-keyboard-response,571,1459884,learnblock2,18.5,img/planet15_left.png,15,Community 2,NA,FALSE,j,f,NA,NA,NA,1,7,"6,7,10,3,5,15,11,1,14,4,12,8,2,13,9"
14223,commdev-image-keyboard-response,572,1461135,learnblock2,877.1000001430511,img/planet4_right.png,4,Community 2,NA,TRUE,j,j,NA,NA,NA,1,7,"6,7,10,3,5,15,11,1,14,4,12,8,2,13,9"
14223,commdev-image-keyboard-response,573,1462386,learnblock2,968.2999999523163,img/planet15_right.png,15,Community 2,NA,TRUE,j,j,NA,NA,NA,1,7,"6,7,10,3,5,15,11,1,14,4,12,8,2,13,9"
14223,commdev-image-keyboard-response,574,1463638,learnblock2,972.5,img/planet4_right.png,4,Community 2,NA,TRUE,j,j,NA,NA,NA,1,7,"6,7,10,3,5,15,11,1,14,4,12,8,2,13,9"
14223,commdev-image-keyboard-response,575,1464890,learnblock2,925.3000001907349,img/planet1_left.png,1,Community 2,NA,TRUE,f,f,NA,NA,NA,1,7,"6,7,10,3,5,15,11,1,14,4,12,8,2,13,9"
14223,commdev-image-keyboard-response,576,1466141,learnblock2,975.1000001430511,img/planet14_right.png,14,Community 2,NA,TRUE,j,j,NA,NA,NA,1,7,"6,7,10,3,5,15,11,1,14,4,12,8,2,13,9"
14223,commdev-image-keyboard-response,577,1467393,learnblock2,778.2000000476837,img/planet11_right.png,11,Community 2,NA,TRUE,j,j,NA,NA,NA,1,7,"6,7,10,3,5,15,11,1,14,4,12,8,2,13,9"
14223,commdev-image-keyboard-response,578,1468645,learnblock2,680.7999999523163,img/planet15_left.png,15,Community 2,NA,TRUE,f,f,NA,NA,NA,1,7,"6,7,10,3,5,15,11,1,14,4,12,8,2,13,9"
14223,commdev-image-keyboard-response,579,1469897,learnblock2,662.3999998569489,img/planet4_left.png,4,Community 2,NA,FALSE,j,f,NA,NA,NA,1,7,"6,7,10,3,5,15,11,1,14,4,12,8,2,13,9"
14223,commdev-image-keyboard-response,580,1471148,learnblock2,653.5,img/planet14_left.png,14,Community 2,NA,FALSE,j,f,NA,NA,NA,1,7,"6,7,10,3,5,15,11,1,14,4,12,8,2,13,9"
14223,commdev-image-keyboard-response,581,1472400,learnblock2,695.6000001430511,img/planet15_right.png,15,Community 2,NA,TRUE,j,j,NA,NA,NA,1,7,"6,7,10,3,5,15,11,1,14,4,12,8,2,13,9"
14223,commdev-image-keyboard-response,582,1473652,learnblock2,547.7999999523163,img/planet4_left.png,4,Community 2,NA,TRUE,f,f,NA,NA,NA,1,7,"6,7,10,3,5,15,11,1,14,4,12,8,2,13,9"
14223,commdev-image-keyboard-response,583,1474902,learnblock2,938.3000001907349,img/planet11_right.png,11,Community 2,NA,TRUE,j,j,NA,NA,NA,1,7,"6,7,10,3,5,15,11,1,14,4,12,8,2,13,9"
14223,commdev-image-keyboard-response,584,1476154,learnblock2,966.1999998092651,img/planet15_right.png,15,Community 2,NA,TRUE,j,j,NA,NA,NA,1,7,"6,7,10,3,5,15,11,1,14,4,12,8,2,13,9"
14223,commdev-image-keyboard-response,585,1477406,learnblock2,952.7000000476837,img/planet3_right.png,3,Community 1,NA,TRUE,j,j,NA,NA,NA,1,7,"6,7,10,3,5,15,11,1,14,4,12,8,2,13,9"
14223,commdev-image-keyboard-response,586,1478659,learnblock2,818.4000000953674,img/planet15_left.png,15,Community 2,NA,FALSE,j,f,NA,NA,NA,1,7,"6,7,10,3,5,15,11,1,14,4,12,8,2,13,9"
14223,commdev-image-keyboard-response,587,1479910,learnblock2,926.7000000476837,img/planet3_right.png,3,Community 1,NA,FALSE,f,j,NA,NA,NA,1,7,"6,7,10,3,5,15,11,1,14,4,12,8,2,13,9"
14223,commdev-image-keyboard-response,588,1481161,learnblock2,887.7000000476837,img/planet10_right.png,10,Community 1,NA,TRUE,j,j,NA,NA,NA,1,7,"6,7,10,3,5,15,11,1,14,4,12,8,2,13,9"
14223,commdev-image-keyboard-response,589,1482413,learnblock2,808.2000000476837,img/planet6_left.png,6,Community 1,NA,FALSE,j,f,NA,NA,NA,1,7,"6,7,10,3,5,15,11,1,14,4,12,8,2,13,9"
14223,commdev-image-keyboard-response,590,1483665,learnblock2,877.1000001430511,img/planet3_left.png,3,Community 1,NA,TRUE,f,f,NA,NA,NA,1,7,"6,7,10,3,5,15,11,1,14,4,12,8,2,13,9"
14223,commdev-image-keyboard-response,591,1484917,learnblock2,851.2999999523163,img/planet15_right.png,15,Community 2,NA,FALSE,f,j,NA,NA,NA,1,7,"6,7,10,3,5,15,11,1,14,4,12,8,2,13,9"
14223,commdev-image-keyboard-response,592,1486169,learnblock2,988.2999999523163,img/planet3_left.png,3,Community 1,NA,TRUE,f,f,NA,NA,NA,1,7,"6,7,10,3,5,15,11,1,14,4,12,8,2,13,9"
14223,commdev-image-keyboard-response,593,1487421,learnblock2,829.6000001430511,img/planet10_left.png,10,Community 1,NA,TRUE,f,f,NA,NA,NA,1,7,"6,7,10,3,5,15,11,1,14,4,12,8,2,13,9"
14223,commdev-image-keyboard-response,594,1488673,learnblock2,923.2000000476837,img/planet3_left.png,3,Community 1,NA,TRUE,f,f,NA,NA,NA,1,7,"6,7,10,3,5,15,11,1,14,4,12,8,2,13,9"
14223,commdev-image-keyboard-response,595,1489924,learnblock2,750.7999999523163,img/planet6_right.png,6,Community 1,NA,TRUE,j,j,NA,NA,NA,1,7,"6,7,10,3,5,15,11,1,14,4,12,8,2,13,9"
14223,commdev-image-keyboard-response,596,1491175,learnblock2,921.5999999046326,img/planet7_left.png,7,Community 1,NA,TRUE,f,f,NA,NA,NA,1,7,"6,7,10,3,5,15,11,1,14,4,12,8,2,13,9"
14223,commdev-image-keyboard-response,597,1492427,learnblock2,926.4000000953674,img/planet3_left.png,3,Community 1,NA,TRUE,f,f,NA,NA,NA,1,7,"6,7,10,3,5,15,11,1,14,4,12,8,2,13,9"
14223,commdev-image-keyboard-response,598,1493679,learnblock2,null,img/planet7_left.png,7,Community 1,NA,FALSE,null,f,NA,NA,NA,1,7,"6,7,10,3,5,15,11,1,14,4,12,8,2,13,9"
14223,commdev-image-keyboard-response,599,1494930,learnblock2,66.29999995231628,img/planet10_right.png,10,Community 1,NA,TRUE,j,j,NA,NA,NA,1,7,"6,7,10,3,5,15,11,1,14,4,12,8,2,13,9"
14223,commdev-image-keyboard-response,600,1496182,learnblock2,890.7000000476837,img/planet3_left.png,3,Community 1,NA,TRUE,f,f,NA,NA,NA,1,7,"6,7,10,3,5,15,11,1,14,4,12,8,2,13,9"
14223,commdev-image-keyboard-response,601,1497434,learnblock2,949.5,img/planet7_right.png,7,Community 1,NA,TRUE,j,j,NA,NA,NA,1,7,"6,7,10,3,5,15,11,1,14,4,12,8,2,13,9"
14223,commdev-image-keyboard-response,602,1498685,learnblock2,936,img/planet5_left.png,5,Community 1,NA,TRUE,f,f,NA,NA,NA,1,7,"6,7,10,3,5,15,11,1,14,4,12,8,2,13,9"
14223,commdev-image-keyboard-response,603,1499936,learnblock2,896.7999999523163,img/planet10_right.png,10,Community 1,NA,TRUE,j,j,NA,NA,NA,1,7,"6,7,10,3,5,15,11,1,14,4,12,8,2,13,9"
14223,commdev-image-keyboard-response,604,1501189,learnblock2,888.5999999046326,img/planet3_right.png,3,Community 1,NA,FALSE,f,j,NA,NA,NA,1,7,"6,7,10,3,5,15,11,1,14,4,12,8,2,13,9"
14223,commdev-image-keyboard-response,605,1502441,learnblock2,115.79999995231628,img/planet7_right.png,7,Community 1,NA,TRUE,j,j,NA,NA,NA,1,7,"6,7,10,3,5,15,11,1,14,4,12,8,2,13,9"
14223,commdev-image-keyboard-response,606,1503693,learnblock2,925,img/planet6_left.png,6,Community 1,NA,TRUE,f,f,NA,NA,NA,1,7,"6,7,10,3,5,15,11,1,14,4,12,8,2,13,9"
14223,commdev-image-keyboard-response,607,1504944,learnblock2,891.4000000953674,img/planet10_left.png,10,Community 1,NA,TRUE,f,f,NA,NA,NA,1,7,"6,7,10,3,5,15,11,1,14,4,12,8,2,13,9"
14223,commdev-image-keyboard-response,608,1506195,learnblock2,815.5,img/planet6_right.png,6,Community 1,NA,TRUE,j,j,NA,NA,NA,1,7,"6,7,10,3,5,15,11,1,14,4,12,8,2,13,9"
14223,commdev-image-keyboard-response,609,1507447,learnblock2,826.7000000476837,img/planet10_left.png,10,Community 1,NA,TRUE,f,f,NA,NA,NA,1,7,"6,7,10,3,5,15,11,1,14,4,12,8,2,13,9"
14223,commdev-image-keyboard-response,610,1508698,learnblock2,791.1000001430511,img/planet6_right.png,6,Community 1,NA,TRUE,j,j,NA,NA,NA,1,7,"6,7,10,3,5,15,11,1,14,4,12,8,2,13,9"
14223,commdev-image-keyboard-response,611,1509954,learnblock2,689.7000000476837,img/planet10_right.png,10,Community 1,NA,TRUE,j,j,NA,NA,NA,1,7,"6,7,10,3,5,15,11,1,14,4,12,8,2,13,9"
14223,commdev-image-keyboard-response,612,1511205,learnblock2,711.6000001430511,img/planet5_left.png,5,Community 1,NA,TRUE,f,f,NA,NA,NA,1,7,"6,7,10,3,5,15,11,1,14,4,12,8,2,13,9"
14223,commdev-image-keyboard-response,613,1512457,learnblock2,729.5999999046326,img/planet6_left.png,6,Community 1,NA,TRUE,f,f,NA,NA,NA,1,7,"6,7,10,3,5,15,11,1,14,4,12,8,2,13,9"
14223,commdev-image-keyboard-response,614,1513709,learnblock2,928.4000000953674,img/planet3_left.png,3,Community 1,NA,TRUE,f,f,NA,NA,NA,1,7,"6,7,10,3,5,15,11,1,14,4,12,8,2,13,9"
14223,commdev-image-keyboard-response,615,1514961,learnblock2,739.6000001430511,img/planet6_right.png,6,Community 1,NA,TRUE,j,j,NA,NA,NA,1,7,"6,7,10,3,5,15,11,1,14,4,12,8,2,13,9"
14223,commdev-image-keyboard-response,616,1516212,learnblock2,925.9000000953674,img/planet7_left.png,7,Community 1,NA,FALSE,j,f,NA,NA,NA,1,7,"6,7,10,3,5,15,11,1,14,4,12,8,2,13,9"
14223,commdev-image-keyboard-response,617,1517464,learnblock2,729.3000001907349,img/planet6_right.png,6,Community 1,NA,TRUE,j,j,NA,NA,NA,1,7,"6,7,10,3,5,15,11,1,14,4,12,8,2,13,9"
14223,commdev-image-keyboard-response,618,1518716,learnblock2,822.6000001430511,img/planet3_right.png,3,Community 1,NA,TRUE,j,j,NA,NA,NA,1,7,"6,7,10,3,5,15,11,1,14,4,12,8,2,13,9"
14223,commdev-image-keyboard-response,619,1519967,learnblock2,712,img/planet15_left.png,15,Community 2,NA,TRUE,f,f,NA,NA,NA,1,7,"6,7,10,3,5,15,11,1,14,4,12,8,2,13,9"
14223,commdev-image-keyboard-response,620,1521220,learnblock2,827.5,img/planet4_left.png,4,Community 2,NA,FALSE,j,f,NA,NA,NA,1,7,"6,7,10,3,5,15,11,1,14,4,12,8,2,13,9"
14223,commdev-image-keyboard-response,621,1522471,learnblock2,847,img/planet1_right.png,1,Community 2,NA,TRUE,j,j,NA,NA,NA,1,7,"6,7,10,3,5,15,11,1,14,4,12,8,2,13,9"
14223,commdev-image-keyboard-response,622,1523723,learnblock2,1157.7999999523163,img/planet4_right.png,4,Community 2,NA,TRUE,j,j,NA,NA,NA,1,7,"6,7,10,3,5,15,11,1,14,4,12,8,2,13,9"
14223,commdev-image-keyboard-response,623,1524975,learnblock2,904.2000000476837,img/planet1_left.png,1,Community 2,NA,FALSE,j,f,NA,NA,NA,1,7,"6,7,10,3,5,15,11,1,14,4,12,8,2,13,9"
14223,commdev-image-keyboard-response,624,1526233,learnblock2,877.0999999046326,img/planet8_left.png,8,Community 3,NA,TRUE,f,f,NA,NA,NA,1,7,"6,7,10,3,5,15,11,1,14,4,12,8,2,13,9"
14223,commdev-image-keyboard-response,625,1527490,learnblock2,832.6000001430511,img/planet13_left.png,13,Community 3,NA,TRUE,f,f,NA,NA,NA,1,7,"6,7,10,3,5,15,11,1,14,4,12,8,2,13,9"
14223,commdev-image-keyboard-response,626,1528747,learnblock2,891.9000000953674,img/planet2_left.png,2,Community 3,NA,TRUE,f,f,NA,NA,NA,1,7,"6,7,10,3,5,15,11,1,14,4,12,8,2,13,9"
14223,commdev-image-keyboard-response,627,1529999,learnblock2,924.5,img/planet12_right.png,12,Community 3,NA,TRUE,j,j,NA,NA,NA,1,7,"6,7,10,3,5,15,11,1,14,4,12,8,2,13,9"
14223,commdev-image-keyboard-response,628,1531252,learnblock2,1036.5,img/planet2_right.png,2,Community 3,NA,TRUE,j,j,NA,NA,NA,1,7,"6,7,10,3,5,15,11,1,14,4,12,8,2,13,9"
14223,commdev-image-keyboard-response,629,1532502,learnblock2,1024,img/planet12_left.png,12,Community 3,NA,TRUE,f,f,NA,NA,NA,1,7,"6,7,10,3,5,15,11,1,14,4,12,8,2,13,9"
14223,commdev-image-keyboard-response,630,1533754,learnblock2,821.2000000476837,img/planet13_right.png,13,Community 3,NA,TRUE,j,j,NA,NA,NA,1,7,"6,7,10,3,5,15,11,1,14,4,12,8,2,13,9"
14223,commdev-image-keyboard-response,631,1535004,learnblock2,853.2000000476837,img/planet12_left.png,12,Community 3,NA,TRUE,f,f,NA,NA,NA,1,7,"6,7,10,3,5,15,11,1,14,4,12,8,2,13,9"
14223,commdev-image-keyboard-response,632,1536256,learnblock2,796,img/planet9_right.png,9,Community 3,NA,TRUE,j,j,NA,NA,NA,1,7,"6,7,10,3,5,15,11,1,14,4,12,8,2,13,9"
14223,commdev-image-keyboard-response,633,1537507,learnblock2,762.7000000476837,img/planet8_right.png,8,Community 3,NA,TRUE,j,j,NA,NA,NA,1,7,"6,7,10,3,5,15,11,1,14,4,12,8,2,13,9"
14223,commdev-image-keyboard-response,634,1538758,learnblock2,879.8999998569489,img/planet2_right.png,2,Community 3,NA,TRUE,j,j,NA,NA,NA,1,7,"6,7,10,3,5,15,11,1,14,4,12,8,2,13,9"
14223,commdev-image-keyboard-response,635,1540010,learnblock2,826.4000000953674,img/planet8_left.png,8,Community 3,NA,TRUE,f,f,NA,NA,NA,1,7,"6,7,10,3,5,15,11,1,14,4,12,8,2,13,9"
14223,commdev-image-keyboard-response,636,1541261,learnblock2,725.8000001907349,img/planet1_left.png,1,Community 2,NA,FALSE,j,f,NA,NA,NA,1,7,"6,7,10,3,5,15,11,1,14,4,12,8,2,13,9"
14223,commdev-image-keyboard-response,637,1542513,learnblock2,854.1000001430511,img/planet4_right.png,4,Community 2,NA,FALSE,f,j,NA,NA,NA,1,7,"6,7,10,3,5,15,11,1,14,4,12,8,2,13,9"
14223,commdev-image-keyboard-response,638,1543764,learnblock2,938.6999998092651,img/planet15_left.png,15,Community 2,NA,TRUE,f,f,NA,NA,NA,1,7,"6,7,10,3,5,15,11,1,14,4,12,8,2,13,9"
14223,commdev-image-keyboard-response,639,1545017,learnblock2,903.9000000953674,img/planet14_right.png,14,Community 2,NA,FALSE,f,j,NA,NA,NA,1,7,"6,7,10,3,5,15,11,1,14,4,12,8,2,13,9"
14223,commdev-image-keyboard-response,640,1546269,learnblock2,924.0999999046326,img/planet4_right.png,4,Community 2,NA,TRUE,j,j,NA,NA,NA,1,7,"6,7,10,3,5,15,11,1,14,4,12,8,2,13,9"
14223,commdev-image-keyboard-response,641,1547521,learnblock2,852.2999999523163,img/planet15_right.png,15,Community 2,NA,TRUE,j,j,NA,NA,NA,1,7,"6,7,10,3,5,15,11,1,14,4,12,8,2,13,9"
14223,commdev-image-keyboard-response,642,1548772,learnblock2,850.5999999046326,img/planet3_left.png,3,Community 1,NA,TRUE,f,f,NA,NA,NA,1,7,"6,7,10,3,5,15,11,1,14,4,12,8,2,13,9"
14223,commdev-image-keyboard-response,643,1550024,learnblock2,824.0999999046326,img/planet6_left.png,6,Community 1,NA,TRUE,f,f,NA,NA,NA,1,7,"6,7,10,3,5,15,11,1,14,4,12,8,2,13,9"
14223,commdev-image-keyboard-response,644,1551275,learnblock2,836.7000000476837,img/planet5_left.png,5,Community 1,NA,TRUE,f,f,NA,NA,NA,1,7,"6,7,10,3,5,15,11,1,14,4,12,8,2,13,9"
14223,commdev-image-keyboard-response,645,1552527,learnblock2,812.2000000476837,img/planet10_left.png,10,Community 1,NA,TRUE,f,f,NA,NA,NA,1,7,"6,7,10,3,5,15,11,1,14,4,12,8,2,13,9"
14223,commdev-image-keyboard-response,646,1553779,learnblock2,708.9000000953674,img/planet3_left.png,3,Community 1,NA,TRUE,f,f,NA,NA,NA,1,7,"6,7,10,3,5,15,11,1,14,4,12,8,2,13,9"
14223,commdev-image-keyboard-response,647,1555031,learnblock2,695.1999998092651,img/planet15_left.png,15,Community 2,NA,TRUE,f,f,NA,NA,NA,1,7,"6,7,10,3,5,15,11,1,14,4,12,8,2,13,9"
14223,commdev-image-keyboard-response,648,1556283,learnblock2,717.7999999523163,img/planet11_right.png,11,Community 2,NA,TRUE,j,j,NA,NA,NA,1,7,"6,7,10,3,5,15,11,1,14,4,12,8,2,13,9"
14223,commdev-image-keyboard-response,649,1557534,learnblock2,694,img/planet15_right.png,15,Community 2,NA,FALSE,f,j,NA,NA,NA,1,7,"6,7,10,3,5,15,11,1,14,4,12,8,2,13,9"
14223,commdev-image-keyboard-response,650,1558787,learnblock2,752.8999998569489,img/planet11_right.png,11,Community 2,NA,TRUE,j,j,NA,NA,NA,1,7,"6,7,10,3,5,15,11,1,14,4,12,8,2,13,9"
14223,commdev-image-keyboard-response,651,1560038,learnblock2,782.6000001430511,img/planet1_left.png,1,Community 2,NA,FALSE,j,f,NA,NA,NA,1,7,"6,7,10,3,5,15,11,1,14,4,12,8,2,13,9"
14223,commdev-image-keyboard-response,652,1561290,learnblock2,1053.2999999523163,img/planet11_left.png,11,Community 2,NA,TRUE,f,f,NA,NA,NA,1,7,"6,7,10,3,5,15,11,1,14,4,12,8,2,13,9"
14223,commdev-image-keyboard-response,653,1562541,learnblock2,926.2999999523163,img/planet14_left.png,14,Community 2,NA,TRUE,f,f,NA,NA,NA,1,7,"6,7,10,3,5,15,11,1,14,4,12,8,2,13,9"
14223,commdev-image-keyboard-response,654,1563797,learnblock2,930.3000001907349,img/planet15_right.png,15,Community 2,NA,TRUE,j,j,NA,NA,NA,1,7,"6,7,10,3,5,15,11,1,14,4,12,8,2,13,9"
14223,commdev-image-keyboard-response,655,1565048,learnblock2,1014.7000000476837,img/planet14_right.png,14,Community 2,NA,FALSE,f,j,NA,NA,NA,1,7,"6,7,10,3,5,15,11,1,14,4,12,8,2,13,9"
14223,commdev-image-keyboard-response,656,1566299,learnblock2,695,img/planet11_right.png,11,Community 2,NA,TRUE,j,j,NA,NA,NA,1,7,"6,7,10,3,5,15,11,1,14,4,12,8,2,13,9"
14223,commdev-image-keyboard-response,657,1567551,learnblock2,731.3000001907349,img/planet4_right.png,4,Community 2,NA,TRUE,j,j,NA,NA,NA,1,7,"6,7,10,3,5,15,11,1,14,4,12,8,2,13,9"
14223,commdev-image-keyboard-response,658,1568803,learnblock2,745,img/planet15_left.png,15,Community 2,NA,TRUE,f,f,NA,NA,NA,1,7,"6,7,10,3,5,15,11,1,14,4,12,8,2,13,9"
14223,commdev-image-keyboard-response,659,1570055,learnblock2,822.0999999046326,img/planet4_right.png,4,Community 2,NA,TRUE,j,j,NA,NA,NA,1,7,"6,7,10,3,5,15,11,1,14,4,12,8,2,13,9"
14223,commdev-image-keyboard-response,660,1571307,learnblock2,786.6000001430511,img/planet14_right.png,14,Community 2,NA,FALSE,f,j,NA,NA,NA,1,7,"6,7,10,3,5,15,11,1,14,4,12,8,2,13,9"
14223,commdev-image-keyboard-response,661,1572571,learnblock2,721.7999999523163,img/planet4_right.png,4,Community 2,NA,TRUE,j,j,NA,NA,NA,1,7,"6,7,10,3,5,15,11,1,14,4,12,8,2,13,9"
