subject_id,trial_type,trial_index,time_elapsed,block,rt,stimulus,planet,community,response,correct,key_press,learning_correct_response,parse,init_locations,final_locations,browser_interactions,num_comp,planet_map
14347,commdev-instructions,7,51922,NA,3212.0999999046326,"<p>In this game, you will be shown a 3x3 grid of patterns.</p> <p>The last one in the bottom right-hand corner, <strong>will be missing:</strong></p> <div style='width: 700px;'><div style='float: top;'><img style='width: 200px;' src='practice/p1_M1.png'></img><p class='small'>You need to select<strong> which of the four possible patterns </strong>along the bottom<strong> fits into the gap:</strong></p></div><div style='float: top;'><img style='width: 300px;' src='practice/p1_T1.png'></img></div><br>",NA,NA,NA,NA,NA,NA,NA,NA,NA,3,6,"8,2,14,3,9,13,12,6,7,15,5,11,4,10,1"
14347,commdev-instructions,8,71733,NA,1249.8000000715256,"<p>Try to be as fast and as accurate as you can be.</p> <p>If you cannot solve the puzzle then you should guess - you will not be penalised for an incorrect answer.</p> <p>The task contains a shuffled mix of easy, medium and hard puzzles.</p> <p>You will have <strong>30 seconds</strong> to complete each puzzle.</p><br>",NA,NA,NA,NA,NA,NA,NA,NA,NA,3,6,"8,2,14,3,9,13,12,6,7,15,5,11,4,10,1"
14347,commdev-instructions,17,109724,NA,1002.3000000715256,<p><strong>Success!</strong></p> <p>You seem to be getting the hang of this...</p> <p>Let's move on to the real trials.</p><br>,NA,NA,NA,NA,NA,NA,NA,NA,NA,3,6,"8,2,14,3,9,13,12,6,7,15,5,11,4,10,1"
14347,commdev-instructions,155,603782,NA,1839.8999999761581,"<p>In this game, you are a scientist on board a space shuttle. </p><p> On each mission, you will visit planets all across the universe.</p><img src=""img/controlroom.jpg"" width=300vw>",NA,NA,NA,NA,NA,NA,NA,NA,NA,3,6,"8,2,14,3,9,13,12,6,7,15,5,11,4,10,1"
14347,commdev-instructions,156,607269,NA,1409.0999999046326,"<p>Here are a few planets you might see:</p><img src=""img/practice1.png"" width=200vw><img src=""img/practice2.png"" width=200vw><img src=""img/practice3.png"" width=200vw>",NA,NA,NA,NA,NA,NA,NA,NA,NA,3,6,"8,2,14,3,9,13,12,6,7,15,5,11,4,10,1"
14347,commdev-instructions,157,616629,NA,1957.5,"<p>Your job as a scientist is to record which direction the winds are moving on each planet.</p><p>There are two types of wind directions:</p><img src=""img/practice1_left.png"" width=200vw><img src=""img/practice1_right.png"" width=200vw>",NA,NA,NA,NA,NA,NA,NA,NA,NA,3,6,"8,2,14,3,9,13,12,6,7,15,5,11,4,10,1"
14347,commdev-instructions,158,624943,NA,3433.3000000715256,"<p>If the winds are moving this way, press the letter <strong>F</strong> on the keyboard as fast as you can.</p><img src=""img/leftwind.png"" width=250vw>",NA,NA,NA,NA,NA,NA,NA,NA,NA,3,6,"8,2,14,3,9,13,12,6,7,15,5,11,4,10,1"
14347,commdev-instructions,159,630534,NA,1095,"<p>If the winds are moving this way, press the letter <strong>J</strong> on the keyboard as fast as you can.</p><img src=""img/rightwind.png"" width=350vw>",NA,NA,NA,NA,NA,NA,NA,NA,NA,3,6,"8,2,14,3,9,13,12,6,7,15,5,11,4,10,1"
14347,commdev-instructions,160,637915,NA,2955.7000000476837,<p>You will have 1 second to respond. Try to respond before the time runs out!,NA,NA,NA,NA,NA,NA,NA,NA,NA,3,6,"8,2,14,3,9,13,12,6,7,15,5,11,4,10,1"
14347,commdev-instructions,161,644114,NA,760.3999999761581,<p>The planets you will visit will look different from each other.</p><p>You should respond <strong>only</strong> based on wind direction.,NA,NA,NA,NA,NA,NA,NA,NA,NA,3,6,"8,2,14,3,9,13,12,6,7,15,5,11,4,10,1"
14347,commdev-instructions,162,653946,NA,4654.200000047684,"<p> Ready to start the practice round? </p><p> Remember, press <strong>F</strong> or <strong>J</strong> depending on the wind direction.<br><img src=""img/categorize_planet_example.png""",NA,NA,NA,NA,NA,NA,NA,NA,NA,3,6,"8,2,14,3,9,13,12,6,7,15,5,11,4,10,1"
14347,commdev-instructions,174,710691,NA,1314,"<p>Great, now try a short practice mission. </p><p> This time, you will have 1 second to respond and you won't know whether you pressed the right or wrong key for each planet.</p>",NA,NA,NA,NA,NA,NA,NA,NA,NA,3,6,"8,2,14,3,9,13,12,6,7,15,5,11,4,10,1"
14347,commdev-image-keyboard-response,175,712059,practice,null,img/practice1_left.png,NA,Number not found in mappings,NA,FALSE,null,f,NA,NA,NA,3,6,"8,2,14,3,9,13,12,6,7,15,5,11,4,10,1"
14347,commdev-image-keyboard-response,176,713315,practice,1119.4000000953674,img/practice2_right.png,NA,Number not found in mappings,NA,TRUE,j,j,NA,NA,NA,3,6,"8,2,14,3,9,13,12,6,7,15,5,11,4,10,1"
14347,commdev-image-keyboard-response,177,714572,practice,615,img/practice3_left.png,NA,Number not found in mappings,NA,TRUE,f,f,NA,NA,NA,3,6,"8,2,14,3,9,13,12,6,7,15,5,11,4,10,1"
14347,commdev-image-keyboard-response,178,715826,practice,382.2000000476837,img/practice4_left.png,NA,Number not found in mappings,NA,TRUE,f,f,NA,NA,NA,3,6,"8,2,14,3,9,13,12,6,7,15,5,11,4,10,1"
14347,commdev-image-keyboard-response,179,717086,practice,24.300000071525574,img/practice2_left.png,NA,Number not found in mappings,NA,FALSE,j,f,NA,NA,NA,3,6,"8,2,14,3,9,13,12,6,7,15,5,11,4,10,1"
14347,commdev-image-keyboard-response,180,718338,practice,4.399999976158142,img/practice4_right.png,NA,Number not found in mappings,NA,TRUE,j,j,NA,NA,NA,3,6,"8,2,14,3,9,13,12,6,7,15,5,11,4,10,1"
14347,commdev-image-keyboard-response,181,719598,practice,823.6000000238419,img/practice1_right.png,NA,Number not found in mappings,NA,TRUE,j,j,NA,NA,NA,3,6,"8,2,14,3,9,13,12,6,7,15,5,11,4,10,1"
14347,commdev-image-keyboard-response,182,720859,practice,619.3999999761581,img/practice4_left.png,NA,Number not found in mappings,NA,FALSE,j,f,NA,NA,NA,3,6,"8,2,14,3,9,13,12,6,7,15,5,11,4,10,1"
14347,commdev-instructions,183,734226,NA,3812.3000000715256,"<p>Great job with the practice round.</p><p>During real missions, you won't know whether you pressed the right or wrong key for each planet.</p><p>But between missions, we will tell you how you did overall.</p>",NA,NA,NA,NA,NA,NA,NA,NA,NA,3,6,"8,2,14,3,9,13,12,6,7,15,5,11,4,10,1"
14347,commdev-instructions,184,744047,NA,1577,<p>Try your best! You will be paid a bonus based on how many correct responses you make!</p><p>Responses that are too slow will not count toward your bonus.</p>,NA,NA,NA,NA,NA,NA,NA,NA,NA,3,6,"8,2,14,3,9,13,12,6,7,15,5,11,4,10,1"
14347,commdev-instructions,185,750763,NA,508.89999997615814,"<p>You are almost ready to start the real game.</p><p> First, we are going to ask you some questions about how the game works.</p>",NA,NA,NA,NA,NA,NA,NA,NA,NA,3,6,"8,2,14,3,9,13,12,6,7,15,5,11,4,10,1"
14347,commdev-instructions,194,832079,NA,3326.3000000715256,"<p> Nice work! It is now time to start the real game.<p></p>You will go on two missions to record wind directions of different planets.<p></p>Each one will take about 5 minutes. You will get to take a break between missions.<p><p> Remember, press <strong>F</strong> or <strong>J</strong> depending on the wind direction. Good luck!<br><img src=""img/categorize_planet_example.png""",NA,NA,NA,NA,NA,NA,NA,NA,NA,3,6,"8,2,14,3,9,13,12,6,7,15,5,11,4,10,1"
14347,commdev-image-keyboard-response,196,836022,learnblock1,1207,img/planet14_right.png,14,Community 1,NA,TRUE,j,j,NA,NA,NA,3,6,"8,2,14,3,9,13,12,6,7,15,5,11,4,10,1"
14347,commdev-image-keyboard-response,197,837280,learnblock1,536.1000000238419,img/planet3_left.png,3,Community 1,NA,TRUE,f,f,NA,NA,NA,3,6,"8,2,14,3,9,13,12,6,7,15,5,11,4,10,1"
14347,commdev-image-keyboard-response,198,838534,learnblock1,null,img/planet14_left.png,14,Community 1,NA,FALSE,null,f,NA,NA,NA,3,6,"8,2,14,3,9,13,12,6,7,15,5,11,4,10,1"
14347,commdev-image-keyboard-response,199,839793,learnblock1,1,img/planet3_left.png,3,Community 1,NA,TRUE,f,f,NA,NA,NA,3,6,"8,2,14,3,9,13,12,6,7,15,5,11,4,10,1"
14347,commdev-image-keyboard-response,200,841047,learnblock1,933,img/planet14_right.png,14,Community 1,NA,TRUE,j,j,NA,NA,NA,3,6,"8,2,14,3,9,13,12,6,7,15,5,11,4,10,1"
14347,commdev-image-keyboard-response,201,842301,learnblock1,375.10000002384186,img/planet3_left.png,3,Community 1,NA,TRUE,f,f,NA,NA,NA,3,6,"8,2,14,3,9,13,12,6,7,15,5,11,4,10,1"
14347,commdev-image-keyboard-response,202,843561,learnblock1,609.2000000476837,img/planet13_right.png,13,Community 2,NA,TRUE,j,j,NA,NA,NA,3,6,"8,2,14,3,9,13,12,6,7,15,5,11,4,10,1"
14347,commdev-image-keyboard-response,203,844814,learnblock1,709.2999999523163,img/planet7_left.png,7,Community 2,NA,TRUE,f,f,NA,NA,NA,3,6,"8,2,14,3,9,13,12,6,7,15,5,11,4,10,1"
14347,commdev-image-keyboard-response,204,846072,learnblock1,887.8000000715256,img/planet6_left.png,6,Community 2,NA,FALSE,j,f,NA,NA,NA,3,6,"8,2,14,3,9,13,12,6,7,15,5,11,4,10,1"
14347,commdev-image-keyboard-response,205,847328,learnblock1,38.299999952316284,img/planet11_left.png,11,Community 3,NA,TRUE,f,f,NA,NA,NA,3,6,"8,2,14,3,9,13,12,6,7,15,5,11,4,10,1"
14347,commdev-image-keyboard-response,206,848582,learnblock1,790,img/planet10_left.png,10,Community 3,NA,TRUE,f,f,NA,NA,NA,3,6,"8,2,14,3,9,13,12,6,7,15,5,11,4,10,1"
14347,commdev-image-keyboard-response,207,849841,learnblock1,1080.3999999761581,img/planet5_left.png,5,Community 3,NA,TRUE,f,f,NA,NA,NA,3,6,"8,2,14,3,9,13,12,6,7,15,5,11,4,10,1"
14347,commdev-image-keyboard-response,208,851095,learnblock1,916.7000000476837,img/planet1_right.png,1,Community 3,NA,TRUE,j,j,NA,NA,NA,3,6,"8,2,14,3,9,13,12,6,7,15,5,11,4,10,1"
14347,commdev-image-keyboard-response,209,852349,learnblock1,726.5,img/planet11_left.png,11,Community 3,NA,TRUE,f,f,NA,NA,NA,3,6,"8,2,14,3,9,13,12,6,7,15,5,11,4,10,1"
14347,commdev-image-keyboard-response,210,853609,learnblock1,544.8000000715256,img/planet10_right.png,10,Community 3,NA,TRUE,j,j,NA,NA,NA,3,6,"8,2,14,3,9,13,12,6,7,15,5,11,4,10,1"
14347,commdev-image-keyboard-response,211,854863,learnblock1,541.2000000476837,img/planet1_left.png,1,Community 3,NA,TRUE,f,f,NA,NA,NA,3,6,"8,2,14,3,9,13,12,6,7,15,5,11,4,10,1"
14347,commdev-image-keyboard-response,212,856117,learnblock1,607.2000000476837,img/planet5_right.png,5,Community 3,NA,TRUE,j,j,NA,NA,NA,3,6,"8,2,14,3,9,13,12,6,7,15,5,11,4,10,1"
14347,commdev-image-keyboard-response,213,857376,learnblock1,728.6000000238419,img/planet10_right.png,10,Community 3,NA,FALSE,f,j,NA,NA,NA,3,6,"8,2,14,3,9,13,12,6,7,15,5,11,4,10,1"
14347,commdev-image-keyboard-response,214,858630,learnblock1,1205.8000000715256,img/planet11_left.png,11,Community 3,NA,TRUE,f,f,NA,NA,NA,3,6,"8,2,14,3,9,13,12,6,7,15,5,11,4,10,1"
14347,commdev-image-keyboard-response,215,859885,learnblock1,839.8999999761581,img/planet1_right.png,1,Community 3,NA,TRUE,j,j,NA,NA,NA,3,6,"8,2,14,3,9,13,12,6,7,15,5,11,4,10,1"
14347,commdev-image-keyboard-response,216,861144,learnblock1,832.5,img/planet5_right.png,5,Community 3,NA,FALSE,f,j,NA,NA,NA,3,6,"8,2,14,3,9,13,12,6,7,15,5,11,4,10,1"
14347,commdev-image-keyboard-response,217,862398,learnblock1,317.60000002384186,img/planet10_left.png,10,Community 3,NA,FALSE,j,f,NA,NA,NA,3,6,"8,2,14,3,9,13,12,6,7,15,5,11,4,10,1"
14347,commdev-image-keyboard-response,218,863658,learnblock1,959.8999999761581,img/planet1_right.png,1,Community 3,NA,TRUE,j,j,NA,NA,NA,3,6,"8,2,14,3,9,13,12,6,7,15,5,11,4,10,1"
14347,commdev-image-keyboard-response,219,864912,learnblock1,1147.8000000715256,img/planet5_right.png,5,Community 3,NA,TRUE,j,j,NA,NA,NA,3,6,"8,2,14,3,9,13,12,6,7,15,5,11,4,10,1"
14347,commdev-image-keyboard-response,220,866166,learnblock1,749.1999999284744,img/planet1_left.png,1,Community 3,NA,TRUE,f,f,NA,NA,NA,3,6,"8,2,14,3,9,13,12,6,7,15,5,11,4,10,1"
14347,commdev-image-keyboard-response,221,867425,learnblock1,167.70000004768372,img/planet10_left.png,10,Community 3,NA,TRUE,f,f,NA,NA,NA,3,6,"8,2,14,3,9,13,12,6,7,15,5,11,4,10,1"
14347,commdev-image-keyboard-response,222,868678,learnblock1,1052.2000000476837,img/planet1_right.png,1,Community 3,NA,TRUE,j,j,NA,NA,NA,3,6,"8,2,14,3,9,13,12,6,7,15,5,11,4,10,1"
14347,commdev-image-keyboard-response,223,869933,learnblock1,607.3000000715256,img/planet10_left.png,10,Community 3,NA,TRUE,f,f,NA,NA,NA,3,6,"8,2,14,3,9,13,12,6,7,15,5,11,4,10,1"
14347,commdev-image-keyboard-response,224,871189,learnblock1,536.3000000715256,img/planet4_left.png,4,Community 3,NA,FALSE,j,f,NA,NA,NA,3,6,"8,2,14,3,9,13,12,6,7,15,5,11,4,10,1"
14347,commdev-image-keyboard-response,225,872449,learnblock1,711.8999999761581,img/planet11_right.png,11,Community 3,NA,FALSE,f,j,NA,NA,NA,3,6,"8,2,14,3,9,13,12,6,7,15,5,11,4,10,1"
14347,commdev-image-keyboard-response,226,873704,learnblock1,1236.3999999761581,img/planet4_right.png,4,Community 3,NA,TRUE,j,j,NA,NA,NA,3,6,"8,2,14,3,9,13,12,6,7,15,5,11,4,10,1"
14347,commdev-image-keyboard-response,227,874961,learnblock1,1197.8999999761581,img/planet10_right.png,10,Community 3,NA,FALSE,f,j,NA,NA,NA,3,6,"8,2,14,3,9,13,12,6,7,15,5,11,4,10,1"
14347,commdev-image-keyboard-response,228,876214,learnblock1,1068,img/planet11_right.png,11,Community 3,NA,TRUE,j,j,NA,NA,NA,3,6,"8,2,14,3,9,13,12,6,7,15,5,11,4,10,1"
14347,commdev-image-keyboard-response,229,877473,learnblock1,751.2999999523163,img/planet1_left.png,1,Community 3,NA,TRUE,f,f,NA,NA,NA,3,6,"8,2,14,3,9,13,12,6,7,15,5,11,4,10,1"
14347,commdev-image-keyboard-response,230,878726,learnblock1,180.39999997615814,img/planet11_right.png,11,Community 3,NA,FALSE,f,j,NA,NA,NA,3,6,"8,2,14,3,9,13,12,6,7,15,5,11,4,10,1"
14347,commdev-image-keyboard-response,231,879981,learnblock1,1095.5,img/planet4_right.png,4,Community 3,NA,TRUE,j,j,NA,NA,NA,3,6,"8,2,14,3,9,13,12,6,7,15,5,11,4,10,1"
14347,commdev-image-keyboard-response,232,881237,learnblock1,816.2999999523163,img/planet5_right.png,5,Community 3,NA,FALSE,f,j,NA,NA,NA,3,6,"8,2,14,3,9,13,12,6,7,15,5,11,4,10,1"
14347,commdev-image-keyboard-response,233,882495,learnblock1,680.5999999046326,img/planet1_left.png,1,Community 3,NA,TRUE,f,f,NA,NA,NA,3,6,"8,2,14,3,9,13,12,6,7,15,5,11,4,10,1"
14347,commdev-image-keyboard-response,234,883749,learnblock1,1182,img/planet4_right.png,4,Community 3,NA,FALSE,f,j,NA,NA,NA,3,6,"8,2,14,3,9,13,12,6,7,15,5,11,4,10,1"
14347,commdev-image-keyboard-response,235,885005,learnblock1,1032.3000000715256,img/planet1_left.png,1,Community 3,NA,FALSE,j,f,NA,NA,NA,3,6,"8,2,14,3,9,13,12,6,7,15,5,11,4,10,1"
14347,commdev-image-keyboard-response,236,886262,learnblock1,136.5,img/planet5_right.png,5,Community 3,NA,FALSE,f,j,NA,NA,NA,3,6,"8,2,14,3,9,13,12,6,7,15,5,11,4,10,1"
14347,commdev-image-keyboard-response,237,887516,learnblock1,null,img/planet9_right.png,9,Community 1,NA,FALSE,null,j,NA,NA,NA,3,6,"8,2,14,3,9,13,12,6,7,15,5,11,4,10,1"
14347,commdev-image-keyboard-response,238,888776,learnblock1,1096.2999999523163,img/planet14_right.png,14,Community 1,NA,FALSE,f,j,NA,NA,NA,3,6,"8,2,14,3,9,13,12,6,7,15,5,11,4,10,1"
14347,commdev-image-keyboard-response,239,890033,learnblock1,253,img/planet9_right.png,9,Community 1,NA,TRUE,j,j,NA,NA,NA,3,6,"8,2,14,3,9,13,12,6,7,15,5,11,4,10,1"
14347,commdev-image-keyboard-response,240,891295,learnblock1,779.7000000476837,img/planet14_right.png,14,Community 1,NA,TRUE,j,j,NA,NA,NA,3,6,"8,2,14,3,9,13,12,6,7,15,5,11,4,10,1"
14347,commdev-image-keyboard-response,241,892549,learnblock1,685.7999999523163,img/planet2_right.png,2,Community 1,NA,FALSE,f,j,NA,NA,NA,3,6,"8,2,14,3,9,13,12,6,7,15,5,11,4,10,1"
14347,commdev-image-keyboard-response,242,893808,learnblock1,808.1000000238419,img/planet8_left.png,8,Community 1,NA,TRUE,f,f,NA,NA,NA,3,6,"8,2,14,3,9,13,12,6,7,15,5,11,4,10,1"
14347,commdev-image-keyboard-response,243,895062,learnblock1,308.89999997615814,img/planet3_left.png,3,Community 1,NA,FALSE,j,f,NA,NA,NA,3,6,"8,2,14,3,9,13,12,6,7,15,5,11,4,10,1"
14347,commdev-image-keyboard-response,244,896316,learnblock1,134.59999990463257,img/planet13_right.png,13,Community 2,NA,TRUE,j,j,NA,NA,NA,3,6,"8,2,14,3,9,13,12,6,7,15,5,11,4,10,1"
14347,commdev-image-keyboard-response,245,897576,learnblock1,184.29999995231628,img/planet3_left.png,3,Community 1,NA,FALSE,j,f,NA,NA,NA,3,6,"8,2,14,3,9,13,12,6,7,15,5,11,4,10,1"
14347,commdev-image-keyboard-response,246,898830,learnblock1,780.8999999761581,img/planet2_right.png,2,Community 1,NA,TRUE,j,j,NA,NA,NA,3,6,"8,2,14,3,9,13,12,6,7,15,5,11,4,10,1"
14347,commdev-image-keyboard-response,247,900084,learnblock1,710.5999999046326,img/planet14_left.png,14,Community 1,NA,TRUE,f,f,NA,NA,NA,3,6,"8,2,14,3,9,13,12,6,7,15,5,11,4,10,1"
14347,commdev-image-keyboard-response,248,901343,learnblock1,752.7999999523163,img/planet9_right.png,9,Community 1,NA,TRUE,j,j,NA,NA,NA,3,6,"8,2,14,3,9,13,12,6,7,15,5,11,4,10,1"
14347,commdev-image-keyboard-response,249,902597,learnblock1,533.4000000953674,img/planet5_left.png,5,Community 3,NA,TRUE,f,f,NA,NA,NA,3,6,"8,2,14,3,9,13,12,6,7,15,5,11,4,10,1"
14347,commdev-image-keyboard-response,250,903857,learnblock1,359.10000002384186,img/planet1_right.png,1,Community 3,NA,TRUE,j,j,NA,NA,NA,3,6,"8,2,14,3,9,13,12,6,7,15,5,11,4,10,1"
14347,commdev-image-keyboard-response,251,905120,learnblock1,235.70000004768372,img/planet11_left.png,11,Community 3,NA,TRUE,f,f,NA,NA,NA,3,6,"8,2,14,3,9,13,12,6,7,15,5,11,4,10,1"
14347,commdev-image-keyboard-response,252,906376,learnblock1,884.2000000476837,img/planet1_left.png,1,Community 3,NA,TRUE,f,f,NA,NA,NA,3,6,"8,2,14,3,9,13,12,6,7,15,5,11,4,10,1"
14347,commdev-image-keyboard-response,253,907632,learnblock1,636.5,img/planet5_right.png,5,Community 3,NA,TRUE,j,j,NA,NA,NA,3,6,"8,2,14,3,9,13,12,6,7,15,5,11,4,10,1"
14347,commdev-image-keyboard-response,254,908884,learnblock1,660.2999999523163,img/planet10_left.png,10,Community 3,NA,TRUE,f,f,NA,NA,NA,3,6,"8,2,14,3,9,13,12,6,7,15,5,11,4,10,1"
14347,commdev-image-keyboard-response,255,910143,learnblock1,544.7000000476837,img/planet11_left.png,11,Community 3,NA,FALSE,j,f,NA,NA,NA,3,6,"8,2,14,3,9,13,12,6,7,15,5,11,4,10,1"
14347,commdev-image-keyboard-response,256,911397,learnblock1,613,img/planet4_left.png,4,Community 3,NA,TRUE,f,f,NA,NA,NA,3,6,"8,2,14,3,9,13,12,6,7,15,5,11,4,10,1"
14347,commdev-image-keyboard-response,257,912652,learnblock1,751,img/planet10_left.png,10,Community 3,NA,FALSE,j,f,NA,NA,NA,3,6,"8,2,14,3,9,13,12,6,7,15,5,11,4,10,1"
14347,commdev-image-keyboard-response,258,913913,learnblock1,831.7999999523163,img/planet4_right.png,4,Community 3,NA,FALSE,f,j,NA,NA,NA,3,6,"8,2,14,3,9,13,12,6,7,15,5,11,4,10,1"
14347,commdev-image-keyboard-response,259,915174,learnblock1,1091.5,img/planet11_left.png,11,Community 3,NA,FALSE,j,f,NA,NA,NA,3,6,"8,2,14,3,9,13,12,6,7,15,5,11,4,10,1"
14347,commdev-image-keyboard-response,260,916427,learnblock1,126,img/planet1_left.png,1,Community 3,NA,TRUE,f,f,NA,NA,NA,3,6,"8,2,14,3,9,13,12,6,7,15,5,11,4,10,1"
14347,commdev-image-keyboard-response,261,917684,learnblock1,984.6000000238419,img/planet11_left.png,11,Community 3,NA,TRUE,f,f,NA,NA,NA,3,6,"8,2,14,3,9,13,12,6,7,15,5,11,4,10,1"
14347,commdev-image-keyboard-response,262,918944,learnblock1,832.2000000476837,img/planet4_right.png,4,Community 3,NA,TRUE,j,j,NA,NA,NA,3,6,"8,2,14,3,9,13,12,6,7,15,5,11,4,10,1"
14347,commdev-image-keyboard-response,263,920203,learnblock1,443.5,img/planet11_right.png,11,Community 3,NA,FALSE,f,j,NA,NA,NA,3,6,"8,2,14,3,9,13,12,6,7,15,5,11,4,10,1"
14347,commdev-image-keyboard-response,264,921462,learnblock1,1009,img/planet6_left.png,6,Community 2,NA,TRUE,f,f,NA,NA,NA,3,6,"8,2,14,3,9,13,12,6,7,15,5,11,4,10,1"
14347,commdev-image-keyboard-response,265,922716,learnblock1,797.5,img/planet7_left.png,7,Community 2,NA,FALSE,j,f,NA,NA,NA,3,6,"8,2,14,3,9,13,12,6,7,15,5,11,4,10,1"
14347,commdev-image-keyboard-response,266,923972,learnblock1,23.5,img/planet15_left.png,15,Community 2,NA,TRUE,f,f,NA,NA,NA,3,6,"8,2,14,3,9,13,12,6,7,15,5,11,4,10,1"
14347,commdev-image-keyboard-response,267,925230,learnblock1,984.2000000476837,img/planet13_left.png,13,Community 2,NA,TRUE,f,f,NA,NA,NA,3,6,"8,2,14,3,9,13,12,6,7,15,5,11,4,10,1"
14347,commdev-image-keyboard-response,268,926484,learnblock1,885.8999999761581,img/planet7_right.png,7,Community 2,NA,TRUE,j,j,NA,NA,NA,3,6,"8,2,14,3,9,13,12,6,7,15,5,11,4,10,1"
14347,commdev-image-keyboard-response,269,927743,learnblock1,784.1999999284744,img/planet13_right.png,13,Community 2,NA,FALSE,f,j,NA,NA,NA,3,6,"8,2,14,3,9,13,12,6,7,15,5,11,4,10,1"
14347,commdev-image-keyboard-response,270,928997,learnblock1,52.39999997615814,img/planet12_left.png,12,Community 2,NA,FALSE,j,f,NA,NA,NA,3,6,"8,2,14,3,9,13,12,6,7,15,5,11,4,10,1"
14347,commdev-image-keyboard-response,271,930251,learnblock1,822.3999999761581,img/planet6_right.png,6,Community 2,NA,TRUE,j,j,NA,NA,NA,3,6,"8,2,14,3,9,13,12,6,7,15,5,11,4,10,1"
14347,commdev-image-keyboard-response,272,931511,learnblock1,1048.5,img/planet15_right.png,15,Community 2,NA,TRUE,j,j,NA,NA,NA,3,6,"8,2,14,3,9,13,12,6,7,15,5,11,4,10,1"
14347,commdev-image-keyboard-response,273,932765,learnblock1,908.8000000715256,img/planet12_right.png,12,Community 2,NA,FALSE,f,j,NA,NA,NA,3,6,"8,2,14,3,9,13,12,6,7,15,5,11,4,10,1"
14347,commdev-image-keyboard-response,274,934024,learnblock1,174.89999997615814,img/planet15_left.png,15,Community 2,NA,FALSE,j,f,NA,NA,NA,3,6,"8,2,14,3,9,13,12,6,7,15,5,11,4,10,1"
14347,commdev-image-keyboard-response,275,935283,learnblock1,null,img/planet7_left.png,7,Community 2,NA,FALSE,null,f,NA,NA,NA,3,6,"8,2,14,3,9,13,12,6,7,15,5,11,4,10,1"
14347,commdev-image-keyboard-response,276,936539,learnblock1,216.39999997615814,img/planet15_left.png,15,Community 2,NA,TRUE,f,f,NA,NA,NA,3,6,"8,2,14,3,9,13,12,6,7,15,5,11,4,10,1"
14347,commdev-image-keyboard-response,277,937797,learnblock1,632.1999999284744,img/planet7_right.png,7,Community 2,NA,FALSE,f,j,NA,NA,NA,3,6,"8,2,14,3,9,13,12,6,7,15,5,11,4,10,1"
14347,commdev-image-keyboard-response,278,939051,learnblock1,38,img/planet13_right.png,13,Community 2,NA,TRUE,j,j,NA,NA,NA,3,6,"8,2,14,3,9,13,12,6,7,15,5,11,4,10,1"
14347,commdev-image-keyboard-response,279,940307,learnblock1,152.39999997615814,img/planet12_right.png,12,Community 2,NA,TRUE,j,j,NA,NA,NA,3,6,"8,2,14,3,9,13,12,6,7,15,5,11,4,10,1"
14347,commdev-image-keyboard-response,280,941565,learnblock1,1031.7999999523163,img/planet13_right.png,13,Community 2,NA,TRUE,j,j,NA,NA,NA,3,6,"8,2,14,3,9,13,12,6,7,15,5,11,4,10,1"
14347,commdev-image-keyboard-response,281,942819,learnblock1,726.6000000238419,img/planet3_right.png,3,Community 1,NA,TRUE,j,j,NA,NA,NA,3,6,"8,2,14,3,9,13,12,6,7,15,5,11,4,10,1"
14347,commdev-image-keyboard-response,282,944075,learnblock1,856.5,img/planet13_right.png,13,Community 2,NA,TRUE,j,j,NA,NA,NA,3,6,"8,2,14,3,9,13,12,6,7,15,5,11,4,10,1"
14347,commdev-image-keyboard-response,283,945331,learnblock1,null,img/planet12_left.png,12,Community 2,NA,FALSE,null,f,NA,NA,NA,3,6,"8,2,14,3,9,13,12,6,7,15,5,11,4,10,1"
14347,commdev-image-keyboard-response,284,946592,learnblock1,0.20000004768371582,img/planet7_right.png,7,Community 2,NA,TRUE,j,j,NA,NA,NA,3,6,"8,2,14,3,9,13,12,6,7,15,5,11,4,10,1"
14347,commdev-image-keyboard-response,285,947856,learnblock1,67.5,img/planet13_left.png,13,Community 2,NA,TRUE,f,f,NA,NA,NA,3,6,"8,2,14,3,9,13,12,6,7,15,5,11,4,10,1"
14347,commdev-image-keyboard-response,286,949114,learnblock1,1179.6000000238419,img/planet3_right.png,3,Community 1,NA,FALSE,f,j,NA,NA,NA,3,6,"8,2,14,3,9,13,12,6,7,15,5,11,4,10,1"
14347,commdev-image-keyboard-response,287,950371,learnblock1,409.10000002384186,img/planet8_right.png,8,Community 1,NA,TRUE,j,j,NA,NA,NA,3,6,"8,2,14,3,9,13,12,6,7,15,5,11,4,10,1"
14347,commdev-image-keyboard-response,288,951630,learnblock1,null,img/planet3_right.png,3,Community 1,NA,FALSE,null,j,NA,NA,NA,3,6,"8,2,14,3,9,13,12,6,7,15,5,11,4,10,1"
14347,commdev-image-keyboard-response,289,952887,learnblock1,44.700000047683716,img/planet14_left.png,14,Community 1,NA,TRUE,f,f,NA,NA,NA,3,6,"8,2,14,3,9,13,12,6,7,15,5,11,4,10,1"
14347,commdev-image-keyboard-response,290,954150,learnblock1,843.7000000476837,img/planet2_left.png,2,Community 1,NA,TRUE,f,f,NA,NA,NA,3,6,"8,2,14,3,9,13,12,6,7,15,5,11,4,10,1"
14347,commdev-image-keyboard-response,291,955407,learnblock1,805.3000000715256,img/planet8_left.png,8,Community 1,NA,TRUE,f,f,NA,NA,NA,3,6,"8,2,14,3,9,13,12,6,7,15,5,11,4,10,1"
14347,commdev-image-keyboard-response,292,956669,learnblock1,843.7000000476837,img/planet3_right.png,3,Community 1,NA,FALSE,f,j,NA,NA,NA,3,6,"8,2,14,3,9,13,12,6,7,15,5,11,4,10,1"
14347,commdev-image-keyboard-response,293,957922,learnblock1,590,img/planet2_left.png,2,Community 1,NA,FALSE,j,f,NA,NA,NA,3,6,"8,2,14,3,9,13,12,6,7,15,5,11,4,10,1"
14347,commdev-image-keyboard-response,294,959178,learnblock1,88.39999997615814,img/planet14_right.png,14,Community 1,NA,FALSE,f,j,NA,NA,NA,3,6,"8,2,14,3,9,13,12,6,7,15,5,11,4,10,1"
14347,commdev-image-keyboard-response,295,960436,learnblock1,1.0999999046325684,img/planet8_right.png,8,Community 1,NA,TRUE,j,j,NA,NA,NA,3,6,"8,2,14,3,9,13,12,6,7,15,5,11,4,10,1"
14347,commdev-image-keyboard-response,296,961692,learnblock1,86.60000002384186,img/planet14_left.png,14,Community 1,NA,FALSE,j,f,NA,NA,NA,3,6,"8,2,14,3,9,13,12,6,7,15,5,11,4,10,1"
14347,commdev-image-keyboard-response,297,962950,learnblock1,223.10000002384186,img/planet3_left.png,3,Community 1,NA,FALSE,j,f,NA,NA,NA,3,6,"8,2,14,3,9,13,12,6,7,15,5,11,4,10,1"
14347,commdev-image-keyboard-response,298,964203,learnblock1,101,img/planet13_left.png,13,Community 2,NA,FALSE,j,f,NA,NA,NA,3,6,"8,2,14,3,9,13,12,6,7,15,5,11,4,10,1"
14347,commdev-image-keyboard-response,299,965459,learnblock1,831.1000000238419,img/planet3_left.png,3,Community 1,NA,FALSE,j,f,NA,NA,NA,3,6,"8,2,14,3,9,13,12,6,7,15,5,11,4,10,1"
14347,commdev-image-keyboard-response,300,966717,learnblock1,null,img/planet14_left.png,14,Community 1,NA,FALSE,null,f,NA,NA,NA,3,6,"8,2,14,3,9,13,12,6,7,15,5,11,4,10,1"
14347,commdev-image-keyboard-response,301,967970,learnblock1,757.5,img/planet3_left.png,3,Community 1,NA,FALSE,j,f,NA,NA,NA,3,6,"8,2,14,3,9,13,12,6,7,15,5,11,4,10,1"
14347,commdev-image-keyboard-response,302,969231,learnblock1,760.3999999761581,img/planet8_right.png,8,Community 1,NA,FALSE,f,j,NA,NA,NA,3,6,"8,2,14,3,9,13,12,6,7,15,5,11,4,10,1"
14347,commdev-image-keyboard-response,303,970489,learnblock1,null,img/planet9_left.png,9,Community 1,NA,FALSE,null,f,NA,NA,NA,3,6,"8,2,14,3,9,13,12,6,7,15,5,11,4,10,1"
14347,commdev-image-keyboard-response,304,971750,learnblock1,257.09999990463257,img/planet8_right.png,8,Community 1,NA,TRUE,j,j,NA,NA,NA,3,6,"8,2,14,3,9,13,12,6,7,15,5,11,4,10,1"
14347,commdev-image-keyboard-response,305,973006,learnblock1,148.39999997615814,img/planet14_right.png,14,Community 1,NA,FALSE,f,j,NA,NA,NA,3,6,"8,2,14,3,9,13,12,6,7,15,5,11,4,10,1"
14347,commdev-image-keyboard-response,306,974269,learnblock1,964,img/planet8_left.png,8,Community 1,NA,FALSE,j,f,NA,NA,NA,3,6,"8,2,14,3,9,13,12,6,7,15,5,11,4,10,1"
14347,commdev-image-keyboard-response,307,975527,learnblock1,5.299999952316284,img/planet3_left.png,3,Community 1,NA,TRUE,f,f,NA,NA,NA,3,6,"8,2,14,3,9,13,12,6,7,15,5,11,4,10,1"
14347,commdev-image-keyboard-response,308,976788,learnblock1,67.5,img/planet13_right.png,13,Community 2,NA,FALSE,f,j,NA,NA,NA,3,6,"8,2,14,3,9,13,12,6,7,15,5,11,4,10,1"
14347,commdev-image-keyboard-response,309,978042,learnblock1,645.7999999523163,img/planet15_left.png,15,Community 2,NA,FALSE,j,f,NA,NA,NA,3,6,"8,2,14,3,9,13,12,6,7,15,5,11,4,10,1"
14347,commdev-image-keyboard-response,310,979302,learnblock1,87.70000004768372,img/planet13_left.png,13,Community 2,NA,TRUE,f,f,NA,NA,NA,3,6,"8,2,14,3,9,13,12,6,7,15,5,11,4,10,1"
14347,commdev-image-keyboard-response,311,980554,learnblock1,243.89999997615814,img/planet15_right.png,15,Community 2,NA,FALSE,f,j,NA,NA,NA,3,6,"8,2,14,3,9,13,12,6,7,15,5,11,4,10,1"
14347,commdev-image-keyboard-response,312,981814,learnblock1,392.40000009536743,img/planet12_right.png,12,Community 2,NA,TRUE,j,j,NA,NA,NA,3,6,"8,2,14,3,9,13,12,6,7,15,5,11,4,10,1"
14347,commdev-image-keyboard-response,313,983073,learnblock1,171.80000007152557,img/planet6_right.png,6,Community 2,NA,TRUE,j,j,NA,NA,NA,3,6,"8,2,14,3,9,13,12,6,7,15,5,11,4,10,1"
14347,commdev-image-keyboard-response,314,984334,learnblock1,null,img/planet7_left.png,7,Community 2,NA,FALSE,null,f,NA,NA,NA,3,6,"8,2,14,3,9,13,12,6,7,15,5,11,4,10,1"
14347,commdev-image-keyboard-response,315,985588,learnblock1,956.3000000715256,img/planet6_left.png,6,Community 2,NA,FALSE,j,f,NA,NA,NA,3,6,"8,2,14,3,9,13,12,6,7,15,5,11,4,10,1"
14347,commdev-image-keyboard-response,316,986846,learnblock1,429.7000000476837,img/planet11_right.png,11,Community 3,NA,FALSE,f,j,NA,NA,NA,3,6,"8,2,14,3,9,13,12,6,7,15,5,11,4,10,1"
14347,commdev-image-keyboard-response,317,988108,learnblock1,755.5,img/planet1_right.png,1,Community 3,NA,FALSE,f,j,NA,NA,NA,3,6,"8,2,14,3,9,13,12,6,7,15,5,11,4,10,1"
14347,commdev-image-keyboard-response,318,989361,learnblock1,814.2000000476837,img/planet5_left.png,5,Community 3,NA,FALSE,j,f,NA,NA,NA,3,6,"8,2,14,3,9,13,12,6,7,15,5,11,4,10,1"
14347,commdev-image-keyboard-response,319,990618,learnblock1,null,img/planet1_right.png,1,Community 3,NA,FALSE,null,j,NA,NA,NA,3,6,"8,2,14,3,9,13,12,6,7,15,5,11,4,10,1"
14347,commdev-image-keyboard-response,320,991869,learnblock1,743.7999999523163,img/planet10_left.png,10,Community 3,NA,FALSE,j,f,NA,NA,NA,3,6,"8,2,14,3,9,13,12,6,7,15,5,11,4,10,1"
14347,commdev-image-keyboard-response,321,993123,learnblock1,13,img/planet1_left.png,1,Community 3,NA,TRUE,f,f,NA,NA,NA,3,6,"8,2,14,3,9,13,12,6,7,15,5,11,4,10,1"
14347,commdev-image-keyboard-response,322,994377,learnblock1,710.2999999523163,img/planet4_right.png,4,Community 3,NA,TRUE,j,j,NA,NA,NA,3,6,"8,2,14,3,9,13,12,6,7,15,5,11,4,10,1"
14347,commdev-image-keyboard-response,323,995629,learnblock1,1144.5,img/planet1_left.png,1,Community 3,NA,TRUE,f,f,NA,NA,NA,3,6,"8,2,14,3,9,13,12,6,7,15,5,11,4,10,1"
14347,commdev-image-keyboard-response,324,996885,learnblock1,null,img/planet11_left.png,11,Community 3,NA,FALSE,null,f,NA,NA,NA,3,6,"8,2,14,3,9,13,12,6,7,15,5,11,4,10,1"
14347,commdev-image-keyboard-response,325,998137,learnblock1,1028.8999999761581,img/planet4_right.png,4,Community 3,NA,FALSE,f,j,NA,NA,NA,3,6,"8,2,14,3,9,13,12,6,7,15,5,11,4,10,1"
14347,commdev-image-keyboard-response,326,999393,learnblock1,104.10000002384186,img/planet10_right.png,10,Community 3,NA,TRUE,j,j,NA,NA,NA,3,6,"8,2,14,3,9,13,12,6,7,15,5,11,4,10,1"
14347,commdev-image-keyboard-response,327,1000646,learnblock1,744.3999999761581,img/planet11_right.png,11,Community 3,NA,TRUE,j,j,NA,NA,NA,3,6,"8,2,14,3,9,13,12,6,7,15,5,11,4,10,1"
14347,commdev-image-keyboard-response,328,1001905,learnblock1,827.5999999046326,img/planet1_right.png,1,Community 3,NA,TRUE,j,j,NA,NA,NA,3,6,"8,2,14,3,9,13,12,6,7,15,5,11,4,10,1"
14347,commdev-image-keyboard-response,329,1003161,learnblock1,832.4000000953674,img/planet4_right.png,4,Community 3,NA,TRUE,j,j,NA,NA,NA,3,6,"8,2,14,3,9,13,12,6,7,15,5,11,4,10,1"
14347,commdev-image-keyboard-response,330,1004413,learnblock1,744.6999999284744,img/planet10_right.png,10,Community 3,NA,TRUE,j,j,NA,NA,NA,3,6,"8,2,14,3,9,13,12,6,7,15,5,11,4,10,1"
14347,commdev-image-keyboard-response,331,1005673,learnblock1,1188,img/planet4_right.png,4,Community 3,NA,TRUE,j,j,NA,NA,NA,3,6,"8,2,14,3,9,13,12,6,7,15,5,11,4,10,1"
14347,commdev-image-keyboard-response,332,1006933,learnblock1,1064.5,img/planet1_right.png,1,Community 3,NA,TRUE,j,j,NA,NA,NA,3,6,"8,2,14,3,9,13,12,6,7,15,5,11,4,10,1"
14347,commdev-image-keyboard-response,333,1008186,learnblock1,1156.6000000238419,img/planet4_left.png,4,Community 3,NA,TRUE,f,f,NA,NA,NA,3,6,"8,2,14,3,9,13,12,6,7,15,5,11,4,10,1"
14347,commdev-image-keyboard-response,334,1009444,learnblock1,1014.8000000715256,img/planet5_right.png,5,Community 3,NA,FALSE,f,j,NA,NA,NA,3,6,"8,2,14,3,9,13,12,6,7,15,5,11,4,10,1"
14347,commdev-image-keyboard-response,335,1010698,learnblock1,141.10000002384186,img/planet1_left.png,1,Community 3,NA,FALSE,j,f,NA,NA,NA,3,6,"8,2,14,3,9,13,12,6,7,15,5,11,4,10,1"
14347,commdev-image-keyboard-response,336,1011954,learnblock1,767.5,img/planet5_right.png,5,Community 3,NA,TRUE,j,j,NA,NA,NA,3,6,"8,2,14,3,9,13,12,6,7,15,5,11,4,10,1"
14347,commdev-image-keyboard-response,337,1013209,learnblock1,991.4000000953674,img/planet4_left.png,4,Community 3,NA,FALSE,j,f,NA,NA,NA,3,6,"8,2,14,3,9,13,12,6,7,15,5,11,4,10,1"
14347,commdev-image-keyboard-response,338,1014469,learnblock1,1184.5,img/planet1_left.png,1,Community 3,NA,TRUE,f,f,NA,NA,NA,3,6,"8,2,14,3,9,13,12,6,7,15,5,11,4,10,1"
14347,commdev-image-keyboard-response,339,1015721,learnblock1,764.1000000238419,img/planet4_right.png,4,Community 3,NA,TRUE,j,j,NA,NA,NA,3,6,"8,2,14,3,9,13,12,6,7,15,5,11,4,10,1"
14347,commdev-image-keyboard-response,340,1016977,learnblock1,991.8999999761581,img/planet11_left.png,11,Community 3,NA,TRUE,f,f,NA,NA,NA,3,6,"8,2,14,3,9,13,12,6,7,15,5,11,4,10,1"
14347,commdev-image-keyboard-response,341,1018234,learnblock1,1224.3999999761581,img/planet6_left.png,6,Community 2,NA,TRUE,f,f,NA,NA,NA,3,6,"8,2,14,3,9,13,12,6,7,15,5,11,4,10,1"
14347,commdev-image-keyboard-response,342,1019488,learnblock1,1198.5,img/planet12_left.png,12,Community 2,NA,TRUE,f,f,NA,NA,NA,3,6,"8,2,14,3,9,13,12,6,7,15,5,11,4,10,1"
14347,commdev-image-keyboard-response,343,1020749,learnblock1,1161.2000000476837,img/planet15_right.png,15,Community 2,NA,TRUE,j,j,NA,NA,NA,3,6,"8,2,14,3,9,13,12,6,7,15,5,11,4,10,1"
14347,commdev-image-keyboard-response,344,1022002,learnblock1,null,img/planet12_right.png,12,Community 2,NA,FALSE,null,j,NA,NA,NA,3,6,"8,2,14,3,9,13,12,6,7,15,5,11,4,10,1"
14347,commdev-image-keyboard-response,345,1023256,learnblock1,1215.1000000238419,img/planet6_left.png,6,Community 2,NA,FALSE,j,f,NA,NA,NA,3,6,"8,2,14,3,9,13,12,6,7,15,5,11,4,10,1"
14347,commdev-image-keyboard-response,346,1024514,learnblock1,353,img/planet15_right.png,15,Community 2,NA,FALSE,f,j,NA,NA,NA,3,6,"8,2,14,3,9,13,12,6,7,15,5,11,4,10,1"
14347,commdev-image-keyboard-response,347,1025769,learnblock1,727,img/planet13_right.png,13,Community 2,NA,TRUE,j,j,NA,NA,NA,3,6,"8,2,14,3,9,13,12,6,7,15,5,11,4,10,1"
14347,commdev-image-keyboard-response,348,1027025,learnblock1,279.39999997615814,img/planet7_left.png,7,Community 2,NA,FALSE,j,f,NA,NA,NA,3,6,"8,2,14,3,9,13,12,6,7,15,5,11,4,10,1"
14347,commdev-image-keyboard-response,349,1028283,learnblock1,935.7999999523163,img/planet15_left.png,15,Community 2,NA,FALSE,j,f,NA,NA,NA,3,6,"8,2,14,3,9,13,12,6,7,15,5,11,4,10,1"
14347,commdev-image-keyboard-response,350,1029540,learnblock1,null,img/planet6_left.png,6,Community 2,NA,FALSE,null,f,NA,NA,NA,3,6,"8,2,14,3,9,13,12,6,7,15,5,11,4,10,1"
14347,commdev-image-keyboard-response,351,1030792,learnblock1,132.39999997615814,img/planet7_right.png,7,Community 2,NA,FALSE,f,j,NA,NA,NA,3,6,"8,2,14,3,9,13,12,6,7,15,5,11,4,10,1"
14347,commdev-image-keyboard-response,352,1032050,learnblock1,null,img/planet12_right.png,12,Community 2,NA,FALSE,null,j,NA,NA,NA,3,6,"8,2,14,3,9,13,12,6,7,15,5,11,4,10,1"
14347,commdev-image-keyboard-response,353,1033304,learnblock1,966.3999999761581,img/planet15_right.png,15,Community 2,NA,TRUE,j,j,NA,NA,NA,3,6,"8,2,14,3,9,13,12,6,7,15,5,11,4,10,1"
14347,commdev-image-keyboard-response,354,1034562,learnblock1,null,img/planet7_right.png,7,Community 2,NA,FALSE,null,j,NA,NA,NA,3,6,"8,2,14,3,9,13,12,6,7,15,5,11,4,10,1"
14347,commdev-image-keyboard-response,355,1035817,learnblock1,30.90000009536743,img/planet15_right.png,15,Community 2,NA,TRUE,j,j,NA,NA,NA,3,6,"8,2,14,3,9,13,12,6,7,15,5,11,4,10,1"
14347,commdev-image-keyboard-response,356,1037077,learnblock1,null,img/planet7_left.png,7,Community 2,NA,FALSE,null,f,NA,NA,NA,3,6,"8,2,14,3,9,13,12,6,7,15,5,11,4,10,1"
14347,commdev-image-keyboard-response,357,1038337,learnblock1,35.800000071525574,img/planet6_left.png,6,Community 2,NA,TRUE,f,f,NA,NA,NA,3,6,"8,2,14,3,9,13,12,6,7,15,5,11,4,10,1"
14347,commdev-image-keyboard-response,358,1039592,learnblock1,143.5,img/planet15_right.png,15,Community 2,NA,FALSE,f,j,NA,NA,NA,3,6,"8,2,14,3,9,13,12,6,7,15,5,11,4,10,1"
14347,commdev-image-keyboard-response,359,1040852,learnblock1,1000.6000000238419,img/planet7_right.png,7,Community 2,NA,TRUE,j,j,NA,NA,NA,3,6,"8,2,14,3,9,13,12,6,7,15,5,11,4,10,1"
14347,commdev-image-keyboard-response,360,1042115,learnblock1,1099.8999999761581,img/planet13_left.png,13,Community 2,NA,TRUE,f,f,NA,NA,NA,3,6,"8,2,14,3,9,13,12,6,7,15,5,11,4,10,1"
14347,commdev-image-keyboard-response,361,1043369,learnblock1,821,img/planet7_right.png,7,Community 2,NA,TRUE,j,j,NA,NA,NA,3,6,"8,2,14,3,9,13,12,6,7,15,5,11,4,10,1"
14347,commdev-image-keyboard-response,362,1044623,learnblock1,null,img/planet12_right.png,12,Community 2,NA,FALSE,null,j,NA,NA,NA,3,6,"8,2,14,3,9,13,12,6,7,15,5,11,4,10,1"
14347,commdev-image-keyboard-response,363,1045880,learnblock1,160.80000007152557,img/planet6_left.png,6,Community 2,NA,FALSE,j,f,NA,NA,NA,3,6,"8,2,14,3,9,13,12,6,7,15,5,11,4,10,1"
14347,commdev-image-keyboard-response,364,1047136,learnblock1,null,img/planet7_left.png,7,Community 2,NA,FALSE,null,f,NA,NA,NA,3,6,"8,2,14,3,9,13,12,6,7,15,5,11,4,10,1"
14347,commdev-image-keyboard-response,365,1048396,learnblock1,272.39999997615814,img/planet12_right.png,12,Community 2,NA,FALSE,f,j,NA,NA,NA,3,6,"8,2,14,3,9,13,12,6,7,15,5,11,4,10,1"
14347,commdev-image-keyboard-response,366,1049656,learnblock1,939.7000000476837,img/planet7_left.png,7,Community 2,NA,FALSE,j,f,NA,NA,NA,3,6,"8,2,14,3,9,13,12,6,7,15,5,11,4,10,1"
14347,commdev-image-keyboard-response,367,1050916,learnblock1,null,img/planet12_right.png,12,Community 2,NA,FALSE,null,j,NA,NA,NA,3,6,"8,2,14,3,9,13,12,6,7,15,5,11,4,10,1"
14347,commdev-image-keyboard-response,368,1052170,learnblock1,1076.3999999761581,img/planet7_left.png,7,Community 2,NA,FALSE,j,f,NA,NA,NA,3,6,"8,2,14,3,9,13,12,6,7,15,5,11,4,10,1"
14347,commdev-image-keyboard-response,369,1053424,learnblock1,358.2999999523163,img/planet12_left.png,12,Community 2,NA,TRUE,f,f,NA,NA,NA,3,6,"8,2,14,3,9,13,12,6,7,15,5,11,4,10,1"
14347,commdev-image-keyboard-response,370,1054682,learnblock1,152.20000004768372,img/planet15_left.png,15,Community 2,NA,FALSE,j,f,NA,NA,NA,3,6,"8,2,14,3,9,13,12,6,7,15,5,11,4,10,1"
14347,commdev-image-keyboard-response,371,1055936,learnblock1,null,img/planet12_left.png,12,Community 2,NA,FALSE,null,f,NA,NA,NA,3,6,"8,2,14,3,9,13,12,6,7,15,5,11,4,10,1"
14347,commdev-image-keyboard-response,372,1057196,learnblock1,null,img/planet7_right.png,7,Community 2,NA,FALSE,null,j,NA,NA,NA,3,6,"8,2,14,3,9,13,12,6,7,15,5,11,4,10,1"
14347,commdev-image-keyboard-response,373,1058455,learnblock1,587.8999999761581,img/planet12_right.png,12,Community 2,NA,TRUE,j,j,NA,NA,NA,3,6,"8,2,14,3,9,13,12,6,7,15,5,11,4,10,1"
14347,commdev-image-keyboard-response,374,1059713,learnblock1,null,img/planet15_left.png,15,Community 2,NA,FALSE,null,f,NA,NA,NA,3,6,"8,2,14,3,9,13,12,6,7,15,5,11,4,10,1"
14347,commdev-image-keyboard-response,375,1060970,learnblock1,695.1000000238419,img/planet7_right.png,7,Community 2,NA,TRUE,j,j,NA,NA,NA,3,6,"8,2,14,3,9,13,12,6,7,15,5,11,4,10,1"
14347,commdev-image-keyboard-response,376,1062228,learnblock1,1229.5999999046326,img/planet12_right.png,12,Community 2,NA,TRUE,j,j,NA,NA,NA,3,6,"8,2,14,3,9,13,12,6,7,15,5,11,4,10,1"
14347,commdev-image-keyboard-response,377,1063489,learnblock1,963.5,img/planet6_left.png,6,Community 2,NA,TRUE,f,f,NA,NA,NA,3,6,"8,2,14,3,9,13,12,6,7,15,5,11,4,10,1"
14347,commdev-image-keyboard-response,378,1064743,learnblock1,1198.7000000476837,img/planet11_right.png,11,Community 3,NA,TRUE,j,j,NA,NA,NA,3,6,"8,2,14,3,9,13,12,6,7,15,5,11,4,10,1"
14347,commdev-image-keyboard-response,379,1066003,learnblock1,736.8999999761581,img/planet4_left.png,4,Community 3,NA,TRUE,f,f,NA,NA,NA,3,6,"8,2,14,3,9,13,12,6,7,15,5,11,4,10,1"
14347,commdev-image-keyboard-response,380,1067260,learnblock1,917.1000000238419,img/planet11_left.png,11,Community 3,NA,FALSE,j,f,NA,NA,NA,3,6,"8,2,14,3,9,13,12,6,7,15,5,11,4,10,1"
14347,commdev-image-keyboard-response,381,1068522,learnblock1,99.70000004768372,img/planet1_right.png,1,Community 3,NA,FALSE,f,j,NA,NA,NA,3,6,"8,2,14,3,9,13,12,6,7,15,5,11,4,10,1"
14347,commdev-image-keyboard-response,382,1069776,learnblock1,1021.8000000715256,img/planet4_right.png,4,Community 3,NA,TRUE,j,j,NA,NA,NA,3,6,"8,2,14,3,9,13,12,6,7,15,5,11,4,10,1"
14347,commdev-image-keyboard-response,383,1071035,learnblock1,1008,img/planet11_right.png,11,Community 3,NA,TRUE,j,j,NA,NA,NA,3,6,"8,2,14,3,9,13,12,6,7,15,5,11,4,10,1"
14347,commdev-image-keyboard-response,384,1072289,learnblock1,1076,img/planet1_left.png,1,Community 3,NA,FALSE,j,f,NA,NA,NA,3,6,"8,2,14,3,9,13,12,6,7,15,5,11,4,10,1"
14347,commdev-image-keyboard-response,385,1073543,learnblock1,870.2000000476837,img/planet11_right.png,11,Community 3,NA,FALSE,f,j,NA,NA,NA,3,6,"8,2,14,3,9,13,12,6,7,15,5,11,4,10,1"
14347,commdev-image-keyboard-response,386,1074799,learnblock1,32.60000002384186,img/planet10_left.png,10,Community 3,NA,FALSE,j,f,NA,NA,NA,3,6,"8,2,14,3,9,13,12,6,7,15,5,11,4,10,1"
14347,commdev-image-keyboard-response,387,1076056,learnblock1,280.59999990463257,img/planet5_left.png,5,Community 3,NA,TRUE,f,f,NA,NA,NA,3,6,"8,2,14,3,9,13,12,6,7,15,5,11,4,10,1"
14347,commdev-image-keyboard-response,388,1077316,learnblock1,94.80000007152557,img/planet10_right.png,10,Community 3,NA,FALSE,f,j,NA,NA,NA,3,6,"8,2,14,3,9,13,12,6,7,15,5,11,4,10,1"
14347,commdev-image-keyboard-response,389,1078576,learnblock1,27.5,img/planet1_right.png,1,Community 3,NA,TRUE,j,j,NA,NA,NA,3,6,"8,2,14,3,9,13,12,6,7,15,5,11,4,10,1"
14347,commdev-image-keyboard-response,390,1079831,learnblock1,null,img/planet11_right.png,11,Community 3,NA,FALSE,null,j,NA,NA,NA,3,6,"8,2,14,3,9,13,12,6,7,15,5,11,4,10,1"
14347,commdev-image-keyboard-response,391,1081089,learnblock1,120.5,img/planet10_right.png,10,Community 3,NA,TRUE,j,j,NA,NA,NA,3,6,"8,2,14,3,9,13,12,6,7,15,5,11,4,10,1"
14347,commdev-image-keyboard-response,392,1082343,learnblock1,70,img/planet4_left.png,4,Community 3,NA,FALSE,j,f,NA,NA,NA,3,6,"8,2,14,3,9,13,12,6,7,15,5,11,4,10,1"
14347,commdev-image-keyboard-response,393,1083603,learnblock1,728.2000000476837,img/planet11_right.png,11,Community 3,NA,TRUE,j,j,NA,NA,NA,3,6,"8,2,14,3,9,13,12,6,7,15,5,11,4,10,1"
14347,commdev-image-keyboard-response,394,1084856,learnblock1,1020.4000000953674,img/planet1_right.png,1,Community 3,NA,TRUE,j,j,NA,NA,NA,3,6,"8,2,14,3,9,13,12,6,7,15,5,11,4,10,1"
14347,commdev-image-keyboard-response,395,1086110,learnblock1,918.5,img/planet10_left.png,10,Community 3,NA,TRUE,f,f,NA,NA,NA,3,6,"8,2,14,3,9,13,12,6,7,15,5,11,4,10,1"
14347,commdev-image-keyboard-response,396,1087366,learnblock1,1152.6000000238419,img/planet4_right.png,4,Community 3,NA,TRUE,j,j,NA,NA,NA,3,6,"8,2,14,3,9,13,12,6,7,15,5,11,4,10,1"
14347,commdev-image-keyboard-response,397,1088624,learnblock1,1200.0999999046326,img/planet5_left.png,5,Community 3,NA,TRUE,f,f,NA,NA,NA,3,6,"8,2,14,3,9,13,12,6,7,15,5,11,4,10,1"
14347,commdev-image-keyboard-response,398,1089878,learnblock1,null,img/planet4_left.png,4,Community 3,NA,FALSE,null,f,NA,NA,NA,3,6,"8,2,14,3,9,13,12,6,7,15,5,11,4,10,1"
14347,commdev-image-keyboard-response,399,1091138,learnblock1,1129.2999999523163,img/planet1_left.png,1,Community 3,NA,TRUE,f,f,NA,NA,NA,3,6,"8,2,14,3,9,13,12,6,7,15,5,11,4,10,1"
14347,commdev-image-keyboard-response,400,1092391,learnblock1,1044.5,img/planet11_right.png,11,Community 3,NA,TRUE,j,j,NA,NA,NA,3,6,"8,2,14,3,9,13,12,6,7,15,5,11,4,10,1"
14347,commdev-image-keyboard-response,401,1093651,learnblock1,871.5,img/planet6_left.png,6,Community 2,NA,TRUE,f,f,NA,NA,NA,3,6,"8,2,14,3,9,13,12,6,7,15,5,11,4,10,1"
14347,commdev-image-keyboard-response,402,1094910,learnblock1,null,img/planet15_left.png,15,Community 2,NA,FALSE,null,f,NA,NA,NA,3,6,"8,2,14,3,9,13,12,6,7,15,5,11,4,10,1"
14347,commdev-image-keyboard-response,403,1096170,learnblock1,0.5,img/planet13_left.png,13,Community 2,NA,TRUE,f,f,NA,NA,NA,3,6,"8,2,14,3,9,13,12,6,7,15,5,11,4,10,1"
14347,commdev-image-keyboard-response,404,1097424,learnblock1,932.5,img/planet12_right.png,12,Community 2,NA,TRUE,j,j,NA,NA,NA,3,6,"8,2,14,3,9,13,12,6,7,15,5,11,4,10,1"
14347,commdev-image-keyboard-response,405,1098683,learnblock1,null,img/planet15_left.png,15,Community 2,NA,FALSE,null,f,NA,NA,NA,3,6,"8,2,14,3,9,13,12,6,7,15,5,11,4,10,1"
14347,commdev-image-keyboard-response,406,1099944,learnblock1,259.3000000715256,img/planet6_right.png,6,Community 2,NA,FALSE,f,j,NA,NA,NA,3,6,"8,2,14,3,9,13,12,6,7,15,5,11,4,10,1"
14347,commdev-image-keyboard-response,407,1101203,learnblock1,null,img/planet15_right.png,15,Community 2,NA,FALSE,null,j,NA,NA,NA,3,6,"8,2,14,3,9,13,12,6,7,15,5,11,4,10,1"
14347,commdev-image-keyboard-response,408,1102462,learnblock1,979.8999999761581,img/planet12_right.png,12,Community 2,NA,FALSE,f,j,NA,NA,NA,3,6,"8,2,14,3,9,13,12,6,7,15,5,11,4,10,1"
14347,commdev-image-keyboard-response,409,1103722,learnblock1,880.2999999523163,img/planet7_right.png,7,Community 2,NA,TRUE,j,j,NA,NA,NA,3,6,"8,2,14,3,9,13,12,6,7,15,5,11,4,10,1"
14347,commdev-image-keyboard-response,410,1104975,learnblock1,892.1000000238419,img/planet13_left.png,13,Community 2,NA,TRUE,f,f,NA,NA,NA,3,6,"8,2,14,3,9,13,12,6,7,15,5,11,4,10,1"
14347,commdev-image-keyboard-response,411,1106230,learnblock1,null,img/planet3_right.png,3,Community 1,NA,FALSE,null,j,NA,NA,NA,3,6,"8,2,14,3,9,13,12,6,7,15,5,11,4,10,1"
14347,commdev-image-keyboard-response,412,1107486,learnblock1,null,img/planet14_left.png,14,Community 1,NA,FALSE,null,f,NA,NA,NA,3,6,"8,2,14,3,9,13,12,6,7,15,5,11,4,10,1"
14347,commdev-image-keyboard-response,413,1108743,learnblock1,40.200000047683716,img/planet3_left.png,3,Community 1,NA,FALSE,j,f,NA,NA,NA,3,6,"8,2,14,3,9,13,12,6,7,15,5,11,4,10,1"
14347,commdev-image-keyboard-response,414,1109998,learnblock1,151,img/planet2_left.png,2,Community 1,NA,TRUE,f,f,NA,NA,NA,3,6,"8,2,14,3,9,13,12,6,7,15,5,11,4,10,1"
14347,commdev-image-keyboard-response,415,1111257,learnblock1,1024.6000000238419,img/planet14_left.png,14,Community 1,NA,FALSE,j,f,NA,NA,NA,3,6,"8,2,14,3,9,13,12,6,7,15,5,11,4,10,1"
14347,commdev-image-keyboard-response,416,1112511,learnblock1,773.3999999761581,img/planet8_left.png,8,Community 1,NA,TRUE,f,f,NA,NA,NA,3,6,"8,2,14,3,9,13,12,6,7,15,5,11,4,10,1"
14347,commdev-image-keyboard-response,417,1113769,learnblock1,79.70000004768372,img/planet9_right.png,9,Community 1,NA,FALSE,f,j,NA,NA,NA,3,6,"8,2,14,3,9,13,12,6,7,15,5,11,4,10,1"
14347,commdev-image-keyboard-response,418,1115024,learnblock1,null,img/planet2_right.png,2,Community 1,NA,FALSE,null,j,NA,NA,NA,3,6,"8,2,14,3,9,13,12,6,7,15,5,11,4,10,1"
14347,commdev-image-keyboard-response,419,1116278,learnblock1,null,img/planet8_left.png,8,Community 1,NA,FALSE,null,f,NA,NA,NA,3,6,"8,2,14,3,9,13,12,6,7,15,5,11,4,10,1"
14347,commdev-image-keyboard-response,420,1117537,learnblock1,591.8999999761581,img/planet3_right.png,3,Community 1,NA,TRUE,j,j,NA,NA,NA,3,6,"8,2,14,3,9,13,12,6,7,15,5,11,4,10,1"
14347,commdev-image-keyboard-response,421,1118791,learnblock1,1068.5,img/planet13_right.png,13,Community 2,NA,FALSE,f,j,NA,NA,NA,3,6,"8,2,14,3,9,13,12,6,7,15,5,11,4,10,1"
14347,commdev-image-keyboard-response,422,1120050,learnblock1,350.5,img/planet3_right.png,3,Community 1,NA,TRUE,j,j,NA,NA,NA,3,6,"8,2,14,3,9,13,12,6,7,15,5,11,4,10,1"
14347,commdev-image-keyboard-response,423,1121306,learnblock1,340.10000002384186,img/planet13_right.png,13,Community 2,NA,TRUE,j,j,NA,NA,NA,3,6,"8,2,14,3,9,13,12,6,7,15,5,11,4,10,1"
14347,commdev-image-keyboard-response,424,1122565,learnblock1,819.7000000476837,img/planet12_right.png,12,Community 2,NA,TRUE,j,j,NA,NA,NA,3,6,"8,2,14,3,9,13,12,6,7,15,5,11,4,10,1"
14347,commdev-image-keyboard-response,425,1123822,learnblock1,680.6000000238419,img/planet13_left.png,13,Community 2,NA,FALSE,j,f,NA,NA,NA,3,6,"8,2,14,3,9,13,12,6,7,15,5,11,4,10,1"
14347,commdev-image-keyboard-response,426,1125078,learnblock1,1151.7999999523163,img/planet7_left.png,7,Community 2,NA,FALSE,j,f,NA,NA,NA,3,6,"8,2,14,3,9,13,12,6,7,15,5,11,4,10,1"
14347,commdev-image-keyboard-response,427,1126337,learnblock1,551.3999999761581,img/planet12_left.png,12,Community 2,NA,TRUE,f,f,NA,NA,NA,3,6,"8,2,14,3,9,13,12,6,7,15,5,11,4,10,1"
14347,commdev-image-keyboard-response,428,1127591,learnblock1,null,img/planet6_left.png,6,Community 2,NA,FALSE,null,f,NA,NA,NA,3,6,"8,2,14,3,9,13,12,6,7,15,5,11,4,10,1"
14347,commdev-image-keyboard-response,429,1128845,learnblock1,846.2000000476837,img/planet7_right.png,7,Community 2,NA,TRUE,j,j,NA,NA,NA,3,6,"8,2,14,3,9,13,12,6,7,15,5,11,4,10,1"
14347,commdev-image-keyboard-response,430,1130102,learnblock1,144.29999995231628,img/planet13_right.png,13,Community 2,NA,TRUE,j,j,NA,NA,NA,3,6,"8,2,14,3,9,13,12,6,7,15,5,11,4,10,1"
14347,commdev-image-keyboard-response,431,1131359,learnblock1,191.79999995231628,img/planet7_left.png,7,Community 2,NA,FALSE,j,f,NA,NA,NA,3,6,"8,2,14,3,9,13,12,6,7,15,5,11,4,10,1"
14347,commdev-image-keyboard-response,432,1132613,learnblock1,null,img/planet6_right.png,6,Community 2,NA,FALSE,null,j,NA,NA,NA,3,6,"8,2,14,3,9,13,12,6,7,15,5,11,4,10,1"
14347,commdev-image-keyboard-response,433,1133874,learnblock1,null,img/planet15_left.png,15,Community 2,NA,FALSE,null,f,NA,NA,NA,3,6,"8,2,14,3,9,13,12,6,7,15,5,11,4,10,1"
14347,commdev-image-keyboard-response,434,1135138,learnblock1,null,img/planet13_left.png,13,Community 2,NA,FALSE,null,f,NA,NA,NA,3,6,"8,2,14,3,9,13,12,6,7,15,5,11,4,10,1"
14347,commdev-image-keyboard-response,435,1136400,learnblock1,59.89999997615814,img/planet12_left.png,12,Community 2,NA,TRUE,f,f,NA,NA,NA,3,6,"8,2,14,3,9,13,12,6,7,15,5,11,4,10,1"
14347,commdev-image-keyboard-response,436,1137655,learnblock1,1197,img/planet7_left.png,7,Community 2,NA,FALSE,j,f,NA,NA,NA,3,6,"8,2,14,3,9,13,12,6,7,15,5,11,4,10,1"
14347,commdev-image-keyboard-response,437,1138909,learnblock1,1094,img/planet13_right.png,13,Community 2,NA,TRUE,j,j,NA,NA,NA,3,6,"8,2,14,3,9,13,12,6,7,15,5,11,4,10,1"
14347,commdev-image-keyboard-response,438,1140169,learnblock1,null,img/planet15_right.png,15,Community 2,NA,FALSE,null,j,NA,NA,NA,3,6,"8,2,14,3,9,13,12,6,7,15,5,11,4,10,1"
14347,commdev-image-keyboard-response,439,1141430,learnblock1,1227.8000000715256,img/planet7_right.png,7,Community 2,NA,TRUE,j,j,NA,NA,NA,3,6,"8,2,14,3,9,13,12,6,7,15,5,11,4,10,1"
14347,commdev-image-keyboard-response,440,1142684,learnblock1,974.8999999761581,img/planet13_left.png,13,Community 2,NA,TRUE,f,f,NA,NA,NA,3,6,"8,2,14,3,9,13,12,6,7,15,5,11,4,10,1"
14347,commdev-image-keyboard-response,441,1143944,learnblock1,729.2000000476837,img/planet12_right.png,12,Community 2,NA,TRUE,j,j,NA,NA,NA,3,6,"8,2,14,3,9,13,12,6,7,15,5,11,4,10,1"
14347,commdev-image-keyboard-response,442,1145197,learnblock1,1245.6000000238419,img/planet13_right.png,13,Community 2,NA,TRUE,j,j,NA,NA,NA,3,6,"8,2,14,3,9,13,12,6,7,15,5,11,4,10,1"
14347,commdev-image-keyboard-response,443,1146453,learnblock1,991.8000000715256,img/planet15_left.png,15,Community 2,NA,TRUE,f,f,NA,NA,NA,3,6,"8,2,14,3,9,13,12,6,7,15,5,11,4,10,1"
14347,commdev-image-keyboard-response,444,1147711,learnblock1,1096.3000000715256,img/planet6_left.png,6,Community 2,NA,FALSE,j,f,NA,NA,NA,3,6,"8,2,14,3,9,13,12,6,7,15,5,11,4,10,1"
14347,commdev-image-keyboard-response,445,1148965,learnblock1,1222.1000000238419,img/planet11_right.png,11,Community 3,NA,TRUE,j,j,NA,NA,NA,3,6,"8,2,14,3,9,13,12,6,7,15,5,11,4,10,1"
14347,commdev-image-keyboard-response,446,1150221,learnblock1,null,img/planet6_right.png,6,Community 2,NA,FALSE,null,j,NA,NA,NA,3,6,"8,2,14,3,9,13,12,6,7,15,5,11,4,10,1"
14347,commdev-image-keyboard-response,447,1151478,learnblock1,984.3999999761581,img/planet11_left.png,11,Community 3,NA,TRUE,f,f,NA,NA,NA,3,6,"8,2,14,3,9,13,12,6,7,15,5,11,4,10,1"
14347,commdev-image-keyboard-response,448,1152737,learnblock1,830.7000000476837,img/planet6_left.png,6,Community 2,NA,FALSE,j,f,NA,NA,NA,3,6,"8,2,14,3,9,13,12,6,7,15,5,11,4,10,1"
14347,commdev-image-keyboard-response,449,1153999,learnblock1,null,img/planet12_left.png,12,Community 2,NA,FALSE,null,f,NA,NA,NA,3,6,"8,2,14,3,9,13,12,6,7,15,5,11,4,10,1"
14347,commdev-image-keyboard-response,450,1155253,learnblock1,237.60000002384186,img/planet6_left.png,6,Community 2,NA,TRUE,f,f,NA,NA,NA,3,6,"8,2,14,3,9,13,12,6,7,15,5,11,4,10,1"
14347,commdev-image-keyboard-response,451,1156511,learnblock1,8.100000023841858,img/planet15_left.png,15,Community 2,NA,TRUE,f,f,NA,NA,NA,3,6,"8,2,14,3,9,13,12,6,7,15,5,11,4,10,1"
14347,commdev-image-keyboard-response,452,1157769,learnblock1,317.7000000476837,img/planet12_right.png,12,Community 2,NA,FALSE,f,j,NA,NA,NA,3,6,"8,2,14,3,9,13,12,6,7,15,5,11,4,10,1"
14347,commdev-image-keyboard-response,453,1159029,learnblock1,259.09999990463257,img/planet13_left.png,13,Community 2,NA,FALSE,j,f,NA,NA,NA,3,6,"8,2,14,3,9,13,12,6,7,15,5,11,4,10,1"
14347,commdev-image-keyboard-response,454,1160284,learnblock1,887.1000000238419,img/planet3_right.png,3,Community 1,NA,TRUE,j,j,NA,NA,NA,3,6,"8,2,14,3,9,13,12,6,7,15,5,11,4,10,1"
14347,commdev-image-keyboard-response,455,1161544,learnblock1,1128.6000000238419,img/planet14_right.png,14,Community 1,NA,FALSE,f,j,NA,NA,NA,3,6,"8,2,14,3,9,13,12,6,7,15,5,11,4,10,1"
14347,commdev-image-keyboard-response,456,1162798,learnblock1,139.89999997615814,img/planet8_right.png,8,Community 1,NA,TRUE,j,j,NA,NA,NA,3,6,"8,2,14,3,9,13,12,6,7,15,5,11,4,10,1"
14347,commdev-image-keyboard-response,457,1164057,learnblock1,null,img/planet9_right.png,9,Community 1,NA,FALSE,null,j,NA,NA,NA,3,6,"8,2,14,3,9,13,12,6,7,15,5,11,4,10,1"
14347,commdev-image-keyboard-response,458,1165317,learnblock1,null,img/planet2_right.png,2,Community 1,NA,FALSE,null,j,NA,NA,NA,3,6,"8,2,14,3,9,13,12,6,7,15,5,11,4,10,1"
14347,commdev-image-keyboard-response,459,1166577,learnblock1,343.60000002384186,img/planet8_left.png,8,Community 1,NA,FALSE,j,f,NA,NA,NA,3,6,"8,2,14,3,9,13,12,6,7,15,5,11,4,10,1"
14347,commdev-image-keyboard-response,460,1167836,learnblock1,null,img/planet3_right.png,3,Community 1,NA,FALSE,null,j,NA,NA,NA,3,6,"8,2,14,3,9,13,12,6,7,15,5,11,4,10,1"
14347,commdev-image-keyboard-response,461,1169096,learnblock1,336.3000000715256,img/planet14_left.png,14,Community 1,NA,FALSE,j,f,NA,NA,NA,3,6,"8,2,14,3,9,13,12,6,7,15,5,11,4,10,1"
14347,commdev-image-keyboard-response,462,1170350,learnblock1,300.2999999523163,img/planet8_right.png,8,Community 1,NA,FALSE,f,j,NA,NA,NA,3,6,"8,2,14,3,9,13,12,6,7,15,5,11,4,10,1"
14347,commdev-image-keyboard-response,463,1171609,learnblock1,950.3999999761581,img/planet9_left.png,9,Community 1,NA,FALSE,j,f,NA,NA,NA,3,6,"8,2,14,3,9,13,12,6,7,15,5,11,4,10,1"
14347,commdev-image-keyboard-response,464,1172868,learnblock1,27.5,img/planet8_left.png,8,Community 1,NA,TRUE,f,f,NA,NA,NA,3,6,"8,2,14,3,9,13,12,6,7,15,5,11,4,10,1"
14347,commdev-image-keyboard-response,465,1174123,learnblock1,88.10000002384186,img/planet3_right.png,3,Community 1,NA,FALSE,f,j,NA,NA,NA,3,6,"8,2,14,3,9,13,12,6,7,15,5,11,4,10,1"
14347,commdev-image-keyboard-response,466,1175385,learnblock1,945,img/planet2_right.png,2,Community 1,NA,TRUE,j,j,NA,NA,NA,3,6,"8,2,14,3,9,13,12,6,7,15,5,11,4,10,1"
14347,commdev-image-keyboard-response,467,1176648,learnblock1,979.5,img/planet9_left.png,9,Community 1,NA,FALSE,j,f,NA,NA,NA,3,6,"8,2,14,3,9,13,12,6,7,15,5,11,4,10,1"
14347,commdev-image-keyboard-response,468,1177902,learnblock1,1172.2000000476837,img/planet8_left.png,8,Community 1,NA,TRUE,f,f,NA,NA,NA,3,6,"8,2,14,3,9,13,12,6,7,15,5,11,4,10,1"
14347,commdev-image-keyboard-response,469,1179156,learnblock1,1070.4000000953674,img/planet14_right.png,14,Community 1,NA,TRUE,j,j,NA,NA,NA,3,6,"8,2,14,3,9,13,12,6,7,15,5,11,4,10,1"
14347,commdev-image-keyboard-response,470,1180415,learnblock1,584.2999999523163,img/planet9_right.png,9,Community 1,NA,TRUE,j,j,NA,NA,NA,3,6,"8,2,14,3,9,13,12,6,7,15,5,11,4,10,1"
14347,commdev-image-keyboard-response,471,1181672,learnblock1,null,img/planet5_left.png,5,Community 3,NA,FALSE,null,f,NA,NA,NA,3,6,"8,2,14,3,9,13,12,6,7,15,5,11,4,10,1"
14347,commdev-image-keyboard-response,472,1182934,learnblock1,1052,img/planet10_left.png,10,Community 3,NA,TRUE,f,f,NA,NA,NA,3,6,"8,2,14,3,9,13,12,6,7,15,5,11,4,10,1"
14347,commdev-image-keyboard-response,473,1184189,learnblock1,214,img/planet5_right.png,5,Community 3,NA,TRUE,j,j,NA,NA,NA,3,6,"8,2,14,3,9,13,12,6,7,15,5,11,4,10,1"
14347,commdev-image-keyboard-response,474,1185445,learnblock1,null,img/planet9_right.png,9,Community 1,NA,FALSE,null,j,NA,NA,NA,3,6,"8,2,14,3,9,13,12,6,7,15,5,11,4,10,1"
14347,commdev-image-keyboard-response,475,1186702,learnblock1,1135.2000000476837,img/planet5_left.png,5,Community 3,NA,TRUE,f,f,NA,NA,NA,3,6,"8,2,14,3,9,13,12,6,7,15,5,11,4,10,1"
14347,commdev-image-keyboard-response,476,1187956,learnblock1,381.7999999523163,img/planet1_right.png,1,Community 3,NA,TRUE,j,j,NA,NA,NA,3,6,"8,2,14,3,9,13,12,6,7,15,5,11,4,10,1"
14347,commdev-image-keyboard-response,477,1189216,learnblock1,null,img/planet5_right.png,5,Community 3,NA,FALSE,null,j,NA,NA,NA,3,6,"8,2,14,3,9,13,12,6,7,15,5,11,4,10,1"
14347,commdev-image-keyboard-response,478,1190476,learnblock1,100.19999992847443,img/planet1_right.png,1,Community 3,NA,FALSE,f,j,NA,NA,NA,3,6,"8,2,14,3,9,13,12,6,7,15,5,11,4,10,1"
14347,commdev-image-keyboard-response,479,1191735,learnblock1,null,img/planet11_right.png,11,Community 3,NA,FALSE,null,j,NA,NA,NA,3,6,"8,2,14,3,9,13,12,6,7,15,5,11,4,10,1"
14347,commdev-image-keyboard-response,480,1192988,learnblock1,1173.7000000476837,img/planet1_left.png,1,Community 3,NA,TRUE,f,f,NA,NA,NA,3,6,"8,2,14,3,9,13,12,6,7,15,5,11,4,10,1"
14347,commdev-image-keyboard-response,481,1194246,learnblock1,240.40000009536743,img/planet5_left.png,5,Community 3,NA,FALSE,j,f,NA,NA,NA,3,6,"8,2,14,3,9,13,12,6,7,15,5,11,4,10,1"
14347,commdev-image-keyboard-response,482,1195503,learnblock1,301.7999999523163,img/planet9_left.png,9,Community 1,NA,TRUE,f,f,NA,NA,NA,3,6,"8,2,14,3,9,13,12,6,7,15,5,11,4,10,1"
14347,commdev-image-keyboard-response,483,1196757,learnblock1,null,img/planet2_left.png,2,Community 1,NA,FALSE,null,f,NA,NA,NA,3,6,"8,2,14,3,9,13,12,6,7,15,5,11,4,10,1"
14347,commdev-image-keyboard-response,484,1198016,learnblock1,199.5,img/planet3_right.png,3,Community 1,NA,FALSE,f,j,NA,NA,NA,3,6,"8,2,14,3,9,13,12,6,7,15,5,11,4,10,1"
14347,commdev-image-keyboard-response,485,1199276,learnblock1,null,img/planet8_left.png,8,Community 1,NA,FALSE,null,f,NA,NA,NA,3,6,"8,2,14,3,9,13,12,6,7,15,5,11,4,10,1"
14347,commdev-image-keyboard-response,486,1200532,learnblock1,null,img/planet2_right.png,2,Community 1,NA,FALSE,null,j,NA,NA,NA,3,6,"8,2,14,3,9,13,12,6,7,15,5,11,4,10,1"
14347,commdev-image-keyboard-response,487,1201789,learnblock1,136.39999997615814,img/planet8_left.png,8,Community 1,NA,FALSE,j,f,NA,NA,NA,3,6,"8,2,14,3,9,13,12,6,7,15,5,11,4,10,1"
14347,commdev-image-keyboard-response,488,1203043,learnblock1,1158.7000000476837,img/planet2_left.png,2,Community 1,NA,TRUE,f,f,NA,NA,NA,3,6,"8,2,14,3,9,13,12,6,7,15,5,11,4,10,1"
14347,commdev-image-keyboard-response,489,1204302,learnblock1,624.8999999761581,img/planet14_right.png,14,Community 1,NA,TRUE,j,j,NA,NA,NA,3,6,"8,2,14,3,9,13,12,6,7,15,5,11,4,10,1"
14347,commdev-image-keyboard-response,490,1205556,learnblock1,null,img/planet9_left.png,9,Community 1,NA,FALSE,null,f,NA,NA,NA,3,6,"8,2,14,3,9,13,12,6,7,15,5,11,4,10,1"
14347,commdev-image-keyboard-response,491,1206815,learnblock1,0.20000004768371582,img/planet2_left.png,2,Community 1,NA,TRUE,f,f,NA,NA,NA,3,6,"8,2,14,3,9,13,12,6,7,15,5,11,4,10,1"
14347,commdev-image-keyboard-response,492,1208072,learnblock1,null,img/planet14_right.png,14,Community 1,NA,FALSE,null,j,NA,NA,NA,3,6,"8,2,14,3,9,13,12,6,7,15,5,11,4,10,1"
14347,commdev-image-keyboard-response,493,1209328,learnblock1,null,img/planet8_right.png,8,Community 1,NA,FALSE,null,j,NA,NA,NA,3,6,"8,2,14,3,9,13,12,6,7,15,5,11,4,10,1"
14347,commdev-image-keyboard-response,494,1210590,learnblock1,203.5,img/planet3_left.png,3,Community 1,NA,TRUE,f,f,NA,NA,NA,3,6,"8,2,14,3,9,13,12,6,7,15,5,11,4,10,1"
14347,commdev-image-keyboard-response,495,1211843,learnblock1,934.5999999046326,img/planet8_left.png,8,Community 1,NA,FALSE,j,f,NA,NA,NA,3,6,"8,2,14,3,9,13,12,6,7,15,5,11,4,10,1"
14347,commdev-image-keyboard-response,499,8210452,learnblock2,1102.5,img/planet9_left.png,9,Community 1,NA,TRUE,f,f,NA,NA,NA,3,6,"8,2,14,3,9,13,12,6,7,15,5,11,4,10,1"
14347,commdev-image-keyboard-response,500,8211708,learnblock2,471.60000002384186,img/planet2_left.png,2,Community 1,NA,FALSE,j,f,NA,NA,NA,3,6,"8,2,14,3,9,13,12,6,7,15,5,11,4,10,1"
14347,commdev-image-keyboard-response,501,8212970,learnblock2,583.1000000238419,img/planet3_left.png,3,Community 1,NA,TRUE,f,f,NA,NA,NA,3,6,"8,2,14,3,9,13,12,6,7,15,5,11,4,10,1"
14347,commdev-image-keyboard-response,502,8214228,learnblock2,400.7000000476837,img/planet2_left.png,2,Community 1,NA,FALSE,j,f,NA,NA,NA,3,6,"8,2,14,3,9,13,12,6,7,15,5,11,4,10,1"
14347,commdev-image-keyboard-response,503,8215482,learnblock2,783.7000000476837,img/planet3_left.png,3,Community 1,NA,TRUE,f,f,NA,NA,NA,3,6,"8,2,14,3,9,13,12,6,7,15,5,11,4,10,1"
14347,commdev-image-keyboard-response,504,8216736,learnblock2,353.1999999284744,img/planet14_left.png,14,Community 1,NA,TRUE,f,f,NA,NA,NA,3,6,"8,2,14,3,9,13,12,6,7,15,5,11,4,10,1"
14347,commdev-image-keyboard-response,505,8217993,learnblock2,739.3999999761581,img/planet2_left.png,2,Community 1,NA,TRUE,f,f,NA,NA,NA,3,6,"8,2,14,3,9,13,12,6,7,15,5,11,4,10,1"
14347,commdev-image-keyboard-response,506,8219249,learnblock2,730.6000000238419,img/planet3_right.png,3,Community 1,NA,TRUE,j,j,NA,NA,NA,3,6,"8,2,14,3,9,13,12,6,7,15,5,11,4,10,1"
14347,commdev-image-keyboard-response,507,8220508,learnblock2,761.6000000238419,img/planet8_right.png,8,Community 1,NA,TRUE,j,j,NA,NA,NA,3,6,"8,2,14,3,9,13,12,6,7,15,5,11,4,10,1"
14347,commdev-image-keyboard-response,508,8221768,learnblock2,998.7999999523163,img/planet3_left.png,3,Community 1,NA,TRUE,f,f,NA,NA,NA,3,6,"8,2,14,3,9,13,12,6,7,15,5,11,4,10,1"
14347,commdev-image-keyboard-response,509,8223025,learnblock2,699.1000000238419,img/planet2_left.png,2,Community 1,NA,TRUE,f,f,NA,NA,NA,3,6,"8,2,14,3,9,13,12,6,7,15,5,11,4,10,1"
14347,commdev-image-keyboard-response,510,8224282,learnblock2,882.1000000238419,img/planet14_left.png,14,Community 1,NA,TRUE,f,f,NA,NA,NA,3,6,"8,2,14,3,9,13,12,6,7,15,5,11,4,10,1"
14347,commdev-image-keyboard-response,511,8225535,learnblock2,777,img/planet2_left.png,2,Community 1,NA,TRUE,f,f,NA,NA,NA,3,6,"8,2,14,3,9,13,12,6,7,15,5,11,4,10,1"
14347,commdev-image-keyboard-response,512,8226796,learnblock2,811.5,img/planet3_left.png,3,Community 1,NA,TRUE,f,f,NA,NA,NA,3,6,"8,2,14,3,9,13,12,6,7,15,5,11,4,10,1"
14347,commdev-image-keyboard-response,513,8228055,learnblock2,1046.7999999523163,img/planet8_right.png,8,Community 1,NA,TRUE,j,j,NA,NA,NA,3,6,"8,2,14,3,9,13,12,6,7,15,5,11,4,10,1"
14347,commdev-image-keyboard-response,514,8229315,learnblock2,691.2999999523163,img/planet2_left.png,2,Community 1,NA,TRUE,f,f,NA,NA,NA,3,6,"8,2,14,3,9,13,12,6,7,15,5,11,4,10,1"
14347,commdev-image-keyboard-response,515,8230571,learnblock2,759.8999999761581,img/planet8_right.png,8,Community 1,NA,FALSE,f,j,NA,NA,NA,3,6,"8,2,14,3,9,13,12,6,7,15,5,11,4,10,1"
14347,commdev-image-keyboard-response,516,8231835,learnblock2,903.3999999761581,img/planet14_left.png,14,Community 1,NA,TRUE,f,f,NA,NA,NA,3,6,"8,2,14,3,9,13,12,6,7,15,5,11,4,10,1"
14347,commdev-image-keyboard-response,517,8233088,learnblock2,951.7000000476837,img/planet8_right.png,8,Community 1,NA,TRUE,j,j,NA,NA,NA,3,6,"8,2,14,3,9,13,12,6,7,15,5,11,4,10,1"
14347,commdev-image-keyboard-response,518,8234347,learnblock2,1066.6000000238419,img/planet3_right.png,3,Community 1,NA,TRUE,j,j,NA,NA,NA,3,6,"8,2,14,3,9,13,12,6,7,15,5,11,4,10,1"
14347,commdev-image-keyboard-response,519,8235602,learnblock2,711.7000000476837,img/planet14_right.png,14,Community 1,NA,FALSE,f,j,NA,NA,NA,3,6,"8,2,14,3,9,13,12,6,7,15,5,11,4,10,1"
14347,commdev-image-keyboard-response,520,8236855,learnblock2,945.2999999523163,img/planet3_right.png,3,Community 1,NA,FALSE,f,j,NA,NA,NA,3,6,"8,2,14,3,9,13,12,6,7,15,5,11,4,10,1"
14347,commdev-image-keyboard-response,521,8238111,learnblock2,819.1000000238419,img/planet14_left.png,14,Community 1,NA,TRUE,f,f,NA,NA,NA,3,6,"8,2,14,3,9,13,12,6,7,15,5,11,4,10,1"
14347,commdev-image-keyboard-response,522,8239369,learnblock2,963.7999999523163,img/planet3_left.png,3,Community 1,NA,TRUE,f,f,NA,NA,NA,3,6,"8,2,14,3,9,13,12,6,7,15,5,11,4,10,1"
14347,commdev-image-keyboard-response,523,8240623,learnblock2,769.7000000476837,img/planet14_right.png,14,Community 1,NA,FALSE,f,j,NA,NA,NA,3,6,"8,2,14,3,9,13,12,6,7,15,5,11,4,10,1"
14347,commdev-image-keyboard-response,524,8241882,learnblock2,99.5,img/planet2_right.png,2,Community 1,NA,TRUE,j,j,NA,NA,NA,3,6,"8,2,14,3,9,13,12,6,7,15,5,11,4,10,1"
14347,commdev-image-keyboard-response,525,8243136,learnblock2,847.8999999761581,img/planet14_right.png,14,Community 1,NA,TRUE,j,j,NA,NA,NA,3,6,"8,2,14,3,9,13,12,6,7,15,5,11,4,10,1"
14347,commdev-image-keyboard-response,526,8244394,learnblock2,770.3999999761581,img/planet3_right.png,3,Community 1,NA,TRUE,j,j,NA,NA,NA,3,6,"8,2,14,3,9,13,12,6,7,15,5,11,4,10,1"
14347,commdev-image-keyboard-response,527,8245649,learnblock2,1048.5,img/planet8_left.png,8,Community 1,NA,TRUE,f,f,NA,NA,NA,3,6,"8,2,14,3,9,13,12,6,7,15,5,11,4,10,1"
14347,commdev-image-keyboard-response,528,8246904,learnblock2,849.2999999523163,img/planet3_left.png,3,Community 1,NA,FALSE,j,f,NA,NA,NA,3,6,"8,2,14,3,9,13,12,6,7,15,5,11,4,10,1"
14347,commdev-image-keyboard-response,529,8248163,learnblock2,762.9000000953674,img/planet2_left.png,2,Community 1,NA,TRUE,f,f,NA,NA,NA,3,6,"8,2,14,3,9,13,12,6,7,15,5,11,4,10,1"
14347,commdev-image-keyboard-response,530,8249423,learnblock2,783.2000000476837,img/planet14_left.png,14,Community 1,NA,TRUE,f,f,NA,NA,NA,3,6,"8,2,14,3,9,13,12,6,7,15,5,11,4,10,1"
14347,commdev-image-keyboard-response,531,8250680,learnblock2,819.3999999761581,img/planet3_right.png,3,Community 1,NA,TRUE,j,j,NA,NA,NA,3,6,"8,2,14,3,9,13,12,6,7,15,5,11,4,10,1"
14347,commdev-image-keyboard-response,532,8251937,learnblock2,914.3999999761581,img/planet13_left.png,13,Community 2,NA,TRUE,f,f,NA,NA,NA,3,6,"8,2,14,3,9,13,12,6,7,15,5,11,4,10,1"
14347,commdev-image-keyboard-response,533,8253190,learnblock2,921,img/planet3_left.png,3,Community 1,NA,TRUE,f,f,NA,NA,NA,3,6,"8,2,14,3,9,13,12,6,7,15,5,11,4,10,1"
14347,commdev-image-keyboard-response,534,8254450,learnblock2,788,img/planet13_left.png,13,Community 2,NA,TRUE,f,f,NA,NA,NA,3,6,"8,2,14,3,9,13,12,6,7,15,5,11,4,10,1"
14347,commdev-image-keyboard-response,535,8255704,learnblock2,800.3999999761581,img/planet12_left.png,12,Community 2,NA,TRUE,f,f,NA,NA,NA,3,6,"8,2,14,3,9,13,12,6,7,15,5,11,4,10,1"
14347,commdev-image-keyboard-response,536,8256959,learnblock2,1162.3999999761581,img/planet13_left.png,13,Community 2,NA,TRUE,f,f,NA,NA,NA,3,6,"8,2,14,3,9,13,12,6,7,15,5,11,4,10,1"
14347,commdev-image-keyboard-response,537,8258217,learnblock2,930.5,img/planet15_left.png,15,Community 2,NA,TRUE,f,f,NA,NA,NA,3,6,"8,2,14,3,9,13,12,6,7,15,5,11,4,10,1"
14347,commdev-image-keyboard-response,538,8259471,learnblock2,872.8000000715256,img/planet12_left.png,12,Community 2,NA,TRUE,f,f,NA,NA,NA,3,6,"8,2,14,3,9,13,12,6,7,15,5,11,4,10,1"
14347,commdev-image-keyboard-response,539,8260725,learnblock2,1074.3999999761581,img/planet7_left.png,7,Community 2,NA,TRUE,f,f,NA,NA,NA,3,6,"8,2,14,3,9,13,12,6,7,15,5,11,4,10,1"
14347,commdev-image-keyboard-response,540,8261985,learnblock2,908.2999999523163,img/planet15_right.png,15,Community 2,NA,TRUE,j,j,NA,NA,NA,3,6,"8,2,14,3,9,13,12,6,7,15,5,11,4,10,1"
14347,commdev-image-keyboard-response,541,8263238,learnblock2,569.2999999523163,img/planet13_right.png,13,Community 2,NA,FALSE,f,j,NA,NA,NA,3,6,"8,2,14,3,9,13,12,6,7,15,5,11,4,10,1"
14347,commdev-image-keyboard-response,542,8264495,learnblock2,651.6000000238419,img/planet7_right.png,7,Community 2,NA,TRUE,j,j,NA,NA,NA,3,6,"8,2,14,3,9,13,12,6,7,15,5,11,4,10,1"
14347,commdev-image-keyboard-response,543,8265755,learnblock2,770.8999999761581,img/planet12_right.png,12,Community 2,NA,TRUE,j,j,NA,NA,NA,3,6,"8,2,14,3,9,13,12,6,7,15,5,11,4,10,1"
14347,commdev-image-keyboard-response,544,8267017,learnblock2,663.2000000476837,img/planet7_right.png,7,Community 2,NA,TRUE,j,j,NA,NA,NA,3,6,"8,2,14,3,9,13,12,6,7,15,5,11,4,10,1"
14347,commdev-image-keyboard-response,545,8268275,learnblock2,1008.6000000238419,img/planet6_left.png,6,Community 2,NA,TRUE,f,f,NA,NA,NA,3,6,"8,2,14,3,9,13,12,6,7,15,5,11,4,10,1"
14347,commdev-image-keyboard-response,546,8269534,learnblock2,990.8999999761581,img/planet7_left.png,7,Community 2,NA,TRUE,f,f,NA,NA,NA,3,6,"8,2,14,3,9,13,12,6,7,15,5,11,4,10,1"
14347,commdev-image-keyboard-response,547,8270790,learnblock2,1027.7999999523163,img/planet15_left.png,15,Community 2,NA,TRUE,f,f,NA,NA,NA,3,6,"8,2,14,3,9,13,12,6,7,15,5,11,4,10,1"
14347,commdev-image-keyboard-response,548,8272050,learnblock2,995.1999999284744,img/planet6_right.png,6,Community 2,NA,TRUE,j,j,NA,NA,NA,3,6,"8,2,14,3,9,13,12,6,7,15,5,11,4,10,1"
14347,commdev-image-keyboard-response,549,8273304,learnblock2,887.6000000238419,img/planet12_left.png,12,Community 2,NA,TRUE,f,f,NA,NA,NA,3,6,"8,2,14,3,9,13,12,6,7,15,5,11,4,10,1"
14347,commdev-image-keyboard-response,550,8274562,learnblock2,769.7999999523163,img/planet6_left.png,6,Community 2,NA,FALSE,j,f,NA,NA,NA,3,6,"8,2,14,3,9,13,12,6,7,15,5,11,4,10,1"
14347,commdev-image-keyboard-response,551,8275817,learnblock2,695.8999999761581,img/planet7_left.png,7,Community 2,NA,TRUE,f,f,NA,NA,NA,3,6,"8,2,14,3,9,13,12,6,7,15,5,11,4,10,1"
14347,commdev-image-keyboard-response,552,8277071,learnblock2,768.2000000476837,img/planet12_left.png,12,Community 2,NA,TRUE,f,f,NA,NA,NA,3,6,"8,2,14,3,9,13,12,6,7,15,5,11,4,10,1"
14347,commdev-image-keyboard-response,553,8278328,learnblock2,922.7000000476837,img/planet6_left.png,6,Community 2,NA,TRUE,f,f,NA,NA,NA,3,6,"8,2,14,3,9,13,12,6,7,15,5,11,4,10,1"
14347,commdev-image-keyboard-response,554,8279585,learnblock2,841.2000000476837,img/planet11_left.png,11,Community 3,NA,TRUE,f,f,NA,NA,NA,3,6,"8,2,14,3,9,13,12,6,7,15,5,11,4,10,1"
14347,commdev-image-keyboard-response,555,8280838,learnblock2,856.9000000953674,img/planet4_right.png,4,Community 3,NA,TRUE,j,j,NA,NA,NA,3,6,"8,2,14,3,9,13,12,6,7,15,5,11,4,10,1"
14347,commdev-image-keyboard-response,556,8282098,learnblock2,1162.8999999761581,img/planet1_left.png,1,Community 3,NA,TRUE,f,f,NA,NA,NA,3,6,"8,2,14,3,9,13,12,6,7,15,5,11,4,10,1"
14347,commdev-image-keyboard-response,557,8283357,learnblock2,879.1000000238419,img/planet4_right.png,4,Community 3,NA,TRUE,j,j,NA,NA,NA,3,6,"8,2,14,3,9,13,12,6,7,15,5,11,4,10,1"
14347,commdev-image-keyboard-response,558,8284613,learnblock2,707.6000000238419,img/planet11_right.png,11,Community 3,NA,TRUE,j,j,NA,NA,NA,3,6,"8,2,14,3,9,13,12,6,7,15,5,11,4,10,1"
14347,commdev-image-keyboard-response,559,8285871,learnblock2,811.6000000238419,img/planet4_left.png,4,Community 3,NA,TRUE,f,f,NA,NA,NA,3,6,"8,2,14,3,9,13,12,6,7,15,5,11,4,10,1"
14347,commdev-image-keyboard-response,560,8287125,learnblock2,833.7999999523163,img/planet1_left.png,1,Community 3,NA,TRUE,f,f,NA,NA,NA,3,6,"8,2,14,3,9,13,12,6,7,15,5,11,4,10,1"
14347,commdev-image-keyboard-response,561,8288382,learnblock2,915.8999999761581,img/planet10_left.png,10,Community 3,NA,FALSE,j,f,NA,NA,NA,3,6,"8,2,14,3,9,13,12,6,7,15,5,11,4,10,1"
14347,commdev-image-keyboard-response,562,8289641,learnblock2,915.2000000476837,img/planet1_left.png,1,Community 3,NA,TRUE,f,f,NA,NA,NA,3,6,"8,2,14,3,9,13,12,6,7,15,5,11,4,10,1"
14347,commdev-image-keyboard-response,563,8290897,learnblock2,847.7999999523163,img/planet11_left.png,11,Community 3,NA,TRUE,f,f,NA,NA,NA,3,6,"8,2,14,3,9,13,12,6,7,15,5,11,4,10,1"
14347,commdev-image-keyboard-response,564,8292152,learnblock2,759.7999999523163,img/planet10_left.png,10,Community 3,NA,TRUE,f,f,NA,NA,NA,3,6,"8,2,14,3,9,13,12,6,7,15,5,11,4,10,1"
14347,commdev-image-keyboard-response,565,8293406,learnblock2,760.7000000476837,img/planet4_right.png,4,Community 3,NA,TRUE,j,j,NA,NA,NA,3,6,"8,2,14,3,9,13,12,6,7,15,5,11,4,10,1"
14347,commdev-image-keyboard-response,566,8294665,learnblock2,579.1000000238419,img/planet1_left.png,1,Community 3,NA,FALSE,j,f,NA,NA,NA,3,6,"8,2,14,3,9,13,12,6,7,15,5,11,4,10,1"
14347,commdev-image-keyboard-response,567,8295925,learnblock2,1191.3999999761581,img/planet5_left.png,5,Community 3,NA,TRUE,f,f,NA,NA,NA,3,6,"8,2,14,3,9,13,12,6,7,15,5,11,4,10,1"
14347,commdev-image-keyboard-response,568,8297185,learnblock2,979.3999999761581,img/planet10_left.png,10,Community 3,NA,TRUE,f,f,NA,NA,NA,3,6,"8,2,14,3,9,13,12,6,7,15,5,11,4,10,1"
14347,commdev-image-keyboard-response,569,8298438,learnblock2,760.1000000238419,img/planet4_right.png,4,Community 3,NA,TRUE,j,j,NA,NA,NA,3,6,"8,2,14,3,9,13,12,6,7,15,5,11,4,10,1"
14347,commdev-image-keyboard-response,570,8299692,learnblock2,978.6999999284744,img/planet5_left.png,5,Community 3,NA,TRUE,f,f,NA,NA,NA,3,6,"8,2,14,3,9,13,12,6,7,15,5,11,4,10,1"
14347,commdev-image-keyboard-response,571,8300949,learnblock2,1020.2999999523163,img/planet1_left.png,1,Community 3,NA,TRUE,f,f,NA,NA,NA,3,6,"8,2,14,3,9,13,12,6,7,15,5,11,4,10,1"
14347,commdev-image-keyboard-response,572,8302200,learnblock2,739.5,img/planet4_right.png,4,Community 3,NA,TRUE,j,j,NA,NA,NA,3,6,"8,2,14,3,9,13,12,6,7,15,5,11,4,10,1"
14347,commdev-image-keyboard-response,573,8303454,learnblock2,736.5,img/planet10_left.png,10,Community 3,NA,FALSE,j,f,NA,NA,NA,3,6,"8,2,14,3,9,13,12,6,7,15,5,11,4,10,1"
14347,commdev-image-keyboard-response,574,8304713,learnblock2,770.6000000238419,img/planet11_left.png,11,Community 3,NA,TRUE,f,f,NA,NA,NA,3,6,"8,2,14,3,9,13,12,6,7,15,5,11,4,10,1"
14347,commdev-image-keyboard-response,575,8305968,learnblock2,743.2000000476837,img/planet4_right.png,4,Community 3,NA,TRUE,j,j,NA,NA,NA,3,6,"8,2,14,3,9,13,12,6,7,15,5,11,4,10,1"
14347,commdev-image-keyboard-response,576,8307220,learnblock2,720.7999999523163,img/planet10_left.png,10,Community 3,NA,TRUE,f,f,NA,NA,NA,3,6,"8,2,14,3,9,13,12,6,7,15,5,11,4,10,1"
14347,commdev-image-keyboard-response,577,8308482,learnblock2,596,img/planet4_right.png,4,Community 3,NA,TRUE,j,j,NA,NA,NA,3,6,"8,2,14,3,9,13,12,6,7,15,5,11,4,10,1"
14347,commdev-image-keyboard-response,578,8309737,learnblock2,718.8999999761581,img/planet11_right.png,11,Community 3,NA,TRUE,j,j,NA,NA,NA,3,6,"8,2,14,3,9,13,12,6,7,15,5,11,4,10,1"
14347,commdev-image-keyboard-response,579,8310991,learnblock2,935.8999999761581,img/planet6_right.png,6,Community 2,NA,TRUE,j,j,NA,NA,NA,3,6,"8,2,14,3,9,13,12,6,7,15,5,11,4,10,1"
14347,commdev-image-keyboard-response,580,8312248,learnblock2,777.5,img/planet7_left.png,7,Community 2,NA,TRUE,f,f,NA,NA,NA,3,6,"8,2,14,3,9,13,12,6,7,15,5,11,4,10,1"
14347,commdev-image-keyboard-response,581,8313505,learnblock2,863.8999999761581,img/planet6_right.png,6,Community 2,NA,FALSE,f,j,NA,NA,NA,3,6,"8,2,14,3,9,13,12,6,7,15,5,11,4,10,1"
14347,commdev-image-keyboard-response,582,8314769,learnblock2,1167.5,img/planet15_right.png,15,Community 2,NA,TRUE,j,j,NA,NA,NA,3,6,"8,2,14,3,9,13,12,6,7,15,5,11,4,10,1"
14347,commdev-image-keyboard-response,583,8316033,learnblock2,919.2999999523163,img/planet12_right.png,12,Community 2,NA,TRUE,j,j,NA,NA,NA,3,6,"8,2,14,3,9,13,12,6,7,15,5,11,4,10,1"
14347,commdev-image-keyboard-response,584,8317293,learnblock2,1007.2000000476837,img/planet15_left.png,15,Community 2,NA,TRUE,f,f,NA,NA,NA,3,6,"8,2,14,3,9,13,12,6,7,15,5,11,4,10,1"
14347,commdev-image-keyboard-response,585,8318552,learnblock2,835.3999999761581,img/planet12_right.png,12,Community 2,NA,TRUE,j,j,NA,NA,NA,3,6,"8,2,14,3,9,13,12,6,7,15,5,11,4,10,1"
14347,commdev-image-keyboard-response,586,8319806,learnblock2,899.3999999761581,img/planet13_right.png,13,Community 2,NA,TRUE,j,j,NA,NA,NA,3,6,"8,2,14,3,9,13,12,6,7,15,5,11,4,10,1"
14347,commdev-image-keyboard-response,587,8321060,learnblock2,729.8999999761581,img/planet3_right.png,3,Community 1,NA,TRUE,j,j,NA,NA,NA,3,6,"8,2,14,3,9,13,12,6,7,15,5,11,4,10,1"
14347,commdev-image-keyboard-response,588,8322320,learnblock2,171.79999995231628,img/planet14_right.png,14,Community 1,NA,TRUE,j,j,NA,NA,NA,3,6,"8,2,14,3,9,13,12,6,7,15,5,11,4,10,1"
14347,commdev-image-keyboard-response,589,8323574,learnblock2,823.7000000476837,img/planet2_left.png,2,Community 1,NA,TRUE,f,f,NA,NA,NA,3,6,"8,2,14,3,9,13,12,6,7,15,5,11,4,10,1"
14347,commdev-image-keyboard-response,590,8324829,learnblock2,938.5,img/planet3_right.png,3,Community 1,NA,TRUE,j,j,NA,NA,NA,3,6,"8,2,14,3,9,13,12,6,7,15,5,11,4,10,1"
14347,commdev-image-keyboard-response,591,8326083,learnblock2,955,img/planet13_left.png,13,Community 2,NA,TRUE,f,f,NA,NA,NA,3,6,"8,2,14,3,9,13,12,6,7,15,5,11,4,10,1"
14347,commdev-image-keyboard-response,592,8327341,learnblock2,1164.7000000476837,img/planet15_right.png,15,Community 2,NA,FALSE,f,j,NA,NA,NA,3,6,"8,2,14,3,9,13,12,6,7,15,5,11,4,10,1"
14347,commdev-image-keyboard-response,593,8328596,learnblock2,995,img/planet7_right.png,7,Community 2,NA,TRUE,j,j,NA,NA,NA,3,6,"8,2,14,3,9,13,12,6,7,15,5,11,4,10,1"
14347,commdev-image-keyboard-response,594,8329854,learnblock2,715.7999999523163,img/planet6_left.png,6,Community 2,NA,FALSE,j,f,NA,NA,NA,3,6,"8,2,14,3,9,13,12,6,7,15,5,11,4,10,1"
14347,commdev-image-keyboard-response,595,8331110,learnblock2,977.6000000238419,img/planet15_left.png,15,Community 2,NA,TRUE,f,f,NA,NA,NA,3,6,"8,2,14,3,9,13,12,6,7,15,5,11,4,10,1"
14347,commdev-image-keyboard-response,596,8332367,learnblock2,930.1000000238419,img/planet12_left.png,12,Community 2,NA,TRUE,f,f,NA,NA,NA,3,6,"8,2,14,3,9,13,12,6,7,15,5,11,4,10,1"
14347,commdev-image-keyboard-response,597,8333622,learnblock2,1032.7999999523163,img/planet6_left.png,6,Community 2,NA,TRUE,f,f,NA,NA,NA,3,6,"8,2,14,3,9,13,12,6,7,15,5,11,4,10,1"
14347,commdev-image-keyboard-response,598,8334879,learnblock2,730.2000000476837,img/planet12_right.png,12,Community 2,NA,TRUE,j,j,NA,NA,NA,3,6,"8,2,14,3,9,13,12,6,7,15,5,11,4,10,1"
14347,commdev-image-keyboard-response,599,8336134,learnblock2,1000.5999999046326,img/planet15_right.png,15,Community 2,NA,TRUE,j,j,NA,NA,NA,3,6,"8,2,14,3,9,13,12,6,7,15,5,11,4,10,1"
14347,commdev-image-keyboard-response,600,8337388,learnblock2,1249.5,img/planet6_right.png,6,Community 2,NA,TRUE,j,j,NA,NA,NA,3,6,"8,2,14,3,9,13,12,6,7,15,5,11,4,10,1"
14347,commdev-image-keyboard-response,601,8338643,learnblock2,891.1999999284744,img/planet12_right.png,12,Community 2,NA,FALSE,f,j,NA,NA,NA,3,6,"8,2,14,3,9,13,12,6,7,15,5,11,4,10,1"
14347,commdev-image-keyboard-response,602,8339902,learnblock2,884.1000000238419,img/planet6_left.png,6,Community 2,NA,TRUE,f,f,NA,NA,NA,3,6,"8,2,14,3,9,13,12,6,7,15,5,11,4,10,1"
14347,commdev-image-keyboard-response,603,8341156,learnblock2,673.1000000238419,img/planet15_left.png,15,Community 2,NA,FALSE,j,f,NA,NA,NA,3,6,"8,2,14,3,9,13,12,6,7,15,5,11,4,10,1"
14347,commdev-image-keyboard-response,604,8342416,learnblock2,803.8999999761581,img/planet7_left.png,7,Community 2,NA,TRUE,f,f,NA,NA,NA,3,6,"8,2,14,3,9,13,12,6,7,15,5,11,4,10,1"
14347,commdev-image-keyboard-response,605,8343669,learnblock2,895.7000000476837,img/planet15_left.png,15,Community 2,NA,TRUE,f,f,NA,NA,NA,3,6,"8,2,14,3,9,13,12,6,7,15,5,11,4,10,1"
14347,commdev-image-keyboard-response,606,8344924,learnblock2,914.6000000238419,img/planet7_right.png,7,Community 2,NA,TRUE,j,j,NA,NA,NA,3,6,"8,2,14,3,9,13,12,6,7,15,5,11,4,10,1"
14347,commdev-image-keyboard-response,607,8346182,learnblock2,802.7999999523163,img/planet13_right.png,13,Community 2,NA,TRUE,j,j,NA,NA,NA,3,6,"8,2,14,3,9,13,12,6,7,15,5,11,4,10,1"
14347,commdev-image-keyboard-response,608,8347437,learnblock2,776.7999999523163,img/planet3_right.png,3,Community 1,NA,TRUE,j,j,NA,NA,NA,3,6,"8,2,14,3,9,13,12,6,7,15,5,11,4,10,1"
14347,commdev-image-keyboard-response,609,8348691,learnblock2,690.2000000476837,img/planet13_left.png,13,Community 2,NA,FALSE,j,f,NA,NA,NA,3,6,"8,2,14,3,9,13,12,6,7,15,5,11,4,10,1"
14347,commdev-image-keyboard-response,610,8349947,learnblock2,836.2999999523163,img/planet3_left.png,3,Community 1,NA,TRUE,f,f,NA,NA,NA,3,6,"8,2,14,3,9,13,12,6,7,15,5,11,4,10,1"
14347,commdev-image-keyboard-response,611,8351204,learnblock2,1043.7999999523163,img/planet2_right.png,2,Community 1,NA,FALSE,f,j,NA,NA,NA,3,6,"8,2,14,3,9,13,12,6,7,15,5,11,4,10,1"
14347,commdev-image-keyboard-response,612,8352463,learnblock2,843.6000000238419,img/planet3_right.png,3,Community 1,NA,TRUE,j,j,NA,NA,NA,3,6,"8,2,14,3,9,13,12,6,7,15,5,11,4,10,1"
14347,commdev-image-keyboard-response,613,8353718,learnblock2,887.6000000238419,img/planet13_right.png,13,Community 2,NA,TRUE,j,j,NA,NA,NA,3,6,"8,2,14,3,9,13,12,6,7,15,5,11,4,10,1"
14347,commdev-image-keyboard-response,614,8354972,learnblock2,57.10000002384186,img/planet15_right.png,15,Community 2,NA,TRUE,j,j,NA,NA,NA,3,6,"8,2,14,3,9,13,12,6,7,15,5,11,4,10,1"
14347,commdev-image-keyboard-response,615,8356230,learnblock2,811,img/planet6_left.png,6,Community 2,NA,TRUE,f,f,NA,NA,NA,3,6,"8,2,14,3,9,13,12,6,7,15,5,11,4,10,1"
14347,commdev-image-keyboard-response,616,8357484,learnblock2,904.7999999523163,img/planet12_right.png,12,Community 2,NA,TRUE,j,j,NA,NA,NA,3,6,"8,2,14,3,9,13,12,6,7,15,5,11,4,10,1"
14347,commdev-image-keyboard-response,617,8358744,learnblock2,754.5,img/planet7_right.png,7,Community 2,NA,TRUE,j,j,NA,NA,NA,3,6,"8,2,14,3,9,13,12,6,7,15,5,11,4,10,1"
14347,commdev-image-keyboard-response,618,8360005,learnblock2,846.6999999284744,img/planet6_left.png,6,Community 2,NA,TRUE,f,f,NA,NA,NA,3,6,"8,2,14,3,9,13,12,6,7,15,5,11,4,10,1"
14347,commdev-image-keyboard-response,619,8361258,learnblock2,882.2999999523163,img/planet11_right.png,11,Community 3,NA,TRUE,j,j,NA,NA,NA,3,6,"8,2,14,3,9,13,12,6,7,15,5,11,4,10,1"
14347,commdev-image-keyboard-response,620,8362518,learnblock2,884.6000000238419,img/planet6_left.png,6,Community 2,NA,TRUE,f,f,NA,NA,NA,3,6,"8,2,14,3,9,13,12,6,7,15,5,11,4,10,1"
14347,commdev-image-keyboard-response,621,8363772,learnblock2,832.5,img/planet12_right.png,12,Community 2,NA,TRUE,j,j,NA,NA,NA,3,6,"8,2,14,3,9,13,12,6,7,15,5,11,4,10,1"
14347,commdev-image-keyboard-response,622,8365027,learnblock2,826.6000000238419,img/planet7_right.png,7,Community 2,NA,TRUE,j,j,NA,NA,NA,3,6,"8,2,14,3,9,13,12,6,7,15,5,11,4,10,1"
14347,commdev-image-keyboard-response,623,8366282,learnblock2,779.7000000476837,img/planet6_right.png,6,Community 2,NA,TRUE,j,j,NA,NA,NA,3,6,"8,2,14,3,9,13,12,6,7,15,5,11,4,10,1"
14347,commdev-image-keyboard-response,624,8367539,learnblock2,844.2999999523163,img/planet7_left.png,7,Community 2,NA,TRUE,f,f,NA,NA,NA,3,6,"8,2,14,3,9,13,12,6,7,15,5,11,4,10,1"
14347,commdev-image-keyboard-response,625,8368798,learnblock2,731.5,img/planet6_right.png,6,Community 2,NA,TRUE,j,j,NA,NA,NA,3,6,"8,2,14,3,9,13,12,6,7,15,5,11,4,10,1"
14347,commdev-image-keyboard-response,626,8370053,learnblock2,729,img/planet12_left.png,12,Community 2,NA,TRUE,f,f,NA,NA,NA,3,6,"8,2,14,3,9,13,12,6,7,15,5,11,4,10,1"
14347,commdev-image-keyboard-response,627,8371307,learnblock2,426.10000002384186,img/planet15_right.png,15,Community 2,NA,TRUE,j,j,NA,NA,NA,3,6,"8,2,14,3,9,13,12,6,7,15,5,11,4,10,1"
14347,commdev-image-keyboard-response,628,8372566,learnblock2,876.3999999761581,img/planet6_right.png,6,Community 2,NA,TRUE,j,j,NA,NA,NA,3,6,"8,2,14,3,9,13,12,6,7,15,5,11,4,10,1"
14347,commdev-image-keyboard-response,629,8373820,learnblock2,856.3999999761581,img/planet15_right.png,15,Community 2,NA,TRUE,j,j,NA,NA,NA,3,6,"8,2,14,3,9,13,12,6,7,15,5,11,4,10,1"
14347,commdev-image-keyboard-response,630,8375079,learnblock2,1042.2999999523163,img/planet6_right.png,6,Community 2,NA,FALSE,f,j,NA,NA,NA,3,6,"8,2,14,3,9,13,12,6,7,15,5,11,4,10,1"
14347,commdev-image-keyboard-response,631,8376339,learnblock2,887.1999999284744,img/planet12_left.png,12,Community 2,NA,TRUE,f,f,NA,NA,NA,3,6,"8,2,14,3,9,13,12,6,7,15,5,11,4,10,1"
14347,commdev-image-keyboard-response,632,8377597,learnblock2,931.2000000476837,img/planet6_right.png,6,Community 2,NA,TRUE,j,j,NA,NA,NA,3,6,"8,2,14,3,9,13,12,6,7,15,5,11,4,10,1"
14347,commdev-image-keyboard-response,633,8378852,learnblock2,777.7999999523163,img/planet7_left.png,7,Community 2,NA,TRUE,f,f,NA,NA,NA,3,6,"8,2,14,3,9,13,12,6,7,15,5,11,4,10,1"
14347,commdev-image-keyboard-response,634,8380111,learnblock2,786.1000000238419,img/planet13_left.png,13,Community 2,NA,TRUE,f,f,NA,NA,NA,3,6,"8,2,14,3,9,13,12,6,7,15,5,11,4,10,1"
14347,commdev-image-keyboard-response,635,8381365,learnblock2,727.7000000476837,img/planet3_right.png,3,Community 1,NA,TRUE,j,j,NA,NA,NA,3,6,"8,2,14,3,9,13,12,6,7,15,5,11,4,10,1"
14347,commdev-image-keyboard-response,636,8382619,learnblock2,969.6000000238419,img/planet14_left.png,14,Community 1,NA,TRUE,f,f,NA,NA,NA,3,6,"8,2,14,3,9,13,12,6,7,15,5,11,4,10,1"
14347,commdev-image-keyboard-response,637,8383879,learnblock2,1147.7000000476837,img/planet8_right.png,8,Community 1,NA,TRUE,j,j,NA,NA,NA,3,6,"8,2,14,3,9,13,12,6,7,15,5,11,4,10,1"
14347,commdev-image-keyboard-response,638,8385139,learnblock2,519.1000000238419,img/planet3_right.png,3,Community 1,NA,FALSE,f,j,NA,NA,NA,3,6,"8,2,14,3,9,13,12,6,7,15,5,11,4,10,1"
14347,commdev-image-keyboard-response,639,8386395,learnblock2,946.6999999284744,img/planet8_left.png,8,Community 1,NA,TRUE,f,f,NA,NA,NA,3,6,"8,2,14,3,9,13,12,6,7,15,5,11,4,10,1"
14347,commdev-image-keyboard-response,640,8387653,learnblock2,674.6000000238419,img/planet9_right.png,9,Community 1,NA,TRUE,j,j,NA,NA,NA,3,6,"8,2,14,3,9,13,12,6,7,15,5,11,4,10,1"
14347,commdev-image-keyboard-response,641,8388907,learnblock2,857.2000000476837,img/planet8_right.png,8,Community 1,NA,TRUE,j,j,NA,NA,NA,3,6,"8,2,14,3,9,13,12,6,7,15,5,11,4,10,1"
14347,commdev-image-keyboard-response,642,8390166,learnblock2,891.2999999523163,img/planet14_right.png,14,Community 1,NA,TRUE,j,j,NA,NA,NA,3,6,"8,2,14,3,9,13,12,6,7,15,5,11,4,10,1"
14347,commdev-image-keyboard-response,643,8391420,learnblock2,679.6000000238419,img/planet2_right.png,2,Community 1,NA,TRUE,j,j,NA,NA,NA,3,6,"8,2,14,3,9,13,12,6,7,15,5,11,4,10,1"
14347,commdev-image-keyboard-response,644,8392674,learnblock2,1073.8999999761581,img/planet9_right.png,9,Community 1,NA,TRUE,j,j,NA,NA,NA,3,6,"8,2,14,3,9,13,12,6,7,15,5,11,4,10,1"
14347,commdev-image-keyboard-response,645,8393932,learnblock2,1148,img/planet14_right.png,14,Community 1,NA,TRUE,j,j,NA,NA,NA,3,6,"8,2,14,3,9,13,12,6,7,15,5,11,4,10,1"
14347,commdev-image-keyboard-response,646,8395188,learnblock2,1009.7000000476837,img/planet3_left.png,3,Community 1,NA,TRUE,f,f,NA,NA,NA,3,6,"8,2,14,3,9,13,12,6,7,15,5,11,4,10,1"
14347,commdev-image-keyboard-response,647,8396445,learnblock2,1002.2999999523163,img/planet8_left.png,8,Community 1,NA,TRUE,f,f,NA,NA,NA,3,6,"8,2,14,3,9,13,12,6,7,15,5,11,4,10,1"
14347,commdev-image-keyboard-response,648,8397701,learnblock2,969.1000000238419,img/planet14_right.png,14,Community 1,NA,FALSE,f,j,NA,NA,NA,3,6,"8,2,14,3,9,13,12,6,7,15,5,11,4,10,1"
14347,commdev-image-keyboard-response,649,8398955,learnblock2,0.8999999761581421,img/planet9_right.png,9,Community 1,NA,TRUE,j,j,NA,NA,NA,3,6,"8,2,14,3,9,13,12,6,7,15,5,11,4,10,1"
14347,commdev-image-keyboard-response,650,8400214,learnblock2,995.1000000238419,img/planet5_left.png,5,Community 3,NA,TRUE,f,f,NA,NA,NA,3,6,"8,2,14,3,9,13,12,6,7,15,5,11,4,10,1"
14347,commdev-image-keyboard-response,651,8401468,learnblock2,823.6000000238419,img/planet9_right.png,9,Community 1,NA,TRUE,j,j,NA,NA,NA,3,6,"8,2,14,3,9,13,12,6,7,15,5,11,4,10,1"
14347,commdev-image-keyboard-response,652,8402722,learnblock2,849.2999999523163,img/planet14_right.png,14,Community 1,NA,TRUE,j,j,NA,NA,NA,3,6,"8,2,14,3,9,13,12,6,7,15,5,11,4,10,1"
14347,commdev-image-keyboard-response,653,8403982,learnblock2,843.6000000238419,img/planet2_left.png,2,Community 1,NA,TRUE,f,f,NA,NA,NA,3,6,"8,2,14,3,9,13,12,6,7,15,5,11,4,10,1"
14347,commdev-image-keyboard-response,654,8405236,learnblock2,711.7000000476837,img/planet3_right.png,3,Community 1,NA,TRUE,j,j,NA,NA,NA,3,6,"8,2,14,3,9,13,12,6,7,15,5,11,4,10,1"
14347,commdev-image-keyboard-response,655,8406490,learnblock2,697.6000000238419,img/planet13_right.png,13,Community 2,NA,TRUE,j,j,NA,NA,NA,3,6,"8,2,14,3,9,13,12,6,7,15,5,11,4,10,1"
14347,commdev-image-keyboard-response,656,8407748,learnblock2,707.8999999761581,img/planet3_left.png,3,Community 1,NA,TRUE,f,f,NA,NA,NA,3,6,"8,2,14,3,9,13,12,6,7,15,5,11,4,10,1"
14347,commdev-image-keyboard-response,657,8409002,learnblock2,993,img/planet14_left.png,14,Community 1,NA,TRUE,f,f,NA,NA,NA,3,6,"8,2,14,3,9,13,12,6,7,15,5,11,4,10,1"
14347,commdev-image-keyboard-response,658,8410254,learnblock2,1051.7000000476837,img/planet9_left.png,9,Community 1,NA,TRUE,f,f,NA,NA,NA,3,6,"8,2,14,3,9,13,12,6,7,15,5,11,4,10,1"
14347,commdev-image-keyboard-response,659,8411505,learnblock2,727.5,img/planet5_right.png,5,Community 3,NA,TRUE,j,j,NA,NA,NA,3,6,"8,2,14,3,9,13,12,6,7,15,5,11,4,10,1"
14347,commdev-image-keyboard-response,660,8412758,learnblock2,828.5,img/planet10_left.png,10,Community 3,NA,FALSE,j,f,NA,NA,NA,3,6,"8,2,14,3,9,13,12,6,7,15,5,11,4,10,1"
14347,commdev-image-keyboard-response,661,8414018,learnblock2,671,img/planet1_right.png,1,Community 3,NA,TRUE,j,j,NA,NA,NA,3,6,"8,2,14,3,9,13,12,6,7,15,5,11,4,10,1"
14347,commdev-image-keyboard-response,662,8415273,learnblock2,827.1000000238419,img/planet10_right.png,10,Community 3,NA,TRUE,j,j,NA,NA,NA,3,6,"8,2,14,3,9,13,12,6,7,15,5,11,4,10,1"
14347,commdev-image-keyboard-response,663,8416534,learnblock2,884.3000000715256,img/planet4_right.png,4,Community 3,NA,TRUE,j,j,NA,NA,NA,3,6,"8,2,14,3,9,13,12,6,7,15,5,11,4,10,1"
14347,commdev-image-keyboard-response,664,8417786,learnblock2,983.6000000238419,img/planet1_right.png,1,Community 3,NA,TRUE,j,j,NA,NA,NA,3,6,"8,2,14,3,9,13,12,6,7,15,5,11,4,10,1"
14347,commdev-image-keyboard-response,665,8419045,learnblock2,947.3999999761581,img/planet10_right.png,10,Community 3,NA,TRUE,j,j,NA,NA,NA,3,6,"8,2,14,3,9,13,12,6,7,15,5,11,4,10,1"
14347,commdev-image-keyboard-response,666,8420302,learnblock2,759.8999999761581,img/planet1_right.png,1,Community 3,NA,TRUE,j,j,NA,NA,NA,3,6,"8,2,14,3,9,13,12,6,7,15,5,11,4,10,1"
14347,commdev-image-keyboard-response,667,8421553,learnblock2,79.39999997615814,img/planet10_right.png,10,Community 3,NA,TRUE,j,j,NA,NA,NA,3,6,"8,2,14,3,9,13,12,6,7,15,5,11,4,10,1"
14347,commdev-image-keyboard-response,668,8422810,learnblock2,108,img/planet1_left.png,1,Community 3,NA,FALSE,j,f,NA,NA,NA,3,6,"8,2,14,3,9,13,12,6,7,15,5,11,4,10,1"
14347,commdev-image-keyboard-response,669,8424066,learnblock2,579.3000000715256,img/planet10_right.png,10,Community 3,NA,TRUE,j,j,NA,NA,NA,3,6,"8,2,14,3,9,13,12,6,7,15,5,11,4,10,1"
14347,commdev-image-keyboard-response,670,8425320,learnblock2,715.2999999523163,img/planet1_right.png,1,Community 3,NA,TRUE,j,j,NA,NA,NA,3,6,"8,2,14,3,9,13,12,6,7,15,5,11,4,10,1"
14347,commdev-image-keyboard-response,671,8426580,learnblock2,844.8000000715256,img/planet4_left.png,4,Community 3,NA,FALSE,j,f,NA,NA,NA,3,6,"8,2,14,3,9,13,12,6,7,15,5,11,4,10,1"
14347,commdev-image-keyboard-response,672,8427835,learnblock2,745,img/planet1_left.png,1,Community 3,NA,TRUE,f,f,NA,NA,NA,3,6,"8,2,14,3,9,13,12,6,7,15,5,11,4,10,1"
14347,commdev-image-keyboard-response,673,8429093,learnblock2,761.7999999523163,img/planet11_left.png,11,Community 3,NA,TRUE,f,f,NA,NA,NA,3,6,"8,2,14,3,9,13,12,6,7,15,5,11,4,10,1"
14347,commdev-image-keyboard-response,674,8430353,learnblock2,799.3999999761581,img/planet1_right.png,1,Community 3,NA,TRUE,j,j,NA,NA,NA,3,6,"8,2,14,3,9,13,12,6,7,15,5,11,4,10,1"
14347,commdev-image-keyboard-response,675,8431610,learnblock2,755.2999999523163,img/planet5_left.png,5,Community 3,NA,FALSE,j,f,NA,NA,NA,3,6,"8,2,14,3,9,13,12,6,7,15,5,11,4,10,1"
14347,commdev-image-keyboard-response,676,8432867,learnblock2,898.2999999523163,img/planet1_left.png,1,Community 3,NA,FALSE,j,f,NA,NA,NA,3,6,"8,2,14,3,9,13,12,6,7,15,5,11,4,10,1"
14347,commdev-image-keyboard-response,677,8434124,learnblock2,930.3000000715256,img/planet10_right.png,10,Community 3,NA,TRUE,j,j,NA,NA,NA,3,6,"8,2,14,3,9,13,12,6,7,15,5,11,4,10,1"
14347,commdev-image-keyboard-response,678,8435380,learnblock2,1081.1000000238419,img/planet11_right.png,11,Community 3,NA,TRUE,j,j,NA,NA,NA,3,6,"8,2,14,3,9,13,12,6,7,15,5,11,4,10,1"
14347,commdev-image-keyboard-response,679,8436634,learnblock2,720.5,img/planet6_left.png,6,Community 2,NA,FALSE,j,f,NA,NA,NA,3,6,"8,2,14,3,9,13,12,6,7,15,5,11,4,10,1"
14347,commdev-image-keyboard-response,680,8437893,learnblock2,658.7000000476837,img/planet15_left.png,15,Community 2,NA,FALSE,j,f,NA,NA,NA,3,6,"8,2,14,3,9,13,12,6,7,15,5,11,4,10,1"
14347,commdev-image-keyboard-response,681,8439153,learnblock2,679.2999999523163,img/planet7_left.png,7,Community 2,NA,FALSE,j,f,NA,NA,NA,3,6,"8,2,14,3,9,13,12,6,7,15,5,11,4,10,1"
14347,commdev-image-keyboard-response,682,8440413,learnblock2,1035.7999999523163,img/planet6_left.png,6,Community 2,NA,TRUE,f,f,NA,NA,NA,3,6,"8,2,14,3,9,13,12,6,7,15,5,11,4,10,1"
14347,commdev-image-keyboard-response,683,8441667,learnblock2,799.6000000238419,img/planet15_right.png,15,Community 2,NA,TRUE,j,j,NA,NA,NA,3,6,"8,2,14,3,9,13,12,6,7,15,5,11,4,10,1"
14347,commdev-image-keyboard-response,684,8442923,learnblock2,985.6000000238419,img/planet6_right.png,6,Community 2,NA,TRUE,j,j,NA,NA,NA,3,6,"8,2,14,3,9,13,12,6,7,15,5,11,4,10,1"
14347,commdev-image-keyboard-response,685,8444180,learnblock2,1080.7999999523163,img/planet7_left.png,7,Community 2,NA,TRUE,f,f,NA,NA,NA,3,6,"8,2,14,3,9,13,12,6,7,15,5,11,4,10,1"
14347,commdev-image-keyboard-response,686,8445437,learnblock2,960.2999999523163,img/planet6_left.png,6,Community 2,NA,TRUE,f,f,NA,NA,NA,3,6,"8,2,14,3,9,13,12,6,7,15,5,11,4,10,1"
14347,commdev-image-keyboard-response,687,8446699,learnblock2,935.6000000238419,img/planet11_right.png,11,Community 3,NA,TRUE,j,j,NA,NA,NA,3,6,"8,2,14,3,9,13,12,6,7,15,5,11,4,10,1"
14347,commdev-image-keyboard-response,688,8447954,learnblock2,977,img/planet6_right.png,6,Community 2,NA,TRUE,j,j,NA,NA,NA,3,6,"8,2,14,3,9,13,12,6,7,15,5,11,4,10,1"
14347,commdev-image-keyboard-response,689,8449213,learnblock2,834.7000000476837,img/planet15_right.png,15,Community 2,NA,TRUE,j,j,NA,NA,NA,3,6,"8,2,14,3,9,13,12,6,7,15,5,11,4,10,1"
14347,commdev-image-keyboard-response,690,8450467,learnblock2,935.6000000238419,img/planet7_left.png,7,Community 2,NA,TRUE,f,f,NA,NA,NA,3,6,"8,2,14,3,9,13,12,6,7,15,5,11,4,10,1"
14347,commdev-image-keyboard-response,691,8451721,learnblock2,833.2000000476837,img/planet13_left.png,13,Community 2,NA,TRUE,f,f,NA,NA,NA,3,6,"8,2,14,3,9,13,12,6,7,15,5,11,4,10,1"
14347,commdev-image-keyboard-response,692,8452980,learnblock2,923.6000000238419,img/planet15_right.png,15,Community 2,NA,TRUE,j,j,NA,NA,NA,3,6,"8,2,14,3,9,13,12,6,7,15,5,11,4,10,1"
14347,commdev-image-keyboard-response,693,8454234,learnblock2,791.7999999523163,img/planet13_right.png,13,Community 2,NA,TRUE,j,j,NA,NA,NA,3,6,"8,2,14,3,9,13,12,6,7,15,5,11,4,10,1"
14347,commdev-image-keyboard-response,694,8455488,learnblock2,690.1000000238419,img/planet3_right.png,3,Community 1,NA,TRUE,j,j,NA,NA,NA,3,6,"8,2,14,3,9,13,12,6,7,15,5,11,4,10,1"
14347,commdev-image-keyboard-response,695,8456748,learnblock2,772,img/planet8_right.png,8,Community 1,NA,TRUE,j,j,NA,NA,NA,3,6,"8,2,14,3,9,13,12,6,7,15,5,11,4,10,1"
14347,commdev-image-keyboard-response,696,8458001,learnblock2,832.7999999523163,img/planet14_right.png,14,Community 1,NA,TRUE,j,j,NA,NA,NA,3,6,"8,2,14,3,9,13,12,6,7,15,5,11,4,10,1"
14347,commdev-image-keyboard-response,697,8459258,learnblock2,826.5,img/planet8_right.png,8,Community 1,NA,TRUE,j,j,NA,NA,NA,3,6,"8,2,14,3,9,13,12,6,7,15,5,11,4,10,1"
14347,commdev-image-keyboard-response,698,8460516,learnblock2,1058.1000000238419,img/planet14_right.png,14,Community 1,NA,TRUE,j,j,NA,NA,NA,3,6,"8,2,14,3,9,13,12,6,7,15,5,11,4,10,1"
14347,commdev-image-keyboard-response,699,8461780,learnblock2,791.3999999761581,img/planet3_left.png,3,Community 1,NA,FALSE,j,f,NA,NA,NA,3,6,"8,2,14,3,9,13,12,6,7,15,5,11,4,10,1"
14347,commdev-image-keyboard-response,700,8463040,learnblock2,591.5,img/planet2_left.png,2,Community 1,NA,TRUE,f,f,NA,NA,NA,3,6,"8,2,14,3,9,13,12,6,7,15,5,11,4,10,1"
14347,commdev-image-keyboard-response,701,8464300,learnblock2,971.7999999523163,img/planet8_left.png,8,Community 1,NA,TRUE,f,f,NA,NA,NA,3,6,"8,2,14,3,9,13,12,6,7,15,5,11,4,10,1"
14347,commdev-image-keyboard-response,702,8465553,learnblock2,832.2000000476837,img/planet14_left.png,14,Community 1,NA,TRUE,f,f,NA,NA,NA,3,6,"8,2,14,3,9,13,12,6,7,15,5,11,4,10,1"
14347,commdev-image-keyboard-response,703,8466807,learnblock2,818.2999999523163,img/planet3_right.png,3,Community 1,NA,TRUE,j,j,NA,NA,NA,3,6,"8,2,14,3,9,13,12,6,7,15,5,11,4,10,1"
14347,commdev-image-keyboard-response,704,8468067,learnblock2,860.7000000476837,img/planet8_right.png,8,Community 1,NA,TRUE,j,j,NA,NA,NA,3,6,"8,2,14,3,9,13,12,6,7,15,5,11,4,10,1"
14347,commdev-image-keyboard-response,705,8469321,learnblock2,1240.7999999523163,img/planet9_right.png,9,Community 1,NA,TRUE,j,j,NA,NA,NA,3,6,"8,2,14,3,9,13,12,6,7,15,5,11,4,10,1"
14347,commdev-image-keyboard-response,706,8470580,learnblock2,1026.6999999284744,img/planet5_right.png,5,Community 3,NA,TRUE,j,j,NA,NA,NA,3,6,"8,2,14,3,9,13,12,6,7,15,5,11,4,10,1"
14347,commdev-image-keyboard-response,707,8471834,learnblock2,855.5,img/planet4_left.png,4,Community 3,NA,TRUE,f,f,NA,NA,NA,3,6,"8,2,14,3,9,13,12,6,7,15,5,11,4,10,1"
14347,commdev-image-keyboard-response,708,8473088,learnblock2,1025,img/planet5_left.png,5,Community 3,NA,TRUE,f,f,NA,NA,NA,3,6,"8,2,14,3,9,13,12,6,7,15,5,11,4,10,1"
14347,commdev-image-keyboard-response,709,8474343,learnblock2,731.1999999284744,img/planet9_left.png,9,Community 1,NA,FALSE,j,f,NA,NA,NA,3,6,"8,2,14,3,9,13,12,6,7,15,5,11,4,10,1"
14347,commdev-image-keyboard-response,710,8475602,learnblock2,null,img/planet2_left.png,2,Community 1,NA,FALSE,null,f,NA,NA,NA,3,6,"8,2,14,3,9,13,12,6,7,15,5,11,4,10,1"
14347,commdev-image-keyboard-response,711,8476855,learnblock2,113.79999995231628,img/planet8_left.png,8,Community 1,NA,TRUE,f,f,NA,NA,NA,3,6,"8,2,14,3,9,13,12,6,7,15,5,11,4,10,1"
14347,commdev-image-keyboard-response,712,8478116,learnblock2,1236.3000000715256,img/planet14_left.png,14,Community 1,NA,TRUE,f,f,NA,NA,NA,3,6,"8,2,14,3,9,13,12,6,7,15,5,11,4,10,1"
14347,commdev-image-keyboard-response,713,8479369,learnblock2,951.8999999761581,img/planet9_right.png,9,Community 1,NA,TRUE,j,j,NA,NA,NA,3,6,"8,2,14,3,9,13,12,6,7,15,5,11,4,10,1"
14347,commdev-image-keyboard-response,714,8480623,learnblock2,970.3999999761581,img/planet14_left.png,14,Community 1,NA,TRUE,f,f,NA,NA,NA,3,6,"8,2,14,3,9,13,12,6,7,15,5,11,4,10,1"
14347,commdev-image-keyboard-response,715,8481883,learnblock2,804.3999999761581,img/planet9_right.png,9,Community 1,NA,FALSE,f,j,NA,NA,NA,3,6,"8,2,14,3,9,13,12,6,7,15,5,11,4,10,1"
14347,commdev-image-keyboard-response,716,8483136,learnblock2,1184.6999999284744,img/planet14_left.png,14,Community 1,NA,TRUE,f,f,NA,NA,NA,3,6,"8,2,14,3,9,13,12,6,7,15,5,11,4,10,1"
14347,commdev-image-keyboard-response,717,8484392,learnblock2,747.6000000238419,img/planet9_right.png,9,Community 1,NA,TRUE,j,j,NA,NA,NA,3,6,"8,2,14,3,9,13,12,6,7,15,5,11,4,10,1"
14347,commdev-image-keyboard-response,718,8485651,learnblock2,891.1000000238419,img/planet5_right.png,5,Community 3,NA,TRUE,j,j,NA,NA,NA,3,6,"8,2,14,3,9,13,12,6,7,15,5,11,4,10,1"
14347,commdev-image-keyboard-response,719,8486904,learnblock2,751.6000000238419,img/planet10_right.png,10,Community 3,NA,TRUE,j,j,NA,NA,NA,3,6,"8,2,14,3,9,13,12,6,7,15,5,11,4,10,1"
14347,commdev-image-keyboard-response,720,8488163,learnblock2,859.6000000238419,img/planet1_left.png,1,Community 3,NA,TRUE,f,f,NA,NA,NA,3,6,"8,2,14,3,9,13,12,6,7,15,5,11,4,10,1"
14347,commdev-image-keyboard-response,721,8489417,learnblock2,864.3000000715256,img/planet5_left.png,5,Community 3,NA,TRUE,f,f,NA,NA,NA,3,6,"8,2,14,3,9,13,12,6,7,15,5,11,4,10,1"
14347,commdev-image-keyboard-response,722,8490671,learnblock2,954,img/planet10_right.png,10,Community 3,NA,TRUE,j,j,NA,NA,NA,3,6,"8,2,14,3,9,13,12,6,7,15,5,11,4,10,1"
14347,commdev-image-keyboard-response,723,8491930,learnblock2,988.1000000238419,img/planet1_right.png,1,Community 3,NA,TRUE,j,j,NA,NA,NA,3,6,"8,2,14,3,9,13,12,6,7,15,5,11,4,10,1"
14347,commdev-image-keyboard-response,724,8493184,learnblock2,816.5,img/planet4_left.png,4,Community 3,NA,TRUE,f,f,NA,NA,NA,3,6,"8,2,14,3,9,13,12,6,7,15,5,11,4,10,1"
14347,commdev-image-keyboard-response,725,8494438,learnblock2,698.5,img/planet11_left.png,11,Community 3,NA,FALSE,j,f,NA,NA,NA,3,6,"8,2,14,3,9,13,12,6,7,15,5,11,4,10,1"
