subject_id,trial_type,trial_index,time_elapsed,block,rt,stimulus,planet,community,response,correct,key_press,learning_correct_response,parse,init_locations,final_locations,browser_interactions,num_comp,planet_map
15032,commdev-instructions,7,203207,NA,4135.399999976158,"<p>In this game, you will be shown a 3x3 grid of patterns.</p> <p>The last one in the bottom right-hand corner, <strong>will be missing:</strong></p> <div style='width: 700px;'><div style='float: top;'><img style='width: 200px;' src='practice/p1_M1.png'></img><p class='small'>You need to select<strong> which of the four possible patterns </strong>along the bottom<strong> fits into the gap:</strong></p></div><div style='float: top;'><img style='width: 300px;' src='practice/p1_T1.png'></img></div><br>",NA,NA,NA,NA,NA,NA,NA,NA,NA,2,6,"12,1,13,6,14,8,10,11,3,9,4,2,15,7,5"
15032,commdev-instructions,8,230124,NA,4597.100000023842,"<p>Try to be as fast and as accurate as you can be.</p> <p>If you cannot solve the puzzle then you should guess - you will not be penalised for an incorrect answer.</p> <p>The task contains a shuffled mix of easy, medium and hard puzzles.</p> <p>You will have <strong>30 seconds</strong> to complete each puzzle.</p><br>",NA,NA,NA,NA,NA,NA,NA,NA,NA,2,6,"12,1,13,6,14,8,10,11,3,9,4,2,15,7,5"
15032,commdev-instructions,15,264844,NA,3990.100000023842,<p><strong>Success!</strong></p> <p>You seem to be getting the hang of this...</p> <p>Let's move on to the real trials.</p><br>,NA,NA,NA,NA,NA,NA,NA,NA,NA,2,6,"12,1,13,6,14,8,10,11,3,9,4,2,15,7,5"
15032,commdev-instructions,81,759234,NA,2062.399999976158,"<p>In this game, you are a scientist on board a space shuttle. </p><p> On each mission, you will visit planets all across the universe.</p><img src=""img/controlroom.jpg"" width=300vw>",NA,NA,NA,NA,NA,NA,NA,NA,NA,2,6,"12,1,13,6,14,8,10,11,3,9,4,2,15,7,5"
15032,commdev-instructions,82,770385,NA,9064.299999952316,"<p>Here are a few planets you might see:</p><img src=""img/practice1.png"" width=200vw><img src=""img/practice2.png"" width=200vw><img src=""img/practice3.png"" width=200vw>",NA,NA,NA,NA,NA,NA,NA,NA,NA,2,6,"12,1,13,6,14,8,10,11,3,9,4,2,15,7,5"
15032,commdev-instructions,83,784070,NA,6290.200000047684,"<p>Your job as a scientist is to record which direction the winds are moving on each planet.</p><p>There are two types of wind directions:</p><img src=""img/practice1_left.png"" width=200vw><img src=""img/practice1_right.png"" width=200vw>",NA,NA,NA,NA,NA,NA,NA,NA,NA,2,6,"12,1,13,6,14,8,10,11,3,9,4,2,15,7,5"
15032,commdev-instructions,84,797229,NA,8281.700000047684,"<p>If the winds are moving this way, press the letter <strong>F</strong> on the keyboard as fast as you can.</p><img src=""img/leftwind.png"" width=250vw>",NA,NA,NA,NA,NA,NA,NA,NA,NA,2,6,"12,1,13,6,14,8,10,11,3,9,4,2,15,7,5"
15032,commdev-instructions,85,810984,NA,9258.399999976158,"<p>If the winds are moving this way, press the letter <strong>J</strong> on the keyboard as fast as you can.</p><img src=""img/rightwind.png"" width=350vw>",NA,NA,NA,NA,NA,NA,NA,NA,NA,2,6,"12,1,13,6,14,8,10,11,3,9,4,2,15,7,5"
15032,commdev-instructions,86,818705,NA,3304.5,<p>You will have 1 second to respond. Try to respond before the time runs out!,NA,NA,NA,NA,NA,NA,NA,NA,NA,2,6,"12,1,13,6,14,8,10,11,3,9,4,2,15,7,5"
15032,commdev-instructions,87,827473,NA,3315.2999999523163,<p>The planets you will visit will look different from each other.</p><p>You should respond <strong>only</strong> based on wind direction.,NA,NA,NA,NA,NA,NA,NA,NA,NA,2,6,"12,1,13,6,14,8,10,11,3,9,4,2,15,7,5"
15032,commdev-instructions,88,840300,NA,7662.399999976158,"<p> Ready to start the practice round? </p><p> Remember, press <strong>F</strong> or <strong>J</strong> depending on the wind direction.<br><img src=""img/categorize_planet_example.png""",NA,NA,NA,NA,NA,NA,NA,NA,NA,2,6,"12,1,13,6,14,8,10,11,3,9,4,2,15,7,5"
15032,commdev-instructions,100,912350,NA,4028.3000000715256,"<p>Great, now try a short practice mission. </p><p> This time, you will have 1 second to respond and you won't know whether you pressed the right or wrong key for each planet.</p>",NA,NA,NA,NA,NA,NA,NA,NA,NA,2,6,"12,1,13,6,14,8,10,11,3,9,4,2,15,7,5"
15032,commdev-image-keyboard-response,101,913724,practice,504.60000002384186,img/practice2_left.png,NA,Number not found in mappings,NA,TRUE,f,f,NA,NA,NA,2,6,"12,1,13,6,14,8,10,11,3,9,4,2,15,7,5"
15032,commdev-image-keyboard-response,102,914987,practice,983.1000000238419,img/practice3_right.png,NA,Number not found in mappings,NA,TRUE,j,j,NA,NA,NA,2,6,"12,1,13,6,14,8,10,11,3,9,4,2,15,7,5"
15032,commdev-image-keyboard-response,103,916249,practice,922.6000000238419,img/practice1_left.png,NA,Number not found in mappings,NA,TRUE,f,f,NA,NA,NA,2,6,"12,1,13,6,14,8,10,11,3,9,4,2,15,7,5"
15032,commdev-image-keyboard-response,104,917513,practice,1134.6000000238419,img/practice4_right.png,NA,Number not found in mappings,NA,TRUE,j,j,NA,NA,NA,2,6,"12,1,13,6,14,8,10,11,3,9,4,2,15,7,5"
15032,commdev-image-keyboard-response,105,918768,practice,896.8999999761581,img/practice3_left.png,NA,Number not found in mappings,NA,FALSE,j,f,NA,NA,NA,2,6,"12,1,13,6,14,8,10,11,3,9,4,2,15,7,5"
15032,commdev-image-keyboard-response,106,920026,practice,672.5,img/practice4_right.png,NA,Number not found in mappings,NA,TRUE,j,j,NA,NA,NA,2,6,"12,1,13,6,14,8,10,11,3,9,4,2,15,7,5"
15032,commdev-image-keyboard-response,107,921290,practice,597.8999999761581,img/practice1_right.png,NA,Number not found in mappings,NA,TRUE,j,j,NA,NA,NA,2,6,"12,1,13,6,14,8,10,11,3,9,4,2,15,7,5"
15032,commdev-image-keyboard-response,108,922544,practice,492.39999997615814,img/practice4_left.png,NA,Number not found in mappings,NA,TRUE,f,f,NA,NA,NA,2,6,"12,1,13,6,14,8,10,11,3,9,4,2,15,7,5"
15032,commdev-instructions,109,933468,NA,1365.7000000476837,"<p>Great job with the practice round.</p><p>During real missions, you won't know whether you pressed the right or wrong key for each planet.</p><p>But between missions, we will tell you how you did overall.</p>",NA,NA,NA,NA,NA,NA,NA,NA,NA,2,6,"12,1,13,6,14,8,10,11,3,9,4,2,15,7,5"
15032,commdev-instructions,110,945515,NA,3812.8000000715256,<p>Try your best! You will be paid a bonus based on how many correct responses you make!</p><p>Responses that are too slow will not count toward your bonus.</p>,NA,NA,NA,NA,NA,NA,NA,NA,NA,2,6,"12,1,13,6,14,8,10,11,3,9,4,2,15,7,5"
15032,commdev-instructions,111,956140,NA,4411,"<p>You are almost ready to start the real game.</p><p> First, we are going to ask you some questions about how the game works.</p>",NA,NA,NA,NA,NA,NA,NA,NA,NA,2,6,"12,1,13,6,14,8,10,11,3,9,4,2,15,7,5"
15032,commdev-instructions,120,1052035,NA,2760.5,"<p> Nice work! It is now time to start the real game.<p></p>You will go on two missions to record wind directions of different planets.<p></p>Each one will take about 5 minutes. You will get to take a break between missions.<p><p> Remember, press <strong>F</strong> or <strong>J</strong> depending on the wind direction. Good luck!<br><img src=""img/categorize_planet_example.png""",NA,NA,NA,NA,NA,NA,NA,NA,NA,2,6,"12,1,13,6,14,8,10,11,3,9,4,2,15,7,5"
15032,commdev-image-keyboard-response,122,1060602,learnblock1,null,img/planet6_left.png,6,Community 1,NA,FALSE,null,f,NA,NA,NA,2,6,"12,1,13,6,14,8,10,11,3,9,4,2,15,7,5"
15032,commdev-image-keyboard-response,123,1061865,learnblock1,943.8000000715256,img/planet1_left.png,1,Community 1,NA,FALSE,j,f,NA,NA,NA,2,6,"12,1,13,6,14,8,10,11,3,9,4,2,15,7,5"
15032,commdev-image-keyboard-response,124,1063130,learnblock1,779.5999999046326,img/planet14_right.png,14,Community 1,NA,FALSE,f,j,NA,NA,NA,2,6,"12,1,13,6,14,8,10,11,3,9,4,2,15,7,5"
15032,commdev-image-keyboard-response,125,1064393,learnblock1,579.7000000476837,img/planet12_right.png,12,Community 1,NA,TRUE,j,j,NA,NA,NA,2,6,"12,1,13,6,14,8,10,11,3,9,4,2,15,7,5"
15032,commdev-image-keyboard-response,126,1065651,learnblock1,1119.2000000476837,img/planet14_left.png,14,Community 1,NA,TRUE,f,f,NA,NA,NA,2,6,"12,1,13,6,14,8,10,11,3,9,4,2,15,7,5"
15032,commdev-image-keyboard-response,127,1066904,learnblock1,1141,img/planet1_right.png,1,Community 1,NA,FALSE,f,j,NA,NA,NA,2,6,"12,1,13,6,14,8,10,11,3,9,4,2,15,7,5"
15032,commdev-image-keyboard-response,128,1068169,learnblock1,984.7999999523163,img/planet13_left.png,13,Community 1,NA,FALSE,j,f,NA,NA,NA,2,6,"12,1,13,6,14,8,10,11,3,9,4,2,15,7,5"
15032,commdev-image-keyboard-response,129,1069428,learnblock1,760.5,img/planet6_left.png,6,Community 1,NA,FALSE,j,f,NA,NA,NA,2,6,"12,1,13,6,14,8,10,11,3,9,4,2,15,7,5"
15032,commdev-image-keyboard-response,130,1070686,learnblock1,1014.4000000953674,img/planet8_right.png,8,Community 2,NA,TRUE,j,j,NA,NA,NA,2,6,"12,1,13,6,14,8,10,11,3,9,4,2,15,7,5"
15032,commdev-image-keyboard-response,131,1071950,learnblock1,null,img/planet6_right.png,6,Community 1,NA,FALSE,null,j,NA,NA,NA,2,6,"12,1,13,6,14,8,10,11,3,9,4,2,15,7,5"
15032,commdev-image-keyboard-response,132,1073209,learnblock1,662.1000000238419,img/planet13_right.png,13,Community 1,NA,FALSE,f,j,NA,NA,NA,2,6,"12,1,13,6,14,8,10,11,3,9,4,2,15,7,5"
15032,commdev-image-keyboard-response,133,1074464,learnblock1,351.2000000476837,img/planet12_right.png,12,Community 1,NA,TRUE,j,j,NA,NA,NA,2,6,"12,1,13,6,14,8,10,11,3,9,4,2,15,7,5"
15032,commdev-image-keyboard-response,134,1075721,learnblock1,252.39999997615814,img/planet6_left.png,6,Community 1,NA,TRUE,f,f,NA,NA,NA,2,6,"12,1,13,6,14,8,10,11,3,9,4,2,15,7,5"
15032,commdev-image-keyboard-response,135,1076974,learnblock1,303.39999997615814,img/planet13_right.png,13,Community 1,NA,FALSE,f,j,NA,NA,NA,2,6,"12,1,13,6,14,8,10,11,3,9,4,2,15,7,5"
15032,commdev-image-keyboard-response,136,1078238,learnblock1,583,img/planet12_left.png,12,Community 1,NA,TRUE,f,f,NA,NA,NA,2,6,"12,1,13,6,14,8,10,11,3,9,4,2,15,7,5"
15032,commdev-image-keyboard-response,137,1079492,learnblock1,714.7999999523163,img/planet14_left.png,14,Community 1,NA,TRUE,f,f,NA,NA,NA,2,6,"12,1,13,6,14,8,10,11,3,9,4,2,15,7,5"
15032,commdev-image-keyboard-response,138,1080748,learnblock1,712.5,img/planet4_right.png,4,Community 3,NA,TRUE,j,j,NA,NA,NA,2,6,"12,1,13,6,14,8,10,11,3,9,4,2,15,7,5"
15032,commdev-image-keyboard-response,139,1082004,learnblock1,727.8999999761581,img/planet7_right.png,7,Community 3,NA,FALSE,f,j,NA,NA,NA,2,6,"12,1,13,6,14,8,10,11,3,9,4,2,15,7,5"
15032,commdev-image-keyboard-response,140,1083260,learnblock1,686.6000000238419,img/planet4_left.png,4,Community 3,NA,TRUE,f,f,NA,NA,NA,2,6,"12,1,13,6,14,8,10,11,3,9,4,2,15,7,5"
15032,commdev-image-keyboard-response,141,1084521,learnblock1,559.8999999761581,img/planet7_right.png,7,Community 3,NA,FALSE,f,j,NA,NA,NA,2,6,"12,1,13,6,14,8,10,11,3,9,4,2,15,7,5"
15032,commdev-image-keyboard-response,142,1085777,learnblock1,711.3000000715256,img/planet4_left.png,4,Community 3,NA,FALSE,j,f,NA,NA,NA,2,6,"12,1,13,6,14,8,10,11,3,9,4,2,15,7,5"
15032,commdev-image-keyboard-response,143,1087037,learnblock1,351.89999997615814,img/planet15_right.png,15,Community 3,NA,FALSE,f,j,NA,NA,NA,2,6,"12,1,13,6,14,8,10,11,3,9,4,2,15,7,5"
15032,commdev-image-keyboard-response,144,1088300,learnblock1,513.1000000238419,img/planet5_left.png,5,Community 3,NA,TRUE,f,f,NA,NA,NA,2,6,"12,1,13,6,14,8,10,11,3,9,4,2,15,7,5"
15032,commdev-image-keyboard-response,145,1089551,learnblock1,335.2000000476837,img/planet7_left.png,7,Community 3,NA,TRUE,f,f,NA,NA,NA,2,6,"12,1,13,6,14,8,10,11,3,9,4,2,15,7,5"
15032,commdev-image-keyboard-response,146,1090811,learnblock1,348.60000002384186,img/planet15_left.png,15,Community 3,NA,TRUE,f,f,NA,NA,NA,2,6,"12,1,13,6,14,8,10,11,3,9,4,2,15,7,5"
15032,commdev-image-keyboard-response,147,1092071,learnblock1,824,img/planet7_right.png,7,Community 3,NA,TRUE,j,j,NA,NA,NA,2,6,"12,1,13,6,14,8,10,11,3,9,4,2,15,7,5"
15032,commdev-image-keyboard-response,148,1093333,learnblock1,626.7000000476837,img/planet2_left.png,2,Community 3,NA,TRUE,f,f,NA,NA,NA,2,6,"12,1,13,6,14,8,10,11,3,9,4,2,15,7,5"
15032,commdev-image-keyboard-response,149,1094589,learnblock1,646.6000000238419,img/planet5_left.png,5,Community 3,NA,TRUE,f,f,NA,NA,NA,2,6,"12,1,13,6,14,8,10,11,3,9,4,2,15,7,5"
15032,commdev-image-keyboard-response,150,1095847,learnblock1,496.89999997615814,img/planet2_right.png,2,Community 3,NA,FALSE,f,j,NA,NA,NA,2,6,"12,1,13,6,14,8,10,11,3,9,4,2,15,7,5"
15032,commdev-image-keyboard-response,151,1097105,learnblock1,359.5,img/planet15_left.png,15,Community 3,NA,TRUE,f,f,NA,NA,NA,2,6,"12,1,13,6,14,8,10,11,3,9,4,2,15,7,5"
15032,commdev-image-keyboard-response,152,1098373,learnblock1,354.8000000715256,img/planet7_left.png,7,Community 3,NA,TRUE,f,f,NA,NA,NA,2,6,"12,1,13,6,14,8,10,11,3,9,4,2,15,7,5"
15032,commdev-image-keyboard-response,153,1099631,learnblock1,447.60000002384186,img/planet15_right.png,15,Community 3,NA,FALSE,f,j,NA,NA,NA,2,6,"12,1,13,6,14,8,10,11,3,9,4,2,15,7,5"
15032,commdev-image-keyboard-response,154,1100889,learnblock1,492.89999997615814,img/planet7_left.png,7,Community 3,NA,FALSE,j,f,NA,NA,NA,2,6,"12,1,13,6,14,8,10,11,3,9,4,2,15,7,5"
15032,commdev-image-keyboard-response,155,1102145,learnblock1,470.8000000715256,img/planet2_right.png,2,Community 3,NA,TRUE,j,j,NA,NA,NA,2,6,"12,1,13,6,14,8,10,11,3,9,4,2,15,7,5"
15032,commdev-image-keyboard-response,156,1103397,learnblock1,333.2000000476837,img/planet15_left.png,15,Community 3,NA,FALSE,j,f,NA,NA,NA,2,6,"12,1,13,6,14,8,10,11,3,9,4,2,15,7,5"
15032,commdev-image-keyboard-response,157,1104658,learnblock1,263.7000000476837,img/planet7_right.png,7,Community 3,NA,TRUE,j,j,NA,NA,NA,2,6,"12,1,13,6,14,8,10,11,3,9,4,2,15,7,5"
15032,commdev-image-keyboard-response,158,1105915,learnblock1,165.60000002384186,img/planet15_left.png,15,Community 3,NA,FALSE,j,f,NA,NA,NA,2,6,"12,1,13,6,14,8,10,11,3,9,4,2,15,7,5"
15032,commdev-image-keyboard-response,159,1107174,learnblock1,431.7000000476837,img/planet7_left.png,7,Community 3,NA,FALSE,j,f,NA,NA,NA,2,6,"12,1,13,6,14,8,10,11,3,9,4,2,15,7,5"
15032,commdev-image-keyboard-response,160,1108431,learnblock1,85.70000004768372,img/planet4_left.png,4,Community 3,NA,FALSE,j,f,NA,NA,NA,2,6,"12,1,13,6,14,8,10,11,3,9,4,2,15,7,5"
15032,commdev-image-keyboard-response,161,1109689,learnblock1,407,img/planet7_right.png,7,Community 3,NA,TRUE,j,j,NA,NA,NA,2,6,"12,1,13,6,14,8,10,11,3,9,4,2,15,7,5"
15032,commdev-image-keyboard-response,162,1110946,learnblock1,884,img/planet2_right.png,2,Community 3,NA,TRUE,j,j,NA,NA,NA,2,6,"12,1,13,6,14,8,10,11,3,9,4,2,15,7,5"
15032,commdev-image-keyboard-response,163,1112200,learnblock1,414,img/planet15_left.png,15,Community 3,NA,FALSE,j,f,NA,NA,NA,2,6,"12,1,13,6,14,8,10,11,3,9,4,2,15,7,5"
15032,commdev-image-keyboard-response,164,1113459,learnblock1,454,img/planet4_left.png,4,Community 3,NA,FALSE,j,f,NA,NA,NA,2,6,"12,1,13,6,14,8,10,11,3,9,4,2,15,7,5"
15032,commdev-image-keyboard-response,165,1114713,learnblock1,606.3999999761581,img/planet15_right.png,15,Community 3,NA,TRUE,j,j,NA,NA,NA,2,6,"12,1,13,6,14,8,10,11,3,9,4,2,15,7,5"
15032,commdev-image-keyboard-response,166,1115972,learnblock1,335.2999999523163,img/planet2_left.png,2,Community 3,NA,TRUE,f,f,NA,NA,NA,2,6,"12,1,13,6,14,8,10,11,3,9,4,2,15,7,5"
15032,commdev-image-keyboard-response,167,1117227,learnblock1,356.1999999284744,img/planet5_left.png,5,Community 3,NA,TRUE,f,f,NA,NA,NA,2,6,"12,1,13,6,14,8,10,11,3,9,4,2,15,7,5"
15032,commdev-image-keyboard-response,168,1118485,learnblock1,43.89999997615814,img/planet15_left.png,15,Community 3,NA,TRUE,f,f,NA,NA,NA,2,6,"12,1,13,6,14,8,10,11,3,9,4,2,15,7,5"
15032,commdev-image-keyboard-response,169,1119738,learnblock1,287.2000000476837,img/planet4_left.png,4,Community 3,NA,TRUE,f,f,NA,NA,NA,2,6,"12,1,13,6,14,8,10,11,3,9,4,2,15,7,5"
15032,commdev-image-keyboard-response,170,1120991,learnblock1,184.60000002384186,img/planet7_right.png,7,Community 3,NA,FALSE,f,j,NA,NA,NA,2,6,"12,1,13,6,14,8,10,11,3,9,4,2,15,7,5"
15032,commdev-image-keyboard-response,171,1122251,learnblock1,384.39999997615814,img/planet15_right.png,15,Community 3,NA,FALSE,f,j,NA,NA,NA,2,6,"12,1,13,6,14,8,10,11,3,9,4,2,15,7,5"
15032,commdev-image-keyboard-response,172,1123507,learnblock1,540.7000000476837,img/planet2_right.png,2,Community 3,NA,FALSE,f,j,NA,NA,NA,2,6,"12,1,13,6,14,8,10,11,3,9,4,2,15,7,5"
15032,commdev-image-keyboard-response,173,1124764,learnblock1,516.0999999046326,img/planet7_right.png,7,Community 3,NA,FALSE,f,j,NA,NA,NA,2,6,"12,1,13,6,14,8,10,11,3,9,4,2,15,7,5"
15032,commdev-image-keyboard-response,174,1126019,learnblock1,426.40000009536743,img/planet5_right.png,5,Community 3,NA,FALSE,f,j,NA,NA,NA,2,6,"12,1,13,6,14,8,10,11,3,9,4,2,15,7,5"
15032,commdev-image-keyboard-response,175,1127271,learnblock1,457.60000002384186,img/planet4_left.png,4,Community 3,NA,TRUE,f,f,NA,NA,NA,2,6,"12,1,13,6,14,8,10,11,3,9,4,2,15,7,5"
15032,commdev-image-keyboard-response,176,1128526,learnblock1,726.6000000238419,img/planet14_left.png,14,Community 1,NA,TRUE,f,f,NA,NA,NA,2,6,"12,1,13,6,14,8,10,11,3,9,4,2,15,7,5"
15032,commdev-image-keyboard-response,177,1129780,learnblock1,309.5,img/planet12_left.png,12,Community 1,NA,TRUE,f,f,NA,NA,NA,2,6,"12,1,13,6,14,8,10,11,3,9,4,2,15,7,5"
15032,commdev-image-keyboard-response,178,1131037,learnblock1,396.7999999523163,img/planet14_right.png,14,Community 1,NA,FALSE,f,j,NA,NA,NA,2,6,"12,1,13,6,14,8,10,11,3,9,4,2,15,7,5"
15032,commdev-image-keyboard-response,179,1132294,learnblock1,511.7000000476837,img/planet1_left.png,1,Community 1,NA,TRUE,f,f,NA,NA,NA,2,6,"12,1,13,6,14,8,10,11,3,9,4,2,15,7,5"
15032,commdev-image-keyboard-response,180,1133554,learnblock1,489.7000000476837,img/planet14_left.png,14,Community 1,NA,TRUE,f,f,NA,NA,NA,2,6,"12,1,13,6,14,8,10,11,3,9,4,2,15,7,5"
15032,commdev-image-keyboard-response,181,1134806,learnblock1,557.0999999046326,img/planet13_right.png,13,Community 1,NA,FALSE,f,j,NA,NA,NA,2,6,"12,1,13,6,14,8,10,11,3,9,4,2,15,7,5"
15032,commdev-image-keyboard-response,182,1136062,learnblock1,798.8999999761581,img/planet14_left.png,14,Community 1,NA,TRUE,f,f,NA,NA,NA,2,6,"12,1,13,6,14,8,10,11,3,9,4,2,15,7,5"
15032,commdev-image-keyboard-response,183,1137319,learnblock1,237.39999997615814,img/planet12_left.png,12,Community 1,NA,TRUE,f,f,NA,NA,NA,2,6,"12,1,13,6,14,8,10,11,3,9,4,2,15,7,5"
15032,commdev-image-keyboard-response,184,1138575,learnblock1,447.2999999523163,img/planet13_left.png,13,Community 1,NA,TRUE,f,f,NA,NA,NA,2,6,"12,1,13,6,14,8,10,11,3,9,4,2,15,7,5"
15032,commdev-image-keyboard-response,185,1139833,learnblock1,642.1000000238419,img/planet14_left.png,14,Community 1,NA,TRUE,f,f,NA,NA,NA,2,6,"12,1,13,6,14,8,10,11,3,9,4,2,15,7,5"
15032,commdev-image-keyboard-response,186,1141093,learnblock1,226,img/planet12_left.png,12,Community 1,NA,TRUE,f,f,NA,NA,NA,2,6,"12,1,13,6,14,8,10,11,3,9,4,2,15,7,5"
15032,commdev-image-keyboard-response,187,1142347,learnblock1,257.2000000476837,img/planet6_left.png,6,Community 1,NA,TRUE,f,f,NA,NA,NA,2,6,"12,1,13,6,14,8,10,11,3,9,4,2,15,7,5"
15032,commdev-image-keyboard-response,188,1143600,learnblock1,260,img/planet1_left.png,1,Community 1,NA,TRUE,f,f,NA,NA,NA,2,6,"12,1,13,6,14,8,10,11,3,9,4,2,15,7,5"
15032,commdev-image-keyboard-response,189,1144855,learnblock1,444.3000000715256,img/planet13_left.png,13,Community 1,NA,TRUE,f,f,NA,NA,NA,2,6,"12,1,13,6,14,8,10,11,3,9,4,2,15,7,5"
15032,commdev-image-keyboard-response,190,1146117,learnblock1,236.70000004768372,img/planet12_left.png,12,Community 1,NA,TRUE,f,f,NA,NA,NA,2,6,"12,1,13,6,14,8,10,11,3,9,4,2,15,7,5"
15032,commdev-image-keyboard-response,191,1147377,learnblock1,633,img/planet6_right.png,6,Community 1,NA,TRUE,j,j,NA,NA,NA,2,6,"12,1,13,6,14,8,10,11,3,9,4,2,15,7,5"
15032,commdev-image-keyboard-response,192,1148633,learnblock1,370.89999997615814,img/planet1_right.png,1,Community 1,NA,TRUE,j,j,NA,NA,NA,2,6,"12,1,13,6,14,8,10,11,3,9,4,2,15,7,5"
15032,commdev-image-keyboard-response,193,1149890,learnblock1,613.5,img/planet12_right.png,12,Community 1,NA,TRUE,j,j,NA,NA,NA,2,6,"12,1,13,6,14,8,10,11,3,9,4,2,15,7,5"
15032,commdev-image-keyboard-response,194,1151144,learnblock1,428.10000002384186,img/planet1_left.png,1,Community 1,NA,FALSE,j,f,NA,NA,NA,2,6,"12,1,13,6,14,8,10,11,3,9,4,2,15,7,5"
15032,commdev-image-keyboard-response,195,1152406,learnblock1,688.7000000476837,img/planet6_right.png,6,Community 1,NA,TRUE,j,j,NA,NA,NA,2,6,"12,1,13,6,14,8,10,11,3,9,4,2,15,7,5"
15032,commdev-image-keyboard-response,196,1153663,learnblock1,415.60000002384186,img/planet8_left.png,8,Community 2,NA,FALSE,j,f,NA,NA,NA,2,6,"12,1,13,6,14,8,10,11,3,9,4,2,15,7,5"
15032,commdev-image-keyboard-response,197,1154921,learnblock1,217.20000004768372,img/planet9_left.png,9,Community 2,NA,FALSE,j,f,NA,NA,NA,2,6,"12,1,13,6,14,8,10,11,3,9,4,2,15,7,5"
15032,commdev-image-keyboard-response,198,1156175,learnblock1,573.7000000476837,img/planet10_right.png,10,Community 2,NA,TRUE,j,j,NA,NA,NA,2,6,"12,1,13,6,14,8,10,11,3,9,4,2,15,7,5"
15032,commdev-image-keyboard-response,199,1157434,learnblock1,666,img/planet11_left.png,11,Community 2,NA,TRUE,f,f,NA,NA,NA,2,6,"12,1,13,6,14,8,10,11,3,9,4,2,15,7,5"
15032,commdev-image-keyboard-response,200,1158696,learnblock1,540.2999999523163,img/planet9_right.png,9,Community 2,NA,TRUE,j,j,NA,NA,NA,2,6,"12,1,13,6,14,8,10,11,3,9,4,2,15,7,5"
15032,commdev-image-keyboard-response,201,1159953,learnblock1,168.10000002384186,img/planet8_right.png,8,Community 2,NA,FALSE,f,j,NA,NA,NA,2,6,"12,1,13,6,14,8,10,11,3,9,4,2,15,7,5"
15032,commdev-image-keyboard-response,202,1161215,learnblock1,402.6999999284744,img/planet6_right.png,6,Community 1,NA,TRUE,j,j,NA,NA,NA,2,6,"12,1,13,6,14,8,10,11,3,9,4,2,15,7,5"
15032,commdev-image-keyboard-response,203,1162481,learnblock1,101,img/planet13_left.png,13,Community 1,NA,FALSE,j,f,NA,NA,NA,2,6,"12,1,13,6,14,8,10,11,3,9,4,2,15,7,5"
15032,commdev-image-keyboard-response,204,1163741,learnblock1,193.5,img/planet12_right.png,12,Community 1,NA,TRUE,j,j,NA,NA,NA,2,6,"12,1,13,6,14,8,10,11,3,9,4,2,15,7,5"
15032,commdev-image-keyboard-response,205,1164994,learnblock1,375.6999999284744,img/planet1_left.png,1,Community 1,NA,FALSE,j,f,NA,NA,NA,2,6,"12,1,13,6,14,8,10,11,3,9,4,2,15,7,5"
15032,commdev-image-keyboard-response,206,1166261,learnblock1,259.3000000715256,img/planet6_left.png,6,Community 1,NA,TRUE,f,f,NA,NA,NA,2,6,"12,1,13,6,14,8,10,11,3,9,4,2,15,7,5"
15032,commdev-image-keyboard-response,207,1167521,learnblock1,141.59999990463257,img/planet1_left.png,1,Community 1,NA,TRUE,f,f,NA,NA,NA,2,6,"12,1,13,6,14,8,10,11,3,9,4,2,15,7,5"
15032,commdev-image-keyboard-response,208,1168780,learnblock1,474.10000002384186,img/planet12_left.png,12,Community 1,NA,TRUE,f,f,NA,NA,NA,2,6,"12,1,13,6,14,8,10,11,3,9,4,2,15,7,5"
15032,commdev-image-keyboard-response,209,1170032,learnblock1,298.7000000476837,img/planet6_left.png,6,Community 1,NA,TRUE,f,f,NA,NA,NA,2,6,"12,1,13,6,14,8,10,11,3,9,4,2,15,7,5"
15032,commdev-image-keyboard-response,210,1171285,learnblock1,190.60000002384186,img/planet1_right.png,1,Community 1,NA,FALSE,f,j,NA,NA,NA,2,6,"12,1,13,6,14,8,10,11,3,9,4,2,15,7,5"
15032,commdev-image-keyboard-response,211,1172548,learnblock1,514.8000000715256,img/planet13_left.png,13,Community 1,NA,FALSE,j,f,NA,NA,NA,2,6,"12,1,13,6,14,8,10,11,3,9,4,2,15,7,5"
15032,commdev-image-keyboard-response,212,1173806,learnblock1,113.5,img/planet12_left.png,12,Community 1,NA,FALSE,j,f,NA,NA,NA,2,6,"12,1,13,6,14,8,10,11,3,9,4,2,15,7,5"
15032,commdev-image-keyboard-response,213,1175064,learnblock1,447.60000002384186,img/planet13_left.png,13,Community 1,NA,TRUE,f,f,NA,NA,NA,2,6,"12,1,13,6,14,8,10,11,3,9,4,2,15,7,5"
15032,commdev-image-keyboard-response,214,1176326,learnblock1,211,img/planet14_left.png,14,Community 1,NA,TRUE,f,f,NA,NA,NA,2,6,"12,1,13,6,14,8,10,11,3,9,4,2,15,7,5"
15032,commdev-image-keyboard-response,215,1177584,learnblock1,83.89999997615814,img/planet12_right.png,12,Community 1,NA,FALSE,f,j,NA,NA,NA,2,6,"12,1,13,6,14,8,10,11,3,9,4,2,15,7,5"
15032,commdev-image-keyboard-response,216,1178836,learnblock1,294.8000000715256,img/planet13_right.png,13,Community 1,NA,FALSE,f,j,NA,NA,NA,2,6,"12,1,13,6,14,8,10,11,3,9,4,2,15,7,5"
15032,commdev-image-keyboard-response,217,1180090,learnblock1,273.2999999523163,img/planet1_right.png,1,Community 1,NA,FALSE,f,j,NA,NA,NA,2,6,"12,1,13,6,14,8,10,11,3,9,4,2,15,7,5"
15032,commdev-image-keyboard-response,218,1181345,learnblock1,295.2999999523163,img/planet6_left.png,6,Community 1,NA,TRUE,f,f,NA,NA,NA,2,6,"12,1,13,6,14,8,10,11,3,9,4,2,15,7,5"
15032,commdev-image-keyboard-response,219,1182601,learnblock1,444,img/planet13_right.png,13,Community 1,NA,FALSE,f,j,NA,NA,NA,2,6,"12,1,13,6,14,8,10,11,3,9,4,2,15,7,5"
15032,commdev-image-keyboard-response,220,1183859,learnblock1,108.60000002384186,img/planet14_left.png,14,Community 1,NA,TRUE,f,f,NA,NA,NA,2,6,"12,1,13,6,14,8,10,11,3,9,4,2,15,7,5"
15032,commdev-image-keyboard-response,221,1185116,learnblock1,390.2999999523163,img/planet12_left.png,12,Community 1,NA,TRUE,f,f,NA,NA,NA,2,6,"12,1,13,6,14,8,10,11,3,9,4,2,15,7,5"
15032,commdev-image-keyboard-response,222,1186376,learnblock1,32.799999952316284,img/planet13_right.png,13,Community 1,NA,FALSE,f,j,NA,NA,NA,2,6,"12,1,13,6,14,8,10,11,3,9,4,2,15,7,5"
15032,commdev-image-keyboard-response,223,1187629,learnblock1,65.39999997615814,img/planet6_right.png,6,Community 1,NA,FALSE,f,j,NA,NA,NA,2,6,"12,1,13,6,14,8,10,11,3,9,4,2,15,7,5"
15032,commdev-image-keyboard-response,224,1188882,learnblock1,644,img/planet13_right.png,13,Community 1,NA,FALSE,f,j,NA,NA,NA,2,6,"12,1,13,6,14,8,10,11,3,9,4,2,15,7,5"
15032,commdev-image-keyboard-response,225,1190135,learnblock1,71.19999992847443,img/planet1_right.png,1,Community 1,NA,FALSE,f,j,NA,NA,NA,2,6,"12,1,13,6,14,8,10,11,3,9,4,2,15,7,5"
15032,commdev-image-keyboard-response,226,1191395,learnblock1,161.89999997615814,img/planet6_right.png,6,Community 1,NA,FALSE,f,j,NA,NA,NA,2,6,"12,1,13,6,14,8,10,11,3,9,4,2,15,7,5"
15032,commdev-image-keyboard-response,227,1192649,learnblock1,214.69999992847443,img/planet13_right.png,13,Community 1,NA,FALSE,f,j,NA,NA,NA,2,6,"12,1,13,6,14,8,10,11,3,9,4,2,15,7,5"
15032,commdev-image-keyboard-response,228,1193903,learnblock1,171.39999997615814,img/planet1_right.png,1,Community 1,NA,FALSE,f,j,NA,NA,NA,2,6,"12,1,13,6,14,8,10,11,3,9,4,2,15,7,5"
15032,commdev-image-keyboard-response,229,1195158,learnblock1,496.8000000715256,img/planet6_left.png,6,Community 1,NA,FALSE,j,f,NA,NA,NA,2,6,"12,1,13,6,14,8,10,11,3,9,4,2,15,7,5"
15032,commdev-image-keyboard-response,230,1196414,learnblock1,269.7000000476837,img/planet13_left.png,13,Community 1,NA,FALSE,j,f,NA,NA,NA,2,6,"12,1,13,6,14,8,10,11,3,9,4,2,15,7,5"
15032,commdev-image-keyboard-response,231,1197666,learnblock1,478.8000000715256,img/planet14_right.png,14,Community 1,NA,FALSE,f,j,NA,NA,NA,2,6,"12,1,13,6,14,8,10,11,3,9,4,2,15,7,5"
15032,commdev-image-keyboard-response,232,1198921,learnblock1,617.6999999284744,img/planet4_right.png,4,Community 3,NA,FALSE,f,j,NA,NA,NA,2,6,"12,1,13,6,14,8,10,11,3,9,4,2,15,7,5"
15032,commdev-image-keyboard-response,233,1200175,learnblock1,34.800000071525574,img/planet14_left.png,14,Community 1,NA,TRUE,f,f,NA,NA,NA,2,6,"12,1,13,6,14,8,10,11,3,9,4,2,15,7,5"
15032,commdev-image-keyboard-response,234,1201430,learnblock1,79.5,img/planet1_left.png,1,Community 1,NA,TRUE,f,f,NA,NA,NA,2,6,"12,1,13,6,14,8,10,11,3,9,4,2,15,7,5"
15032,commdev-image-keyboard-response,235,1202689,learnblock1,292.39999997615814,img/planet13_left.png,13,Community 1,NA,TRUE,f,f,NA,NA,NA,2,6,"12,1,13,6,14,8,10,11,3,9,4,2,15,7,5"
15032,commdev-image-keyboard-response,236,1203946,learnblock1,443.3000000715256,img/planet1_left.png,1,Community 1,NA,TRUE,f,f,NA,NA,NA,2,6,"12,1,13,6,14,8,10,11,3,9,4,2,15,7,5"
15032,commdev-image-keyboard-response,237,1205205,learnblock1,492.39999997615814,img/planet12_right.png,12,Community 1,NA,FALSE,f,j,NA,NA,NA,2,6,"12,1,13,6,14,8,10,11,3,9,4,2,15,7,5"
15032,commdev-image-keyboard-response,238,1206465,learnblock1,532.7000000476837,img/planet14_right.png,14,Community 1,NA,TRUE,j,j,NA,NA,NA,2,6,"12,1,13,6,14,8,10,11,3,9,4,2,15,7,5"
15032,commdev-image-keyboard-response,239,1207723,learnblock1,457.7000000476837,img/planet12_left.png,12,Community 1,NA,FALSE,j,f,NA,NA,NA,2,6,"12,1,13,6,14,8,10,11,3,9,4,2,15,7,5"
15032,commdev-image-keyboard-response,240,1208982,learnblock1,711.3999999761581,img/planet13_left.png,13,Community 1,NA,FALSE,j,f,NA,NA,NA,2,6,"12,1,13,6,14,8,10,11,3,9,4,2,15,7,5"
15032,commdev-image-keyboard-response,241,1210235,learnblock1,416.90000009536743,img/planet1_right.png,1,Community 1,NA,TRUE,j,j,NA,NA,NA,2,6,"12,1,13,6,14,8,10,11,3,9,4,2,15,7,5"
15032,commdev-image-keyboard-response,242,1211496,learnblock1,394.6999999284744,img/planet12_left.png,12,Community 1,NA,FALSE,j,f,NA,NA,NA,2,6,"12,1,13,6,14,8,10,11,3,9,4,2,15,7,5"
15032,commdev-image-keyboard-response,243,1212747,learnblock1,96.79999995231628,img/planet1_right.png,1,Community 1,NA,TRUE,j,j,NA,NA,NA,2,6,"12,1,13,6,14,8,10,11,3,9,4,2,15,7,5"
15032,commdev-image-keyboard-response,244,1213999,learnblock1,195.39999997615814,img/planet6_right.png,6,Community 1,NA,TRUE,j,j,NA,NA,NA,2,6,"12,1,13,6,14,8,10,11,3,9,4,2,15,7,5"
15032,commdev-image-keyboard-response,245,1215262,learnblock1,325.5,img/planet12_left.png,12,Community 1,NA,FALSE,j,f,NA,NA,NA,2,6,"12,1,13,6,14,8,10,11,3,9,4,2,15,7,5"
15032,commdev-image-keyboard-response,246,1216517,learnblock1,213.80000007152557,img/planet13_right.png,13,Community 1,NA,TRUE,j,j,NA,NA,NA,2,6,"12,1,13,6,14,8,10,11,3,9,4,2,15,7,5"
15032,commdev-image-keyboard-response,247,1217773,learnblock1,229.79999995231628,img/planet12_left.png,12,Community 1,NA,TRUE,f,f,NA,NA,NA,2,6,"12,1,13,6,14,8,10,11,3,9,4,2,15,7,5"
15032,commdev-image-keyboard-response,248,1219025,learnblock1,275.5,img/planet13_left.png,13,Community 1,NA,TRUE,f,f,NA,NA,NA,2,6,"12,1,13,6,14,8,10,11,3,9,4,2,15,7,5"
15032,commdev-image-keyboard-response,249,1220279,learnblock1,96.70000004768372,img/planet12_right.png,12,Community 1,NA,FALSE,f,j,NA,NA,NA,2,6,"12,1,13,6,14,8,10,11,3,9,4,2,15,7,5"
15032,commdev-image-keyboard-response,250,1221539,learnblock1,406.2000000476837,img/planet1_left.png,1,Community 1,NA,TRUE,f,f,NA,NA,NA,2,6,"12,1,13,6,14,8,10,11,3,9,4,2,15,7,5"
15032,commdev-image-keyboard-response,251,1222797,learnblock1,204.79999995231628,img/planet13_right.png,13,Community 1,NA,FALSE,f,j,NA,NA,NA,2,6,"12,1,13,6,14,8,10,11,3,9,4,2,15,7,5"
15032,commdev-image-keyboard-response,252,1224053,learnblock1,192.59999990463257,img/planet1_right.png,1,Community 1,NA,FALSE,f,j,NA,NA,NA,2,6,"12,1,13,6,14,8,10,11,3,9,4,2,15,7,5"
15032,commdev-image-keyboard-response,253,1225308,learnblock1,124.30000007152557,img/planet6_right.png,6,Community 1,NA,FALSE,f,j,NA,NA,NA,2,6,"12,1,13,6,14,8,10,11,3,9,4,2,15,7,5"
15032,commdev-image-keyboard-response,254,1226564,learnblock1,105.5,img/planet12_right.png,12,Community 1,NA,FALSE,f,j,NA,NA,NA,2,6,"12,1,13,6,14,8,10,11,3,9,4,2,15,7,5"
15032,commdev-image-keyboard-response,255,1227819,learnblock1,526.2000000476837,img/planet13_right.png,13,Community 1,NA,FALSE,f,j,NA,NA,NA,2,6,"12,1,13,6,14,8,10,11,3,9,4,2,15,7,5"
15032,commdev-image-keyboard-response,256,1229072,learnblock1,137.60000002384186,img/planet6_right.png,6,Community 1,NA,TRUE,j,j,NA,NA,NA,2,6,"12,1,13,6,14,8,10,11,3,9,4,2,15,7,5"
15032,commdev-image-keyboard-response,257,1230332,learnblock1,650,img/planet8_right.png,8,Community 2,NA,TRUE,j,j,NA,NA,NA,2,6,"12,1,13,6,14,8,10,11,3,9,4,2,15,7,5"
15032,commdev-image-keyboard-response,258,1231585,learnblock1,307.10000002384186,img/planet9_right.png,9,Community 2,NA,TRUE,j,j,NA,NA,NA,2,6,"12,1,13,6,14,8,10,11,3,9,4,2,15,7,5"
15032,commdev-image-keyboard-response,259,1232837,learnblock1,240.5,img/planet8_left.png,8,Community 2,NA,FALSE,j,f,NA,NA,NA,2,6,"12,1,13,6,14,8,10,11,3,9,4,2,15,7,5"
15032,commdev-image-keyboard-response,260,1234091,learnblock1,277.3000000715256,img/planet6_left.png,6,Community 1,NA,FALSE,j,f,NA,NA,NA,2,6,"12,1,13,6,14,8,10,11,3,9,4,2,15,7,5"
15032,commdev-image-keyboard-response,261,1235349,learnblock1,136.69999992847443,img/planet8_right.png,8,Community 2,NA,TRUE,j,j,NA,NA,NA,2,6,"12,1,13,6,14,8,10,11,3,9,4,2,15,7,5"
15032,commdev-image-keyboard-response,262,1236606,learnblock1,269.10000002384186,img/planet6_left.png,6,Community 1,NA,FALSE,j,f,NA,NA,NA,2,6,"12,1,13,6,14,8,10,11,3,9,4,2,15,7,5"
15032,commdev-image-keyboard-response,263,1237860,learnblock1,149.79999995231628,img/planet1_right.png,1,Community 1,NA,TRUE,j,j,NA,NA,NA,2,6,"12,1,13,6,14,8,10,11,3,9,4,2,15,7,5"
15032,commdev-image-keyboard-response,264,1239115,learnblock1,199.39999997615814,img/planet12_left.png,12,Community 1,NA,FALSE,j,f,NA,NA,NA,2,6,"12,1,13,6,14,8,10,11,3,9,4,2,15,7,5"
15032,commdev-image-keyboard-response,265,1240383,learnblock1,60.89999997615814,img/planet14_left.png,14,Community 1,NA,FALSE,j,f,NA,NA,NA,2,6,"12,1,13,6,14,8,10,11,3,9,4,2,15,7,5"
15032,commdev-image-keyboard-response,266,1241649,learnblock1,195.10000002384186,img/planet1_left.png,1,Community 1,NA,TRUE,f,f,NA,NA,NA,2,6,"12,1,13,6,14,8,10,11,3,9,4,2,15,7,5"
15032,commdev-image-keyboard-response,267,1242905,learnblock1,null,img/planet6_left.png,6,Community 1,NA,FALSE,null,f,NA,NA,NA,2,6,"12,1,13,6,14,8,10,11,3,9,4,2,15,7,5"
15032,commdev-image-keyboard-response,268,1244165,learnblock1,217.80000007152557,img/planet1_right.png,1,Community 1,NA,FALSE,f,j,NA,NA,NA,2,6,"12,1,13,6,14,8,10,11,3,9,4,2,15,7,5"
15032,commdev-image-keyboard-response,269,1245424,learnblock1,249,img/planet12_left.png,12,Community 1,NA,TRUE,f,f,NA,NA,NA,2,6,"12,1,13,6,14,8,10,11,3,9,4,2,15,7,5"
15032,commdev-image-keyboard-response,270,1246679,learnblock1,226.70000004768372,img/planet1_right.png,1,Community 1,NA,FALSE,f,j,NA,NA,NA,2,6,"12,1,13,6,14,8,10,11,3,9,4,2,15,7,5"
15032,commdev-image-keyboard-response,271,1247943,learnblock1,279.2999999523163,img/planet13_left.png,13,Community 1,NA,TRUE,f,f,NA,NA,NA,2,6,"12,1,13,6,14,8,10,11,3,9,4,2,15,7,5"
15032,commdev-image-keyboard-response,272,1249199,learnblock1,295.2999999523163,img/planet14_right.png,14,Community 1,NA,FALSE,f,j,NA,NA,NA,2,6,"12,1,13,6,14,8,10,11,3,9,4,2,15,7,5"
15032,commdev-image-keyboard-response,273,1250452,learnblock1,85.20000004768372,img/planet13_right.png,13,Community 1,NA,FALSE,f,j,NA,NA,NA,2,6,"12,1,13,6,14,8,10,11,3,9,4,2,15,7,5"
15032,commdev-image-keyboard-response,274,1251706,learnblock1,140.10000002384186,img/planet1_right.png,1,Community 1,NA,FALSE,f,j,NA,NA,NA,2,6,"12,1,13,6,14,8,10,11,3,9,4,2,15,7,5"
15032,commdev-image-keyboard-response,275,1252961,learnblock1,37.199999928474426,img/planet12_left.png,12,Community 1,NA,TRUE,f,f,NA,NA,NA,2,6,"12,1,13,6,14,8,10,11,3,9,4,2,15,7,5"
15032,commdev-image-keyboard-response,276,1254228,learnblock1,533.8999999761581,img/planet13_left.png,13,Community 1,NA,TRUE,f,f,NA,NA,NA,2,6,"12,1,13,6,14,8,10,11,3,9,4,2,15,7,5"
15032,commdev-image-keyboard-response,277,1255487,learnblock1,56,img/planet6_right.png,6,Community 1,NA,FALSE,f,j,NA,NA,NA,2,6,"12,1,13,6,14,8,10,11,3,9,4,2,15,7,5"
15032,commdev-image-keyboard-response,278,1256755,learnblock1,451.5,img/planet8_right.png,8,Community 2,NA,TRUE,j,j,NA,NA,NA,2,6,"12,1,13,6,14,8,10,11,3,9,4,2,15,7,5"
15032,commdev-image-keyboard-response,279,1258009,learnblock1,236.39999997615814,img/planet6_right.png,6,Community 1,NA,TRUE,j,j,NA,NA,NA,2,6,"12,1,13,6,14,8,10,11,3,9,4,2,15,7,5"
15032,commdev-image-keyboard-response,280,1259265,learnblock1,149.10000002384186,img/planet8_right.png,8,Community 2,NA,TRUE,j,j,NA,NA,NA,2,6,"12,1,13,6,14,8,10,11,3,9,4,2,15,7,5"
15032,commdev-image-keyboard-response,281,1260518,learnblock1,165.29999995231628,img/planet10_right.png,10,Community 2,NA,TRUE,j,j,NA,NA,NA,2,6,"12,1,13,6,14,8,10,11,3,9,4,2,15,7,5"
15032,commdev-image-keyboard-response,282,1261770,learnblock1,581,img/planet9_right.png,9,Community 2,NA,TRUE,j,j,NA,NA,NA,2,6,"12,1,13,6,14,8,10,11,3,9,4,2,15,7,5"
15032,commdev-image-keyboard-response,283,1263038,learnblock1,108.39999997615814,img/planet10_left.png,10,Community 2,NA,FALSE,j,f,NA,NA,NA,2,6,"12,1,13,6,14,8,10,11,3,9,4,2,15,7,5"
15032,commdev-image-keyboard-response,284,1264293,learnblock1,11.299999952316284,img/planet3_left.png,3,Community 2,NA,FALSE,j,f,NA,NA,NA,2,6,"12,1,13,6,14,8,10,11,3,9,4,2,15,7,5"
15032,commdev-image-keyboard-response,285,1265552,learnblock1,281.2999999523163,img/planet10_left.png,10,Community 2,NA,FALSE,j,f,NA,NA,NA,2,6,"12,1,13,6,14,8,10,11,3,9,4,2,15,7,5"
15032,commdev-image-keyboard-response,286,1266805,learnblock1,53.800000071525574,img/planet8_left.png,8,Community 2,NA,FALSE,j,f,NA,NA,NA,2,6,"12,1,13,6,14,8,10,11,3,9,4,2,15,7,5"
15032,commdev-image-keyboard-response,287,1268057,learnblock1,544.8000000715256,img/planet9_left.png,9,Community 2,NA,FALSE,j,f,NA,NA,NA,2,6,"12,1,13,6,14,8,10,11,3,9,4,2,15,7,5"
15032,commdev-image-keyboard-response,288,1269309,learnblock1,277.60000002384186,img/planet11_right.png,11,Community 2,NA,TRUE,j,j,NA,NA,NA,2,6,"12,1,13,6,14,8,10,11,3,9,4,2,15,7,5"
15032,commdev-image-keyboard-response,289,1270563,learnblock1,904.2000000476837,img/planet9_right.png,9,Community 2,NA,TRUE,j,j,NA,NA,NA,2,6,"12,1,13,6,14,8,10,11,3,9,4,2,15,7,5"
15032,commdev-image-keyboard-response,290,1271816,learnblock1,93.70000004768372,img/planet3_left.png,3,Community 2,NA,FALSE,j,f,NA,NA,NA,2,6,"12,1,13,6,14,8,10,11,3,9,4,2,15,7,5"
15032,commdev-image-keyboard-response,291,1273072,learnblock1,337.89999997615814,img/planet9_left.png,9,Community 2,NA,FALSE,j,f,NA,NA,NA,2,6,"12,1,13,6,14,8,10,11,3,9,4,2,15,7,5"
15032,commdev-image-keyboard-response,292,1274330,learnblock1,153.79999995231628,img/planet10_left.png,10,Community 2,NA,FALSE,j,f,NA,NA,NA,2,6,"12,1,13,6,14,8,10,11,3,9,4,2,15,7,5"
15032,commdev-image-keyboard-response,293,1275590,learnblock1,427.7000000476837,img/planet3_left.png,3,Community 2,NA,FALSE,j,f,NA,NA,NA,2,6,"12,1,13,6,14,8,10,11,3,9,4,2,15,7,5"
15032,commdev-image-keyboard-response,294,1276849,learnblock1,287.90000009536743,img/planet11_left.png,11,Community 2,NA,TRUE,f,f,NA,NA,NA,2,6,"12,1,13,6,14,8,10,11,3,9,4,2,15,7,5"
15032,commdev-image-keyboard-response,295,1278117,learnblock1,245.29999995231628,img/planet10_left.png,10,Community 2,NA,TRUE,f,f,NA,NA,NA,2,6,"12,1,13,6,14,8,10,11,3,9,4,2,15,7,5"
15032,commdev-image-keyboard-response,296,1279378,learnblock1,160.39999997615814,img/planet11_left.png,11,Community 2,NA,FALSE,j,f,NA,NA,NA,2,6,"12,1,13,6,14,8,10,11,3,9,4,2,15,7,5"
15032,commdev-image-keyboard-response,297,1280633,learnblock1,55.299999952316284,img/planet2_left.png,2,Community 3,NA,FALSE,j,f,NA,NA,NA,2,6,"12,1,13,6,14,8,10,11,3,9,4,2,15,7,5"
15032,commdev-image-keyboard-response,298,1281887,learnblock1,null,img/planet11_left.png,11,Community 2,NA,FALSE,null,f,NA,NA,NA,2,6,"12,1,13,6,14,8,10,11,3,9,4,2,15,7,5"
15032,commdev-image-keyboard-response,299,1283143,learnblock1,805,img/planet9_right.png,9,Community 2,NA,TRUE,j,j,NA,NA,NA,2,6,"12,1,13,6,14,8,10,11,3,9,4,2,15,7,5"
15032,commdev-image-keyboard-response,300,1284399,learnblock1,153.29999995231628,img/planet8_left.png,8,Community 2,NA,FALSE,j,f,NA,NA,NA,2,6,"12,1,13,6,14,8,10,11,3,9,4,2,15,7,5"
15032,commdev-image-keyboard-response,301,1285651,learnblock1,128.79999995231628,img/planet10_right.png,10,Community 2,NA,FALSE,f,j,NA,NA,NA,2,6,"12,1,13,6,14,8,10,11,3,9,4,2,15,7,5"
15032,commdev-image-keyboard-response,302,1286905,learnblock1,193.60000002384186,img/planet3_right.png,3,Community 2,NA,FALSE,f,j,NA,NA,NA,2,6,"12,1,13,6,14,8,10,11,3,9,4,2,15,7,5"
15032,commdev-image-keyboard-response,303,1288158,learnblock1,120.10000002384186,img/planet10_right.png,10,Community 2,NA,FALSE,f,j,NA,NA,NA,2,6,"12,1,13,6,14,8,10,11,3,9,4,2,15,7,5"
15032,commdev-image-keyboard-response,304,1289412,learnblock1,433.2999999523163,img/planet3_right.png,3,Community 2,NA,FALSE,f,j,NA,NA,NA,2,6,"12,1,13,6,14,8,10,11,3,9,4,2,15,7,5"
15032,commdev-image-keyboard-response,305,1290670,learnblock1,427.1999999284744,img/planet10_left.png,10,Community 2,NA,FALSE,j,f,NA,NA,NA,2,6,"12,1,13,6,14,8,10,11,3,9,4,2,15,7,5"
15032,commdev-image-keyboard-response,306,1291932,learnblock1,178.89999997615814,img/planet3_left.png,3,Community 2,NA,FALSE,j,f,NA,NA,NA,2,6,"12,1,13,6,14,8,10,11,3,9,4,2,15,7,5"
15032,commdev-image-keyboard-response,307,1293188,learnblock1,192.10000002384186,img/planet8_left.png,8,Community 2,NA,TRUE,f,f,NA,NA,NA,2,6,"12,1,13,6,14,8,10,11,3,9,4,2,15,7,5"
15032,commdev-image-keyboard-response,308,1294448,learnblock1,null,img/planet9_left.png,9,Community 2,NA,FALSE,null,f,NA,NA,NA,2,6,"12,1,13,6,14,8,10,11,3,9,4,2,15,7,5"
15032,commdev-image-keyboard-response,309,1295707,learnblock1,505.6999999284744,img/planet10_right.png,10,Community 2,NA,FALSE,f,j,NA,NA,NA,2,6,"12,1,13,6,14,8,10,11,3,9,4,2,15,7,5"
15032,commdev-image-keyboard-response,310,1296965,learnblock1,75.79999995231628,img/planet8_left.png,8,Community 2,NA,FALSE,j,f,NA,NA,NA,2,6,"12,1,13,6,14,8,10,11,3,9,4,2,15,7,5"
15032,commdev-image-keyboard-response,311,1298228,learnblock1,130.5,img/planet6_left.png,6,Community 1,NA,FALSE,j,f,NA,NA,NA,2,6,"12,1,13,6,14,8,10,11,3,9,4,2,15,7,5"
15032,commdev-image-keyboard-response,312,1299480,learnblock1,621.2000000476837,img/planet8_left.png,8,Community 2,NA,FALSE,j,f,NA,NA,NA,2,6,"12,1,13,6,14,8,10,11,3,9,4,2,15,7,5"
15032,commdev-image-keyboard-response,313,1300734,learnblock1,93.5,img/planet3_right.png,3,Community 2,NA,TRUE,j,j,NA,NA,NA,2,6,"12,1,13,6,14,8,10,11,3,9,4,2,15,7,5"
15032,commdev-image-keyboard-response,314,1301993,learnblock1,203.39999997615814,img/planet8_right.png,8,Community 2,NA,TRUE,j,j,NA,NA,NA,2,6,"12,1,13,6,14,8,10,11,3,9,4,2,15,7,5"
15032,commdev-image-keyboard-response,315,1303254,learnblock1,91.60000002384186,img/planet9_left.png,9,Community 2,NA,TRUE,f,f,NA,NA,NA,2,6,"12,1,13,6,14,8,10,11,3,9,4,2,15,7,5"
15032,commdev-image-keyboard-response,316,1304508,learnblock1,296.7999999523163,img/planet10_right.png,10,Community 2,NA,FALSE,f,j,NA,NA,NA,2,6,"12,1,13,6,14,8,10,11,3,9,4,2,15,7,5"
15032,commdev-image-keyboard-response,317,1305769,learnblock1,null,img/planet8_left.png,8,Community 2,NA,FALSE,null,f,NA,NA,NA,2,6,"12,1,13,6,14,8,10,11,3,9,4,2,15,7,5"
15032,commdev-image-keyboard-response,318,1307026,learnblock1,446,img/planet9_left.png,9,Community 2,NA,TRUE,f,f,NA,NA,NA,2,6,"12,1,13,6,14,8,10,11,3,9,4,2,15,7,5"
15032,commdev-image-keyboard-response,319,1308283,learnblock1,80.5,img/planet11_right.png,11,Community 2,NA,FALSE,f,j,NA,NA,NA,2,6,"12,1,13,6,14,8,10,11,3,9,4,2,15,7,5"
15032,commdev-image-keyboard-response,320,1309539,learnblock1,null,img/planet3_left.png,3,Community 2,NA,FALSE,null,f,NA,NA,NA,2,6,"12,1,13,6,14,8,10,11,3,9,4,2,15,7,5"
15032,commdev-image-keyboard-response,321,1310790,learnblock1,1202.4000000953674,img/planet8_right.png,8,Community 2,NA,FALSE,f,j,NA,NA,NA,2,6,"12,1,13,6,14,8,10,11,3,9,4,2,15,7,5"
15032,commdev-image-keyboard-response,322,1312049,learnblock1,262.10000002384186,img/planet3_left.png,3,Community 2,NA,TRUE,f,f,NA,NA,NA,2,6,"12,1,13,6,14,8,10,11,3,9,4,2,15,7,5"
15032,commdev-image-keyboard-response,323,1313304,learnblock1,null,img/planet11_right.png,11,Community 2,NA,FALSE,null,j,NA,NA,NA,2,6,"12,1,13,6,14,8,10,11,3,9,4,2,15,7,5"
15032,commdev-image-keyboard-response,324,1314565,learnblock1,null,img/planet3_left.png,3,Community 2,NA,FALSE,null,f,NA,NA,NA,2,6,"12,1,13,6,14,8,10,11,3,9,4,2,15,7,5"
15032,commdev-image-keyboard-response,325,1315817,learnblock1,1068.5,img/planet11_right.png,11,Community 2,NA,FALSE,f,j,NA,NA,NA,2,6,"12,1,13,6,14,8,10,11,3,9,4,2,15,7,5"
15032,commdev-image-keyboard-response,326,1317082,learnblock1,49.700000047683716,img/planet2_right.png,2,Community 3,NA,TRUE,j,j,NA,NA,NA,2,6,"12,1,13,6,14,8,10,11,3,9,4,2,15,7,5"
15032,commdev-image-keyboard-response,327,1318344,learnblock1,100.70000004768372,img/planet15_left.png,15,Community 3,NA,FALSE,j,f,NA,NA,NA,2,6,"12,1,13,6,14,8,10,11,3,9,4,2,15,7,5"
15032,commdev-image-keyboard-response,328,1319597,learnblock1,62.200000047683716,img/planet5_right.png,5,Community 3,NA,FALSE,f,j,NA,NA,NA,2,6,"12,1,13,6,14,8,10,11,3,9,4,2,15,7,5"
15032,commdev-image-keyboard-response,329,1320850,learnblock1,378.5,img/planet7_left.png,7,Community 3,NA,TRUE,f,f,NA,NA,NA,2,6,"12,1,13,6,14,8,10,11,3,9,4,2,15,7,5"
15032,commdev-image-keyboard-response,330,1322109,learnblock1,280.5,img/planet2_left.png,2,Community 3,NA,TRUE,f,f,NA,NA,NA,2,6,"12,1,13,6,14,8,10,11,3,9,4,2,15,7,5"
15032,commdev-image-keyboard-response,331,1323361,learnblock1,208,img/planet15_left.png,15,Community 3,NA,TRUE,f,f,NA,NA,NA,2,6,"12,1,13,6,14,8,10,11,3,9,4,2,15,7,5"
15032,commdev-image-keyboard-response,332,1324618,learnblock1,263.60000002384186,img/planet4_right.png,4,Community 3,NA,FALSE,f,j,NA,NA,NA,2,6,"12,1,13,6,14,8,10,11,3,9,4,2,15,7,5"
15032,commdev-image-keyboard-response,333,1325878,learnblock1,78.10000002384186,img/planet14_right.png,14,Community 1,NA,FALSE,f,j,NA,NA,NA,2,6,"12,1,13,6,14,8,10,11,3,9,4,2,15,7,5"
15032,commdev-image-keyboard-response,334,1327137,learnblock1,211.70000004768372,img/planet4_right.png,4,Community 3,NA,FALSE,f,j,NA,NA,NA,2,6,"12,1,13,6,14,8,10,11,3,9,4,2,15,7,5"
15032,commdev-image-keyboard-response,335,1328396,learnblock1,17.899999976158142,img/planet7_left.png,7,Community 3,NA,TRUE,f,f,NA,NA,NA,2,6,"12,1,13,6,14,8,10,11,3,9,4,2,15,7,5"
15032,commdev-image-keyboard-response,336,1329649,learnblock1,452.1999999284744,img/planet2_right.png,2,Community 3,NA,FALSE,f,j,NA,NA,NA,2,6,"12,1,13,6,14,8,10,11,3,9,4,2,15,7,5"
15032,commdev-image-keyboard-response,337,1330902,learnblock1,82.70000004768372,img/planet7_left.png,7,Community 3,NA,TRUE,f,f,NA,NA,NA,2,6,"12,1,13,6,14,8,10,11,3,9,4,2,15,7,5"
15032,commdev-image-keyboard-response,338,1332158,learnblock1,299,img/planet2_right.png,2,Community 3,NA,FALSE,f,j,NA,NA,NA,2,6,"12,1,13,6,14,8,10,11,3,9,4,2,15,7,5"
15032,commdev-image-keyboard-response,339,1333417,learnblock1,502,img/planet15_right.png,15,Community 3,NA,FALSE,f,j,NA,NA,NA,2,6,"12,1,13,6,14,8,10,11,3,9,4,2,15,7,5"
15032,commdev-image-keyboard-response,340,1334672,learnblock1,null,img/planet2_right.png,2,Community 3,NA,FALSE,null,j,NA,NA,NA,2,6,"12,1,13,6,14,8,10,11,3,9,4,2,15,7,5"
15032,commdev-image-keyboard-response,341,1335938,learnblock1,null,img/planet15_right.png,15,Community 3,NA,FALSE,null,j,NA,NA,NA,2,6,"12,1,13,6,14,8,10,11,3,9,4,2,15,7,5"
15032,commdev-image-keyboard-response,342,1337197,learnblock1,237.20000004768372,img/planet2_right.png,2,Community 3,NA,FALSE,f,j,NA,NA,NA,2,6,"12,1,13,6,14,8,10,11,3,9,4,2,15,7,5"
15032,commdev-image-keyboard-response,343,1338451,learnblock1,238.20000004768372,img/planet15_right.png,15,Community 3,NA,FALSE,f,j,NA,NA,NA,2,6,"12,1,13,6,14,8,10,11,3,9,4,2,15,7,5"
15032,commdev-image-keyboard-response,344,1339710,learnblock1,111.70000004768372,img/planet4_right.png,4,Community 3,NA,FALSE,f,j,NA,NA,NA,2,6,"12,1,13,6,14,8,10,11,3,9,4,2,15,7,5"
15032,commdev-image-keyboard-response,345,1340970,learnblock1,229.79999995231628,img/planet7_right.png,7,Community 3,NA,FALSE,f,j,NA,NA,NA,2,6,"12,1,13,6,14,8,10,11,3,9,4,2,15,7,5"
15032,commdev-image-keyboard-response,346,1342225,learnblock1,167.89999997615814,img/planet4_right.png,4,Community 3,NA,FALSE,f,j,NA,NA,NA,2,6,"12,1,13,6,14,8,10,11,3,9,4,2,15,7,5"
15032,commdev-image-keyboard-response,347,1343480,learnblock1,172.60000002384186,img/planet15_left.png,15,Community 3,NA,FALSE,j,f,NA,NA,NA,2,6,"12,1,13,6,14,8,10,11,3,9,4,2,15,7,5"
15032,commdev-image-keyboard-response,348,1344744,learnblock1,228.79999995231628,img/planet5_right.png,5,Community 3,NA,FALSE,f,j,NA,NA,NA,2,6,"12,1,13,6,14,8,10,11,3,9,4,2,15,7,5"
15032,commdev-image-keyboard-response,349,1346002,learnblock1,173.79999995231628,img/planet7_left.png,7,Community 3,NA,TRUE,f,f,NA,NA,NA,2,6,"12,1,13,6,14,8,10,11,3,9,4,2,15,7,5"
15032,commdev-image-keyboard-response,350,1347259,learnblock1,null,img/planet15_right.png,15,Community 3,NA,FALSE,null,j,NA,NA,NA,2,6,"12,1,13,6,14,8,10,11,3,9,4,2,15,7,5"
15032,commdev-image-keyboard-response,351,1348516,learnblock1,62.200000047683716,img/planet4_left.png,4,Community 3,NA,TRUE,f,f,NA,NA,NA,2,6,"12,1,13,6,14,8,10,11,3,9,4,2,15,7,5"
15032,commdev-image-keyboard-response,352,1349774,learnblock1,120.70000004768372,img/planet5_left.png,5,Community 3,NA,FALSE,j,f,NA,NA,NA,2,6,"12,1,13,6,14,8,10,11,3,9,4,2,15,7,5"
15032,commdev-image-keyboard-response,353,1351027,learnblock1,225.59999990463257,img/planet7_right.png,7,Community 3,NA,FALSE,f,j,NA,NA,NA,2,6,"12,1,13,6,14,8,10,11,3,9,4,2,15,7,5"
15032,commdev-image-keyboard-response,354,1352286,learnblock1,91.60000002384186,img/planet15_left.png,15,Community 3,NA,FALSE,j,f,NA,NA,NA,2,6,"12,1,13,6,14,8,10,11,3,9,4,2,15,7,5"
15032,commdev-image-keyboard-response,355,1353545,learnblock1,32.89999997615814,img/planet5_left.png,5,Community 3,NA,FALSE,j,f,NA,NA,NA,2,6,"12,1,13,6,14,8,10,11,3,9,4,2,15,7,5"
15032,commdev-image-keyboard-response,356,1354797,learnblock1,96.5,img/planet2_right.png,2,Community 3,NA,TRUE,j,j,NA,NA,NA,2,6,"12,1,13,6,14,8,10,11,3,9,4,2,15,7,5"
15032,commdev-image-keyboard-response,357,1356059,learnblock1,114.30000007152557,img/planet7_right.png,7,Community 3,NA,FALSE,f,j,NA,NA,NA,2,6,"12,1,13,6,14,8,10,11,3,9,4,2,15,7,5"
15032,commdev-image-keyboard-response,358,1357321,learnblock1,25.399999976158142,img/planet2_right.png,2,Community 3,NA,FALSE,f,j,NA,NA,NA,2,6,"12,1,13,6,14,8,10,11,3,9,4,2,15,7,5"
15032,commdev-image-keyboard-response,359,1358576,learnblock1,27.899999976158142,img/planet15_right.png,15,Community 3,NA,TRUE,j,j,NA,NA,NA,2,6,"12,1,13,6,14,8,10,11,3,9,4,2,15,7,5"
15032,commdev-image-keyboard-response,360,1359831,learnblock1,342.89999997615814,img/planet7_left.png,7,Community 3,NA,TRUE,f,f,NA,NA,NA,2,6,"12,1,13,6,14,8,10,11,3,9,4,2,15,7,5"
15032,commdev-image-keyboard-response,361,1361092,learnblock1,235.29999995231628,img/planet4_left.png,4,Community 3,NA,FALSE,j,f,NA,NA,NA,2,6,"12,1,13,6,14,8,10,11,3,9,4,2,15,7,5"
15032,commdev-image-keyboard-response,362,1362347,learnblock1,99.70000004768372,img/planet14_left.png,14,Community 1,NA,TRUE,f,f,NA,NA,NA,2,6,"12,1,13,6,14,8,10,11,3,9,4,2,15,7,5"
15032,commdev-image-keyboard-response,363,1363607,learnblock1,6.199999928474426,img/planet13_left.png,13,Community 1,NA,TRUE,f,f,NA,NA,NA,2,6,"12,1,13,6,14,8,10,11,3,9,4,2,15,7,5"
15032,commdev-image-keyboard-response,364,1364860,learnblock1,82.39999997615814,img/planet12_right.png,12,Community 1,NA,FALSE,f,j,NA,NA,NA,2,6,"12,1,13,6,14,8,10,11,3,9,4,2,15,7,5"
15032,commdev-image-keyboard-response,365,1366118,learnblock1,84.60000002384186,img/planet6_right.png,6,Community 1,NA,TRUE,j,j,NA,NA,NA,2,6,"12,1,13,6,14,8,10,11,3,9,4,2,15,7,5"
15032,commdev-image-keyboard-response,366,1367376,learnblock1,84,img/planet12_right.png,12,Community 1,NA,TRUE,j,j,NA,NA,NA,2,6,"12,1,13,6,14,8,10,11,3,9,4,2,15,7,5"
15032,commdev-image-keyboard-response,367,1368638,learnblock1,6.199999928474426,img/planet13_right.png,13,Community 1,NA,TRUE,j,j,NA,NA,NA,2,6,"12,1,13,6,14,8,10,11,3,9,4,2,15,7,5"
15032,commdev-image-keyboard-response,368,1369896,learnblock1,244.79999995231628,img/planet6_right.png,6,Community 1,NA,TRUE,j,j,NA,NA,NA,2,6,"12,1,13,6,14,8,10,11,3,9,4,2,15,7,5"
15032,commdev-image-keyboard-response,369,1371154,learnblock1,67.20000004768372,img/planet1_left.png,1,Community 1,NA,TRUE,f,f,NA,NA,NA,2,6,"12,1,13,6,14,8,10,11,3,9,4,2,15,7,5"
15032,commdev-image-keyboard-response,370,1372411,learnblock1,null,img/planet13_right.png,13,Community 1,NA,FALSE,null,j,NA,NA,NA,2,6,"12,1,13,6,14,8,10,11,3,9,4,2,15,7,5"
15032,commdev-image-keyboard-response,371,1373665,learnblock1,199.69999992847443,img/planet1_left.png,1,Community 1,NA,TRUE,f,f,NA,NA,NA,2,6,"12,1,13,6,14,8,10,11,3,9,4,2,15,7,5"
15032,commdev-image-keyboard-response,372,1374917,learnblock1,294.2000000476837,img/planet12_right.png,12,Community 1,NA,FALSE,f,j,NA,NA,NA,2,6,"12,1,13,6,14,8,10,11,3,9,4,2,15,7,5"
15032,commdev-image-keyboard-response,373,1376174,learnblock1,152.20000004768372,img/planet1_left.png,1,Community 1,NA,FALSE,j,f,NA,NA,NA,2,6,"12,1,13,6,14,8,10,11,3,9,4,2,15,7,5"
15032,commdev-image-keyboard-response,374,1377431,learnblock1,331.7000000476837,img/planet6_left.png,6,Community 1,NA,FALSE,j,f,NA,NA,NA,2,6,"12,1,13,6,14,8,10,11,3,9,4,2,15,7,5"
15032,commdev-image-keyboard-response,375,1378684,learnblock1,290.60000002384186,img/planet12_right.png,12,Community 1,NA,TRUE,j,j,NA,NA,NA,2,6,"12,1,13,6,14,8,10,11,3,9,4,2,15,7,5"
15032,commdev-image-keyboard-response,376,1379938,learnblock1,484.10000002384186,img/planet13_right.png,13,Community 1,NA,TRUE,j,j,NA,NA,NA,2,6,"12,1,13,6,14,8,10,11,3,9,4,2,15,7,5"
15032,commdev-image-keyboard-response,377,1381202,learnblock1,367.7000000476837,img/planet6_left.png,6,Community 1,NA,TRUE,f,f,NA,NA,NA,2,6,"12,1,13,6,14,8,10,11,3,9,4,2,15,7,5"
15032,commdev-image-keyboard-response,378,1382457,learnblock1,812.1000000238419,img/planet1_right.png,1,Community 1,NA,FALSE,f,j,NA,NA,NA,2,6,"12,1,13,6,14,8,10,11,3,9,4,2,15,7,5"
15032,commdev-image-keyboard-response,379,1383717,learnblock1,328.5,img/planet13_right.png,13,Community 1,NA,FALSE,f,j,NA,NA,NA,2,6,"12,1,13,6,14,8,10,11,3,9,4,2,15,7,5"
15032,commdev-image-keyboard-response,380,1384984,learnblock1,278.40000009536743,img/planet6_right.png,6,Community 1,NA,TRUE,j,j,NA,NA,NA,2,6,"12,1,13,6,14,8,10,11,3,9,4,2,15,7,5"
15032,commdev-image-keyboard-response,381,1386238,learnblock1,522,img/planet1_right.png,1,Community 1,NA,TRUE,j,j,NA,NA,NA,2,6,"12,1,13,6,14,8,10,11,3,9,4,2,15,7,5"
15032,commdev-image-keyboard-response,382,1387491,learnblock1,353.5,img/planet6_right.png,6,Community 1,NA,TRUE,j,j,NA,NA,NA,2,6,"12,1,13,6,14,8,10,11,3,9,4,2,15,7,5"
15032,commdev-image-keyboard-response,383,1388759,learnblock1,306.89999997615814,img/planet1_left.png,1,Community 1,NA,TRUE,f,f,NA,NA,NA,2,6,"12,1,13,6,14,8,10,11,3,9,4,2,15,7,5"
15032,commdev-image-keyboard-response,384,1390023,learnblock1,76.30000007152557,img/planet13_right.png,13,Community 1,NA,FALSE,f,j,NA,NA,NA,2,6,"12,1,13,6,14,8,10,11,3,9,4,2,15,7,5"
15032,commdev-image-keyboard-response,385,1391280,learnblock1,6.100000023841858,img/planet12_right.png,12,Community 1,NA,FALSE,f,j,NA,NA,NA,2,6,"12,1,13,6,14,8,10,11,3,9,4,2,15,7,5"
15032,commdev-image-keyboard-response,386,1392534,learnblock1,919.6999999284744,img/planet6_right.png,6,Community 1,NA,TRUE,j,j,NA,NA,NA,2,6,"12,1,13,6,14,8,10,11,3,9,4,2,15,7,5"
15032,commdev-image-keyboard-response,387,1393791,learnblock1,300.6999999284744,img/planet1_right.png,1,Community 1,NA,TRUE,j,j,NA,NA,NA,2,6,"12,1,13,6,14,8,10,11,3,9,4,2,15,7,5"
15032,commdev-image-keyboard-response,388,1395048,learnblock1,424,img/planet14_left.png,14,Community 1,NA,FALSE,j,f,NA,NA,NA,2,6,"12,1,13,6,14,8,10,11,3,9,4,2,15,7,5"
15032,commdev-image-keyboard-response,389,1396303,learnblock1,505.39999997615814,img/planet1_right.png,1,Community 1,NA,TRUE,j,j,NA,NA,NA,2,6,"12,1,13,6,14,8,10,11,3,9,4,2,15,7,5"
15032,commdev-image-keyboard-response,390,1397555,learnblock1,91.79999995231628,img/planet6_right.png,6,Community 1,NA,TRUE,j,j,NA,NA,NA,2,6,"12,1,13,6,14,8,10,11,3,9,4,2,15,7,5"
15032,commdev-image-keyboard-response,391,1398811,learnblock1,164.09999990463257,img/planet12_right.png,12,Community 1,NA,TRUE,j,j,NA,NA,NA,2,6,"12,1,13,6,14,8,10,11,3,9,4,2,15,7,5"
15032,commdev-image-keyboard-response,392,1400065,learnblock1,276.40000009536743,img/planet1_left.png,1,Community 1,NA,FALSE,j,f,NA,NA,NA,2,6,"12,1,13,6,14,8,10,11,3,9,4,2,15,7,5"
15032,commdev-image-keyboard-response,393,1401330,learnblock1,203.79999995231628,img/planet13_right.png,13,Community 1,NA,TRUE,j,j,NA,NA,NA,2,6,"12,1,13,6,14,8,10,11,3,9,4,2,15,7,5"
15032,commdev-image-keyboard-response,394,1402586,learnblock1,147.70000004768372,img/planet12_right.png,12,Community 1,NA,TRUE,j,j,NA,NA,NA,2,6,"12,1,13,6,14,8,10,11,3,9,4,2,15,7,5"
15032,commdev-image-keyboard-response,395,1403841,learnblock1,339.89999997615814,img/planet14_right.png,14,Community 1,NA,TRUE,j,j,NA,NA,NA,2,6,"12,1,13,6,14,8,10,11,3,9,4,2,15,7,5"
15032,commdev-image-keyboard-response,396,1405097,learnblock1,51.5,img/planet4_left.png,4,Community 3,NA,FALSE,j,f,NA,NA,NA,2,6,"12,1,13,6,14,8,10,11,3,9,4,2,15,7,5"
15032,commdev-image-keyboard-response,397,1406359,learnblock1,287.09999990463257,img/planet7_left.png,7,Community 3,NA,FALSE,j,f,NA,NA,NA,2,6,"12,1,13,6,14,8,10,11,3,9,4,2,15,7,5"
15032,commdev-image-keyboard-response,398,1407618,learnblock1,209.70000004768372,img/planet5_right.png,5,Community 3,NA,TRUE,j,j,NA,NA,NA,2,6,"12,1,13,6,14,8,10,11,3,9,4,2,15,7,5"
15032,commdev-image-keyboard-response,399,1408876,learnblock1,240.39999997615814,img/planet2_left.png,2,Community 3,NA,FALSE,j,f,NA,NA,NA,2,6,"12,1,13,6,14,8,10,11,3,9,4,2,15,7,5"
15032,commdev-image-keyboard-response,400,1410134,learnblock1,205.10000002384186,img/planet11_left.png,11,Community 2,NA,FALSE,j,f,NA,NA,NA,2,6,"12,1,13,6,14,8,10,11,3,9,4,2,15,7,5"
15032,commdev-image-keyboard-response,401,1411385,learnblock1,113.5,img/planet2_left.png,2,Community 3,NA,FALSE,j,f,NA,NA,NA,2,6,"12,1,13,6,14,8,10,11,3,9,4,2,15,7,5"
15032,commdev-image-keyboard-response,402,1412638,learnblock1,153.30000007152557,img/planet15_right.png,15,Community 3,NA,TRUE,j,j,NA,NA,NA,2,6,"12,1,13,6,14,8,10,11,3,9,4,2,15,7,5"
15032,commdev-image-keyboard-response,403,1413889,learnblock1,95.5,img/planet7_right.png,7,Community 3,NA,TRUE,j,j,NA,NA,NA,2,6,"12,1,13,6,14,8,10,11,3,9,4,2,15,7,5"
15032,commdev-image-keyboard-response,404,1415150,learnblock1,39.10000002384186,img/planet4_left.png,4,Community 3,NA,FALSE,j,f,NA,NA,NA,2,6,"12,1,13,6,14,8,10,11,3,9,4,2,15,7,5"
15032,commdev-image-keyboard-response,405,1416407,learnblock1,13.600000023841858,img/planet15_right.png,15,Community 3,NA,TRUE,j,j,NA,NA,NA,2,6,"12,1,13,6,14,8,10,11,3,9,4,2,15,7,5"
15032,commdev-image-keyboard-response,406,1417667,learnblock1,116.90000009536743,img/planet7_left.png,7,Community 3,NA,FALSE,j,f,NA,NA,NA,2,6,"12,1,13,6,14,8,10,11,3,9,4,2,15,7,5"
15032,commdev-image-keyboard-response,407,1418924,learnblock1,367.89999997615814,img/planet4_right.png,4,Community 3,NA,TRUE,j,j,NA,NA,NA,2,6,"12,1,13,6,14,8,10,11,3,9,4,2,15,7,5"
15032,commdev-image-keyboard-response,408,1420180,learnblock1,279.40000009536743,img/planet15_right.png,15,Community 3,NA,TRUE,j,j,NA,NA,NA,2,6,"12,1,13,6,14,8,10,11,3,9,4,2,15,7,5"
15032,commdev-image-keyboard-response,409,1421437,learnblock1,235.19999992847443,img/planet2_right.png,2,Community 3,NA,TRUE,j,j,NA,NA,NA,2,6,"12,1,13,6,14,8,10,11,3,9,4,2,15,7,5"
15032,commdev-image-keyboard-response,410,1422691,learnblock1,98.19999992847443,img/planet11_right.png,11,Community 2,NA,TRUE,j,j,NA,NA,NA,2,6,"12,1,13,6,14,8,10,11,3,9,4,2,15,7,5"
15032,commdev-image-keyboard-response,411,1423944,learnblock1,325.7999999523163,img/planet3_right.png,3,Community 2,NA,TRUE,j,j,NA,NA,NA,2,6,"12,1,13,6,14,8,10,11,3,9,4,2,15,7,5"
15032,commdev-image-keyboard-response,412,1425198,learnblock1,385.5,img/planet11_right.png,11,Community 2,NA,TRUE,j,j,NA,NA,NA,2,6,"12,1,13,6,14,8,10,11,3,9,4,2,15,7,5"
15032,commdev-image-keyboard-response,413,1426449,learnblock1,351.6999999284744,img/planet2_right.png,2,Community 3,NA,TRUE,j,j,NA,NA,NA,2,6,"12,1,13,6,14,8,10,11,3,9,4,2,15,7,5"
15032,commdev-image-keyboard-response,414,1427701,learnblock1,229.60000002384186,img/planet5_right.png,5,Community 3,NA,TRUE,j,j,NA,NA,NA,2,6,"12,1,13,6,14,8,10,11,3,9,4,2,15,7,5"
15032,commdev-image-keyboard-response,415,1428957,learnblock1,162.29999995231628,img/planet7_right.png,7,Community 3,NA,TRUE,j,j,NA,NA,NA,2,6,"12,1,13,6,14,8,10,11,3,9,4,2,15,7,5"
15032,commdev-image-keyboard-response,416,1430212,learnblock1,253.10000002384186,img/planet5_left.png,5,Community 3,NA,FALSE,j,f,NA,NA,NA,2,6,"12,1,13,6,14,8,10,11,3,9,4,2,15,7,5"
15032,commdev-image-keyboard-response,417,1431471,learnblock1,113.20000004768372,img/planet15_left.png,15,Community 3,NA,FALSE,j,f,NA,NA,NA,2,6,"12,1,13,6,14,8,10,11,3,9,4,2,15,7,5"
15032,commdev-image-keyboard-response,418,1432730,learnblock1,163,img/planet4_left.png,4,Community 3,NA,FALSE,j,f,NA,NA,NA,2,6,"12,1,13,6,14,8,10,11,3,9,4,2,15,7,5"
15032,commdev-image-keyboard-response,419,1433988,learnblock1,98.5,img/planet14_right.png,14,Community 1,NA,TRUE,j,j,NA,NA,NA,2,6,"12,1,13,6,14,8,10,11,3,9,4,2,15,7,5"
15032,commdev-image-keyboard-response,420,1435249,learnblock1,190,img/planet1_left.png,1,Community 1,NA,FALSE,j,f,NA,NA,NA,2,6,"12,1,13,6,14,8,10,11,3,9,4,2,15,7,5"
15032,commdev-image-keyboard-response,421,1436504,learnblock1,99,img/planet14_left.png,14,Community 1,NA,FALSE,j,f,NA,NA,NA,2,6,"12,1,13,6,14,8,10,11,3,9,4,2,15,7,5"
15032,commdev-image-keyboard-response,425,1455898,learnblock2,639.6999999284744,img/planet3_right.png,3,Community 2,NA,FALSE,f,j,NA,NA,NA,2,6,"12,1,13,6,14,8,10,11,3,9,4,2,15,7,5"
15032,commdev-image-keyboard-response,426,1457154,learnblock2,816,img/planet11_right.png,11,Community 2,NA,FALSE,f,j,NA,NA,NA,2,6,"12,1,13,6,14,8,10,11,3,9,4,2,15,7,5"
15032,commdev-image-keyboard-response,427,1458410,learnblock2,653.2999999523163,img/planet10_left.png,10,Community 2,NA,TRUE,f,f,NA,NA,NA,2,6,"12,1,13,6,14,8,10,11,3,9,4,2,15,7,5"
15032,commdev-image-keyboard-response,428,1459665,learnblock2,1228.3999999761581,img/planet11_right.png,11,Community 2,NA,FALSE,f,j,NA,NA,NA,2,6,"12,1,13,6,14,8,10,11,3,9,4,2,15,7,5"
15032,commdev-image-keyboard-response,429,1460931,learnblock2,972,img/planet10_right.png,10,Community 2,NA,FALSE,f,j,NA,NA,NA,2,6,"12,1,13,6,14,8,10,11,3,9,4,2,15,7,5"
15032,commdev-image-keyboard-response,430,1462183,learnblock2,null,img/planet11_right.png,11,Community 2,NA,FALSE,null,j,NA,NA,NA,2,6,"12,1,13,6,14,8,10,11,3,9,4,2,15,7,5"
15032,commdev-image-keyboard-response,431,1463447,learnblock2,433.7000000476837,img/planet9_left.png,9,Community 2,NA,TRUE,f,f,NA,NA,NA,2,6,"12,1,13,6,14,8,10,11,3,9,4,2,15,7,5"
15032,commdev-image-keyboard-response,432,1464703,learnblock2,376.10000002384186,img/planet3_left.png,3,Community 2,NA,TRUE,f,f,NA,NA,NA,2,6,"12,1,13,6,14,8,10,11,3,9,4,2,15,7,5"
15032,commdev-image-keyboard-response,433,1465957,learnblock2,158.10000002384186,img/planet11_right.png,11,Community 2,NA,FALSE,f,j,NA,NA,NA,2,6,"12,1,13,6,14,8,10,11,3,9,4,2,15,7,5"
15032,commdev-image-keyboard-response,434,1467215,learnblock2,142.80000007152557,img/planet2_left.png,2,Community 3,NA,FALSE,j,f,NA,NA,NA,2,6,"12,1,13,6,14,8,10,11,3,9,4,2,15,7,5"
15032,commdev-image-keyboard-response,435,1468468,learnblock2,845.7000000476837,img/planet5_left.png,5,Community 3,NA,TRUE,f,f,NA,NA,NA,2,6,"12,1,13,6,14,8,10,11,3,9,4,2,15,7,5"
15032,commdev-image-keyboard-response,436,1469737,learnblock2,578.7999999523163,img/planet15_left.png,15,Community 3,NA,TRUE,f,f,NA,NA,NA,2,6,"12,1,13,6,14,8,10,11,3,9,4,2,15,7,5"
15032,commdev-image-keyboard-response,437,1470993,learnblock2,223.09999990463257,img/planet4_right.png,4,Community 3,NA,FALSE,f,j,NA,NA,NA,2,6,"12,1,13,6,14,8,10,11,3,9,4,2,15,7,5"
15032,commdev-image-keyboard-response,438,1472251,learnblock2,76.60000002384186,img/planet14_right.png,14,Community 1,NA,FALSE,f,j,NA,NA,NA,2,6,"12,1,13,6,14,8,10,11,3,9,4,2,15,7,5"
15032,commdev-image-keyboard-response,439,1473510,learnblock2,71,img/planet13_right.png,13,Community 1,NA,FALSE,f,j,NA,NA,NA,2,6,"12,1,13,6,14,8,10,11,3,9,4,2,15,7,5"
15032,commdev-image-keyboard-response,440,1474765,learnblock2,247.90000009536743,img/planet14_right.png,14,Community 1,NA,FALSE,f,j,NA,NA,NA,2,6,"12,1,13,6,14,8,10,11,3,9,4,2,15,7,5"
15032,commdev-image-keyboard-response,441,1476024,learnblock2,799.8999999761581,img/planet12_right.png,12,Community 1,NA,FALSE,f,j,NA,NA,NA,2,6,"12,1,13,6,14,8,10,11,3,9,4,2,15,7,5"
15032,commdev-image-keyboard-response,442,1477283,learnblock2,395,img/planet6_left.png,6,Community 1,NA,TRUE,f,f,NA,NA,NA,2,6,"12,1,13,6,14,8,10,11,3,9,4,2,15,7,5"
15032,commdev-image-keyboard-response,443,1478537,learnblock2,549.5,img/planet12_left.png,12,Community 1,NA,TRUE,f,f,NA,NA,NA,2,6,"12,1,13,6,14,8,10,11,3,9,4,2,15,7,5"
15032,commdev-image-keyboard-response,444,1479795,learnblock2,644,img/planet13_left.png,13,Community 1,NA,TRUE,f,f,NA,NA,NA,2,6,"12,1,13,6,14,8,10,11,3,9,4,2,15,7,5"
15032,commdev-image-keyboard-response,445,1481041,learnblock2,566.6000000238419,img/planet1_right.png,1,Community 1,NA,TRUE,j,j,NA,NA,NA,2,6,"12,1,13,6,14,8,10,11,3,9,4,2,15,7,5"
15032,commdev-image-keyboard-response,446,1482298,learnblock2,701.2000000476837,img/planet13_right.png,13,Community 1,NA,TRUE,j,j,NA,NA,NA,2,6,"12,1,13,6,14,8,10,11,3,9,4,2,15,7,5"
15032,commdev-image-keyboard-response,447,1483556,learnblock2,163.60000002384186,img/planet12_right.png,12,Community 1,NA,FALSE,f,j,NA,NA,NA,2,6,"12,1,13,6,14,8,10,11,3,9,4,2,15,7,5"
15032,commdev-image-keyboard-response,448,1484812,learnblock2,324.6999999284744,img/planet1_right.png,1,Community 1,NA,TRUE,j,j,NA,NA,NA,2,6,"12,1,13,6,14,8,10,11,3,9,4,2,15,7,5"
15032,commdev-image-keyboard-response,449,1486072,learnblock2,90.10000002384186,img/planet6_right.png,6,Community 1,NA,FALSE,f,j,NA,NA,NA,2,6,"12,1,13,6,14,8,10,11,3,9,4,2,15,7,5"
15032,commdev-image-keyboard-response,450,1487335,learnblock2,410.5,img/planet12_left.png,12,Community 1,NA,FALSE,j,f,NA,NA,NA,2,6,"12,1,13,6,14,8,10,11,3,9,4,2,15,7,5"
15032,commdev-image-keyboard-response,451,1488596,learnblock2,22.299999952316284,img/planet13_right.png,13,Community 1,NA,TRUE,j,j,NA,NA,NA,2,6,"12,1,13,6,14,8,10,11,3,9,4,2,15,7,5"
15032,commdev-image-keyboard-response,452,1489850,learnblock2,385.5,img/planet12_left.png,12,Community 1,NA,FALSE,j,f,NA,NA,NA,2,6,"12,1,13,6,14,8,10,11,3,9,4,2,15,7,5"
15032,commdev-image-keyboard-response,453,1491111,learnblock2,245.70000004768372,img/planet1_left.png,1,Community 1,NA,FALSE,j,f,NA,NA,NA,2,6,"12,1,13,6,14,8,10,11,3,9,4,2,15,7,5"
15032,commdev-image-keyboard-response,454,1492364,learnblock2,40.300000071525574,img/planet14_right.png,14,Community 1,NA,TRUE,j,j,NA,NA,NA,2,6,"12,1,13,6,14,8,10,11,3,9,4,2,15,7,5"
15032,commdev-image-keyboard-response,455,1493620,learnblock2,13.800000071525574,img/planet4_right.png,4,Community 3,NA,TRUE,j,j,NA,NA,NA,2,6,"12,1,13,6,14,8,10,11,3,9,4,2,15,7,5"
15032,commdev-image-keyboard-response,456,1494881,learnblock2,271.10000002384186,img/planet7_right.png,7,Community 3,NA,FALSE,f,j,NA,NA,NA,2,6,"12,1,13,6,14,8,10,11,3,9,4,2,15,7,5"
15032,commdev-image-keyboard-response,457,1496136,learnblock2,269.3000000715256,img/planet4_left.png,4,Community 3,NA,FALSE,j,f,NA,NA,NA,2,6,"12,1,13,6,14,8,10,11,3,9,4,2,15,7,5"
15032,commdev-image-keyboard-response,458,1497393,learnblock2,40.300000071525574,img/planet7_left.png,7,Community 3,NA,FALSE,j,f,NA,NA,NA,2,6,"12,1,13,6,14,8,10,11,3,9,4,2,15,7,5"
15032,commdev-image-keyboard-response,459,1498652,learnblock2,299.89999997615814,img/planet15_left.png,15,Community 3,NA,FALSE,j,f,NA,NA,NA,2,6,"12,1,13,6,14,8,10,11,3,9,4,2,15,7,5"
15032,commdev-image-keyboard-response,460,1499906,learnblock2,321.89999997615814,img/planet7_left.png,7,Community 3,NA,FALSE,j,f,NA,NA,NA,2,6,"12,1,13,6,14,8,10,11,3,9,4,2,15,7,5"
15032,commdev-image-keyboard-response,461,1501165,learnblock2,298.10000002384186,img/planet4_left.png,4,Community 3,NA,FALSE,j,f,NA,NA,NA,2,6,"12,1,13,6,14,8,10,11,3,9,4,2,15,7,5"
15032,commdev-image-keyboard-response,462,1502420,learnblock2,114.5,img/planet14_right.png,14,Community 1,NA,FALSE,f,j,NA,NA,NA,2,6,"12,1,13,6,14,8,10,11,3,9,4,2,15,7,5"
15032,commdev-image-keyboard-response,463,1503674,learnblock2,351,img/planet4_left.png,4,Community 3,NA,TRUE,f,f,NA,NA,NA,2,6,"12,1,13,6,14,8,10,11,3,9,4,2,15,7,5"
15032,commdev-image-keyboard-response,464,1504927,learnblock2,329.09999990463257,img/planet15_left.png,15,Community 3,NA,FALSE,j,f,NA,NA,NA,2,6,"12,1,13,6,14,8,10,11,3,9,4,2,15,7,5"
15032,commdev-image-keyboard-response,465,1506185,learnblock2,359.09999990463257,img/planet7_right.png,7,Community 3,NA,FALSE,f,j,NA,NA,NA,2,6,"12,1,13,6,14,8,10,11,3,9,4,2,15,7,5"
15032,commdev-image-keyboard-response,466,1507438,learnblock2,346.1999999284744,img/planet2_right.png,2,Community 3,NA,FALSE,f,j,NA,NA,NA,2,6,"12,1,13,6,14,8,10,11,3,9,4,2,15,7,5"
15032,commdev-image-keyboard-response,467,1508691,learnblock2,390.2000000476837,img/planet7_left.png,7,Community 3,NA,TRUE,f,f,NA,NA,NA,2,6,"12,1,13,6,14,8,10,11,3,9,4,2,15,7,5"
15032,commdev-image-keyboard-response,468,1509943,learnblock2,447.7000000476837,img/planet4_left.png,4,Community 3,NA,TRUE,f,f,NA,NA,NA,2,6,"12,1,13,6,14,8,10,11,3,9,4,2,15,7,5"
15032,commdev-image-keyboard-response,469,1511195,learnblock2,71.79999995231628,img/planet7_right.png,7,Community 3,NA,TRUE,j,j,NA,NA,NA,2,6,"12,1,13,6,14,8,10,11,3,9,4,2,15,7,5"
15032,commdev-image-keyboard-response,470,1512459,learnblock2,229.30000007152557,img/planet15_right.png,15,Community 3,NA,TRUE,j,j,NA,NA,NA,2,6,"12,1,13,6,14,8,10,11,3,9,4,2,15,7,5"
15032,commdev-image-keyboard-response,471,1513711,learnblock2,180.59999990463257,img/planet4_right.png,4,Community 3,NA,TRUE,j,j,NA,NA,NA,2,6,"12,1,13,6,14,8,10,11,3,9,4,2,15,7,5"
15032,commdev-image-keyboard-response,472,1514965,learnblock2,289.5,img/planet7_left.png,7,Community 3,NA,TRUE,f,f,NA,NA,NA,2,6,"12,1,13,6,14,8,10,11,3,9,4,2,15,7,5"
15032,commdev-image-keyboard-response,473,1516223,learnblock2,391,img/planet4_right.png,4,Community 3,NA,TRUE,j,j,NA,NA,NA,2,6,"12,1,13,6,14,8,10,11,3,9,4,2,15,7,5"
15032,commdev-image-keyboard-response,474,1517482,learnblock2,618.8999999761581,img/planet5_left.png,5,Community 3,NA,TRUE,f,f,NA,NA,NA,2,6,"12,1,13,6,14,8,10,11,3,9,4,2,15,7,5"
15032,commdev-image-keyboard-response,475,1518738,learnblock2,310.8000000715256,img/planet4_left.png,4,Community 3,NA,FALSE,j,f,NA,NA,NA,2,6,"12,1,13,6,14,8,10,11,3,9,4,2,15,7,5"
15032,commdev-image-keyboard-response,476,1519998,learnblock2,317.5,img/planet5_left.png,5,Community 3,NA,FALSE,j,f,NA,NA,NA,2,6,"12,1,13,6,14,8,10,11,3,9,4,2,15,7,5"
15032,commdev-image-keyboard-response,477,1521250,learnblock2,311.1999999284744,img/planet7_left.png,7,Community 3,NA,TRUE,f,f,NA,NA,NA,2,6,"12,1,13,6,14,8,10,11,3,9,4,2,15,7,5"
15032,commdev-image-keyboard-response,478,1522503,learnblock2,11.700000047683716,img/planet4_right.png,4,Community 3,NA,FALSE,f,j,NA,NA,NA,2,6,"12,1,13,6,14,8,10,11,3,9,4,2,15,7,5"
15032,commdev-image-keyboard-response,479,1523761,learnblock2,229.60000002384186,img/planet5_right.png,5,Community 3,NA,TRUE,j,j,NA,NA,NA,2,6,"12,1,13,6,14,8,10,11,3,9,4,2,15,7,5"
15032,commdev-image-keyboard-response,480,1525014,learnblock2,300.7000000476837,img/planet15_left.png,15,Community 3,NA,FALSE,j,f,NA,NA,NA,2,6,"12,1,13,6,14,8,10,11,3,9,4,2,15,7,5"
15032,commdev-image-keyboard-response,481,1526273,learnblock2,435.39999997615814,img/planet2_right.png,2,Community 3,NA,TRUE,j,j,NA,NA,NA,2,6,"12,1,13,6,14,8,10,11,3,9,4,2,15,7,5"
15032,commdev-image-keyboard-response,482,1527532,learnblock2,370.09999990463257,img/planet7_left.png,7,Community 3,NA,TRUE,f,f,NA,NA,NA,2,6,"12,1,13,6,14,8,10,11,3,9,4,2,15,7,5"
15032,commdev-image-keyboard-response,483,1528784,learnblock2,144.60000002384186,img/planet5_right.png,5,Community 3,NA,TRUE,j,j,NA,NA,NA,2,6,"12,1,13,6,14,8,10,11,3,9,4,2,15,7,5"
15032,commdev-image-keyboard-response,484,1530045,learnblock2,352.89999997615814,img/planet15_right.png,15,Community 3,NA,TRUE,j,j,NA,NA,NA,2,6,"12,1,13,6,14,8,10,11,3,9,4,2,15,7,5"
15032,commdev-image-keyboard-response,485,1531300,learnblock2,32.5,img/planet7_right.png,7,Community 3,NA,TRUE,j,j,NA,NA,NA,2,6,"12,1,13,6,14,8,10,11,3,9,4,2,15,7,5"
15032,commdev-image-keyboard-response,486,1532554,learnblock2,237.80000007152557,img/planet5_left.png,5,Community 3,NA,TRUE,f,f,NA,NA,NA,2,6,"12,1,13,6,14,8,10,11,3,9,4,2,15,7,5"
15032,commdev-image-keyboard-response,487,1533807,learnblock2,430.8000000715256,img/planet4_right.png,4,Community 3,NA,FALSE,f,j,NA,NA,NA,2,6,"12,1,13,6,14,8,10,11,3,9,4,2,15,7,5"
15032,commdev-image-keyboard-response,488,1535061,learnblock2,52.199999928474426,img/planet5_left.png,5,Community 3,NA,TRUE,f,f,NA,NA,NA,2,6,"12,1,13,6,14,8,10,11,3,9,4,2,15,7,5"
15032,commdev-image-keyboard-response,489,1536317,learnblock2,38.10000002384186,img/planet2_left.png,2,Community 3,NA,FALSE,j,f,NA,NA,NA,2,6,"12,1,13,6,14,8,10,11,3,9,4,2,15,7,5"
15032,commdev-image-keyboard-response,490,1537573,learnblock2,212.19999992847443,img/planet11_right.png,11,Community 2,NA,TRUE,j,j,NA,NA,NA,2,6,"12,1,13,6,14,8,10,11,3,9,4,2,15,7,5"
15032,commdev-image-keyboard-response,491,1538826,learnblock2,125.70000004768372,img/planet9_left.png,9,Community 2,NA,TRUE,f,f,NA,NA,NA,2,6,"12,1,13,6,14,8,10,11,3,9,4,2,15,7,5"
15032,commdev-image-keyboard-response,492,1540092,learnblock2,191.40000009536743,img/planet3_right.png,3,Community 2,NA,FALSE,f,j,NA,NA,NA,2,6,"12,1,13,6,14,8,10,11,3,9,4,2,15,7,5"
15032,commdev-image-keyboard-response,493,1541356,learnblock2,194.39999997615814,img/planet10_right.png,10,Community 2,NA,TRUE,j,j,NA,NA,NA,2,6,"12,1,13,6,14,8,10,11,3,9,4,2,15,7,5"
15032,commdev-image-keyboard-response,494,1542608,learnblock2,246,img/planet3_left.png,3,Community 2,NA,FALSE,j,f,NA,NA,NA,2,6,"12,1,13,6,14,8,10,11,3,9,4,2,15,7,5"
15032,commdev-image-keyboard-response,495,1543866,learnblock2,309.60000002384186,img/planet10_right.png,10,Community 2,NA,FALSE,f,j,NA,NA,NA,2,6,"12,1,13,6,14,8,10,11,3,9,4,2,15,7,5"
15032,commdev-image-keyboard-response,496,1545125,learnblock2,322.7999999523163,img/planet11_right.png,11,Community 2,NA,FALSE,f,j,NA,NA,NA,2,6,"12,1,13,6,14,8,10,11,3,9,4,2,15,7,5"
15032,commdev-image-keyboard-response,497,1546384,learnblock2,110.39999997615814,img/planet9_left.png,9,Community 2,NA,TRUE,f,f,NA,NA,NA,2,6,"12,1,13,6,14,8,10,11,3,9,4,2,15,7,5"
15032,commdev-image-keyboard-response,498,1547641,learnblock2,214.39999997615814,img/planet8_right.png,8,Community 2,NA,TRUE,j,j,NA,NA,NA,2,6,"12,1,13,6,14,8,10,11,3,9,4,2,15,7,5"
15032,commdev-image-keyboard-response,499,1548895,learnblock2,139.10000002384186,img/planet3_right.png,3,Community 2,NA,TRUE,j,j,NA,NA,NA,2,6,"12,1,13,6,14,8,10,11,3,9,4,2,15,7,5"
15032,commdev-image-keyboard-response,500,1550147,learnblock2,46,img/planet10_left.png,10,Community 2,NA,FALSE,j,f,NA,NA,NA,2,6,"12,1,13,6,14,8,10,11,3,9,4,2,15,7,5"
15032,commdev-image-keyboard-response,501,1551408,learnblock2,55,img/planet3_right.png,3,Community 2,NA,TRUE,j,j,NA,NA,NA,2,6,"12,1,13,6,14,8,10,11,3,9,4,2,15,7,5"
15032,commdev-image-keyboard-response,502,1552661,learnblock2,186.69999992847443,img/planet9_right.png,9,Community 2,NA,FALSE,f,j,NA,NA,NA,2,6,"12,1,13,6,14,8,10,11,3,9,4,2,15,7,5"
15032,commdev-image-keyboard-response,503,1553913,learnblock2,346.10000002384186,img/planet11_right.png,11,Community 2,NA,FALSE,f,j,NA,NA,NA,2,6,"12,1,13,6,14,8,10,11,3,9,4,2,15,7,5"
15032,commdev-image-keyboard-response,504,1555173,learnblock2,344.7999999523163,img/planet2_right.png,2,Community 3,NA,TRUE,j,j,NA,NA,NA,2,6,"12,1,13,6,14,8,10,11,3,9,4,2,15,7,5"
15032,commdev-image-keyboard-response,505,1556433,learnblock2,252.70000004768372,img/planet7_left.png,7,Community 3,NA,FALSE,j,f,NA,NA,NA,2,6,"12,1,13,6,14,8,10,11,3,9,4,2,15,7,5"
15032,commdev-image-keyboard-response,506,1557686,learnblock2,224.5,img/planet5_left.png,5,Community 3,NA,FALSE,j,f,NA,NA,NA,2,6,"12,1,13,6,14,8,10,11,3,9,4,2,15,7,5"
15032,commdev-image-keyboard-response,507,1558941,learnblock2,113.19999992847443,img/planet2_left.png,2,Community 3,NA,FALSE,j,f,NA,NA,NA,2,6,"12,1,13,6,14,8,10,11,3,9,4,2,15,7,5"
15032,commdev-image-keyboard-response,508,1560199,learnblock2,124,img/planet15_left.png,15,Community 3,NA,FALSE,j,f,NA,NA,NA,2,6,"12,1,13,6,14,8,10,11,3,9,4,2,15,7,5"
15032,commdev-image-keyboard-response,509,1561457,learnblock2,183,img/planet2_right.png,2,Community 3,NA,TRUE,j,j,NA,NA,NA,2,6,"12,1,13,6,14,8,10,11,3,9,4,2,15,7,5"
15032,commdev-image-keyboard-response,510,1562724,learnblock2,10.199999928474426,img/planet5_right.png,5,Community 3,NA,FALSE,f,j,NA,NA,NA,2,6,"12,1,13,6,14,8,10,11,3,9,4,2,15,7,5"
15032,commdev-image-keyboard-response,511,1563979,learnblock2,34.89999997615814,img/planet4_left.png,4,Community 3,NA,TRUE,f,f,NA,NA,NA,2,6,"12,1,13,6,14,8,10,11,3,9,4,2,15,7,5"
15032,commdev-image-keyboard-response,512,1565230,learnblock2,89.79999995231628,img/planet7_left.png,7,Community 3,NA,FALSE,j,f,NA,NA,NA,2,6,"12,1,13,6,14,8,10,11,3,9,4,2,15,7,5"
15032,commdev-image-keyboard-response,513,1566486,learnblock2,184.60000002384186,img/planet2_right.png,2,Community 3,NA,TRUE,j,j,NA,NA,NA,2,6,"12,1,13,6,14,8,10,11,3,9,4,2,15,7,5"
15032,commdev-image-keyboard-response,514,1567747,learnblock2,62.59999990463257,img/planet5_right.png,5,Community 3,NA,TRUE,j,j,NA,NA,NA,2,6,"12,1,13,6,14,8,10,11,3,9,4,2,15,7,5"
15032,commdev-image-keyboard-response,515,1569007,learnblock2,93.10000002384186,img/planet2_left.png,2,Community 3,NA,FALSE,j,f,NA,NA,NA,2,6,"12,1,13,6,14,8,10,11,3,9,4,2,15,7,5"
15032,commdev-image-keyboard-response,516,1570263,learnblock2,72,img/planet7_right.png,7,Community 3,NA,TRUE,j,j,NA,NA,NA,2,6,"12,1,13,6,14,8,10,11,3,9,4,2,15,7,5"
15032,commdev-image-keyboard-response,517,1571517,learnblock2,208.30000007152557,img/planet2_left.png,2,Community 3,NA,FALSE,j,f,NA,NA,NA,2,6,"12,1,13,6,14,8,10,11,3,9,4,2,15,7,5"
15032,commdev-image-keyboard-response,518,1572775,learnblock2,130.69999992847443,img/planet15_right.png,15,Community 3,NA,FALSE,f,j,NA,NA,NA,2,6,"12,1,13,6,14,8,10,11,3,9,4,2,15,7,5"
15032,commdev-image-keyboard-response,519,1574029,learnblock2,235.10000002384186,img/planet2_right.png,2,Community 3,NA,TRUE,j,j,NA,NA,NA,2,6,"12,1,13,6,14,8,10,11,3,9,4,2,15,7,5"
15032,commdev-image-keyboard-response,520,1575283,learnblock2,223.59999990463257,img/planet15_left.png,15,Community 3,NA,TRUE,f,f,NA,NA,NA,2,6,"12,1,13,6,14,8,10,11,3,9,4,2,15,7,5"
15032,commdev-image-keyboard-response,521,1576538,learnblock2,411.59999990463257,img/planet7_right.png,7,Community 3,NA,FALSE,f,j,NA,NA,NA,2,6,"12,1,13,6,14,8,10,11,3,9,4,2,15,7,5"
15032,commdev-image-keyboard-response,522,1577798,learnblock2,21.899999976158142,img/planet4_right.png,4,Community 3,NA,TRUE,j,j,NA,NA,NA,2,6,"12,1,13,6,14,8,10,11,3,9,4,2,15,7,5"
15032,commdev-image-keyboard-response,523,1579058,learnblock2,165.69999992847443,img/planet5_right.png,5,Community 3,NA,TRUE,j,j,NA,NA,NA,2,6,"12,1,13,6,14,8,10,11,3,9,4,2,15,7,5"
15032,commdev-image-keyboard-response,524,1580317,learnblock2,119,img/planet7_left.png,7,Community 3,NA,FALSE,j,f,NA,NA,NA,2,6,"12,1,13,6,14,8,10,11,3,9,4,2,15,7,5"
15032,commdev-image-keyboard-response,525,1581570,learnblock2,280.7000000476837,img/planet5_left.png,5,Community 3,NA,FALSE,j,f,NA,NA,NA,2,6,"12,1,13,6,14,8,10,11,3,9,4,2,15,7,5"
15032,commdev-image-keyboard-response,526,1582831,learnblock2,454.89999997615814,img/planet7_right.png,7,Community 3,NA,TRUE,j,j,NA,NA,NA,2,6,"12,1,13,6,14,8,10,11,3,9,4,2,15,7,5"
15032,commdev-image-keyboard-response,527,1584086,learnblock2,483.2000000476837,img/planet5_right.png,5,Community 3,NA,TRUE,j,j,NA,NA,NA,2,6,"12,1,13,6,14,8,10,11,3,9,4,2,15,7,5"
15032,commdev-image-keyboard-response,528,1585343,learnblock2,249.89999997615814,img/planet15_left.png,15,Community 3,NA,TRUE,f,f,NA,NA,NA,2,6,"12,1,13,6,14,8,10,11,3,9,4,2,15,7,5"
15032,commdev-image-keyboard-response,529,1586604,learnblock2,241.19999992847443,img/planet4_left.png,4,Community 3,NA,TRUE,f,f,NA,NA,NA,2,6,"12,1,13,6,14,8,10,11,3,9,4,2,15,7,5"
15032,commdev-image-keyboard-response,530,1587855,learnblock2,233,img/planet15_left.png,15,Community 3,NA,TRUE,f,f,NA,NA,NA,2,6,"12,1,13,6,14,8,10,11,3,9,4,2,15,7,5"
15032,commdev-image-keyboard-response,531,1589113,learnblock2,248.30000007152557,img/planet2_right.png,2,Community 3,NA,TRUE,j,j,NA,NA,NA,2,6,"12,1,13,6,14,8,10,11,3,9,4,2,15,7,5"
15032,commdev-image-keyboard-response,532,1590370,learnblock2,123.39999997615814,img/planet15_left.png,15,Community 3,NA,FALSE,j,f,NA,NA,NA,2,6,"12,1,13,6,14,8,10,11,3,9,4,2,15,7,5"
15032,commdev-image-keyboard-response,533,1591627,learnblock2,364.39999997615814,img/planet2_left.png,2,Community 3,NA,TRUE,f,f,NA,NA,NA,2,6,"12,1,13,6,14,8,10,11,3,9,4,2,15,7,5"
15032,commdev-image-keyboard-response,534,1592885,learnblock2,9.200000047683716,img/planet7_left.png,7,Community 3,NA,FALSE,j,f,NA,NA,NA,2,6,"12,1,13,6,14,8,10,11,3,9,4,2,15,7,5"
15032,commdev-image-keyboard-response,535,1594151,learnblock2,251.60000002384186,img/planet2_left.png,2,Community 3,NA,TRUE,f,f,NA,NA,NA,2,6,"12,1,13,6,14,8,10,11,3,9,4,2,15,7,5"
15032,commdev-image-keyboard-response,536,1595404,learnblock2,16.5,img/planet15_right.png,15,Community 3,NA,FALSE,f,j,NA,NA,NA,2,6,"12,1,13,6,14,8,10,11,3,9,4,2,15,7,5"
15032,commdev-image-keyboard-response,537,1596664,learnblock2,467.89999997615814,img/planet4_right.png,4,Community 3,NA,TRUE,j,j,NA,NA,NA,2,6,"12,1,13,6,14,8,10,11,3,9,4,2,15,7,5"
15032,commdev-image-keyboard-response,538,1597919,learnblock2,193.89999997615814,img/planet14_right.png,14,Community 1,NA,TRUE,j,j,NA,NA,NA,2,6,"12,1,13,6,14,8,10,11,3,9,4,2,15,7,5"
15032,commdev-image-keyboard-response,539,1599175,learnblock2,61,img/planet4_right.png,4,Community 3,NA,FALSE,f,j,NA,NA,NA,2,6,"12,1,13,6,14,8,10,11,3,9,4,2,15,7,5"
15032,commdev-image-keyboard-response,540,1600430,learnblock2,100.30000007152557,img/planet5_left.png,5,Community 3,NA,TRUE,f,f,NA,NA,NA,2,6,"12,1,13,6,14,8,10,11,3,9,4,2,15,7,5"
15032,commdev-image-keyboard-response,541,1601683,learnblock2,171.60000002384186,img/planet15_left.png,15,Community 3,NA,FALSE,j,f,NA,NA,NA,2,6,"12,1,13,6,14,8,10,11,3,9,4,2,15,7,5"
15032,commdev-image-keyboard-response,542,1602935,learnblock2,474.5,img/planet2_left.png,2,Community 3,NA,FALSE,j,f,NA,NA,NA,2,6,"12,1,13,6,14,8,10,11,3,9,4,2,15,7,5"
15032,commdev-image-keyboard-response,543,1604188,learnblock2,139.80000007152557,img/planet15_right.png,15,Community 3,NA,FALSE,f,j,NA,NA,NA,2,6,"12,1,13,6,14,8,10,11,3,9,4,2,15,7,5"
15032,commdev-image-keyboard-response,544,1605441,learnblock2,11.399999976158142,img/planet7_right.png,7,Community 3,NA,FALSE,f,j,NA,NA,NA,2,6,"12,1,13,6,14,8,10,11,3,9,4,2,15,7,5"
15032,commdev-image-keyboard-response,545,1606695,learnblock2,277.1999999284744,img/planet15_right.png,15,Community 3,NA,FALSE,f,j,NA,NA,NA,2,6,"12,1,13,6,14,8,10,11,3,9,4,2,15,7,5"
15032,commdev-image-keyboard-response,546,1607948,learnblock2,195.70000004768372,img/planet7_right.png,7,Community 3,NA,TRUE,j,j,NA,NA,NA,2,6,"12,1,13,6,14,8,10,11,3,9,4,2,15,7,5"
15032,commdev-image-keyboard-response,547,1609205,learnblock2,573.3999999761581,img/planet15_left.png,15,Community 3,NA,TRUE,f,f,NA,NA,NA,2,6,"12,1,13,6,14,8,10,11,3,9,4,2,15,7,5"
15032,commdev-image-keyboard-response,548,1610457,learnblock2,234.10000002384186,img/planet4_left.png,4,Community 3,NA,TRUE,f,f,NA,NA,NA,2,6,"12,1,13,6,14,8,10,11,3,9,4,2,15,7,5"
15032,commdev-image-keyboard-response,549,1611715,learnblock2,173.80000007152557,img/planet7_left.png,7,Community 3,NA,FALSE,j,f,NA,NA,NA,2,6,"12,1,13,6,14,8,10,11,3,9,4,2,15,7,5"
15032,commdev-image-keyboard-response,550,1612967,learnblock2,65.70000004768372,img/planet5_left.png,5,Community 3,NA,TRUE,f,f,NA,NA,NA,2,6,"12,1,13,6,14,8,10,11,3,9,4,2,15,7,5"
15032,commdev-image-keyboard-response,551,1614224,learnblock2,303.60000002384186,img/planet4_left.png,4,Community 3,NA,FALSE,j,f,NA,NA,NA,2,6,"12,1,13,6,14,8,10,11,3,9,4,2,15,7,5"
15032,commdev-image-keyboard-response,552,1615478,learnblock2,166.90000009536743,img/planet14_left.png,14,Community 1,NA,FALSE,j,f,NA,NA,NA,2,6,"12,1,13,6,14,8,10,11,3,9,4,2,15,7,5"
15032,commdev-image-keyboard-response,553,1616737,learnblock2,318.6999999284744,img/planet12_left.png,12,Community 1,NA,TRUE,f,f,NA,NA,NA,2,6,"12,1,13,6,14,8,10,11,3,9,4,2,15,7,5"
15032,commdev-image-keyboard-response,554,1617997,learnblock2,343.10000002384186,img/planet1_left.png,1,Community 1,NA,TRUE,f,f,NA,NA,NA,2,6,"12,1,13,6,14,8,10,11,3,9,4,2,15,7,5"
15032,commdev-image-keyboard-response,555,1619251,learnblock2,7.399999976158142,img/planet13_left.png,13,Community 1,NA,FALSE,j,f,NA,NA,NA,2,6,"12,1,13,6,14,8,10,11,3,9,4,2,15,7,5"
15032,commdev-image-keyboard-response,556,1620509,learnblock2,146.5,img/planet1_right.png,1,Community 1,NA,TRUE,j,j,NA,NA,NA,2,6,"12,1,13,6,14,8,10,11,3,9,4,2,15,7,5"
15032,commdev-image-keyboard-response,557,1621761,learnblock2,266.89999997615814,img/planet13_left.png,13,Community 1,NA,FALSE,j,f,NA,NA,NA,2,6,"12,1,13,6,14,8,10,11,3,9,4,2,15,7,5"
15032,commdev-image-keyboard-response,558,1623016,learnblock2,207.60000002384186,img/planet6_left.png,6,Community 1,NA,TRUE,f,f,NA,NA,NA,2,6,"12,1,13,6,14,8,10,11,3,9,4,2,15,7,5"
15032,commdev-image-keyboard-response,559,1624270,learnblock2,12,img/planet13_left.png,13,Community 1,NA,TRUE,f,f,NA,NA,NA,2,6,"12,1,13,6,14,8,10,11,3,9,4,2,15,7,5"
15032,commdev-image-keyboard-response,560,1625530,learnblock2,150.39999997615814,img/planet14_left.png,14,Community 1,NA,FALSE,j,f,NA,NA,NA,2,6,"12,1,13,6,14,8,10,11,3,9,4,2,15,7,5"
15032,commdev-image-keyboard-response,561,1626797,learnblock2,41.699999928474426,img/planet1_right.png,1,Community 1,NA,FALSE,f,j,NA,NA,NA,2,6,"12,1,13,6,14,8,10,11,3,9,4,2,15,7,5"
15032,commdev-image-keyboard-response,562,1628051,learnblock2,59.200000047683716,img/planet6_right.png,6,Community 1,NA,FALSE,f,j,NA,NA,NA,2,6,"12,1,13,6,14,8,10,11,3,9,4,2,15,7,5"
15032,commdev-image-keyboard-response,563,1629302,learnblock2,273.89999997615814,img/planet8_left.png,8,Community 2,NA,TRUE,f,f,NA,NA,NA,2,6,"12,1,13,6,14,8,10,11,3,9,4,2,15,7,5"
15032,commdev-image-keyboard-response,564,1630561,learnblock2,184.19999992847443,img/planet9_right.png,9,Community 2,NA,FALSE,f,j,NA,NA,NA,2,6,"12,1,13,6,14,8,10,11,3,9,4,2,15,7,5"
15032,commdev-image-keyboard-response,565,1631816,learnblock2,352.7000000476837,img/planet10_right.png,10,Community 2,NA,TRUE,j,j,NA,NA,NA,2,6,"12,1,13,6,14,8,10,11,3,9,4,2,15,7,5"
15032,commdev-image-keyboard-response,566,1633072,learnblock2,189.20000004768372,img/planet9_left.png,9,Community 2,NA,FALSE,j,f,NA,NA,NA,2,6,"12,1,13,6,14,8,10,11,3,9,4,2,15,7,5"
15032,commdev-image-keyboard-response,567,1634324,learnblock2,350.89999997615814,img/planet10_left.png,10,Community 2,NA,FALSE,j,f,NA,NA,NA,2,6,"12,1,13,6,14,8,10,11,3,9,4,2,15,7,5"
15032,commdev-image-keyboard-response,568,1635578,learnblock2,202.90000009536743,img/planet11_right.png,11,Community 2,NA,TRUE,j,j,NA,NA,NA,2,6,"12,1,13,6,14,8,10,11,3,9,4,2,15,7,5"
15032,commdev-image-keyboard-response,569,1636830,learnblock2,7.399999976158142,img/planet2_right.png,2,Community 3,NA,TRUE,j,j,NA,NA,NA,2,6,"12,1,13,6,14,8,10,11,3,9,4,2,15,7,5"
15032,commdev-image-keyboard-response,570,1638088,learnblock2,135.89999997615814,img/planet7_left.png,7,Community 3,NA,TRUE,f,f,NA,NA,NA,2,6,"12,1,13,6,14,8,10,11,3,9,4,2,15,7,5"
15032,commdev-image-keyboard-response,571,1639346,learnblock2,159.20000004768372,img/planet15_right.png,15,Community 3,NA,TRUE,j,j,NA,NA,NA,2,6,"12,1,13,6,14,8,10,11,3,9,4,2,15,7,5"
15032,commdev-image-keyboard-response,572,1640602,learnblock2,96.20000004768372,img/planet7_right.png,7,Community 3,NA,TRUE,j,j,NA,NA,NA,2,6,"12,1,13,6,14,8,10,11,3,9,4,2,15,7,5"
15032,commdev-image-keyboard-response,573,1641864,learnblock2,18,img/planet5_right.png,5,Community 3,NA,TRUE,j,j,NA,NA,NA,2,6,"12,1,13,6,14,8,10,11,3,9,4,2,15,7,5"
15032,commdev-image-keyboard-response,574,1643117,learnblock2,218.69999992847443,img/planet15_right.png,15,Community 3,NA,FALSE,f,j,NA,NA,NA,2,6,"12,1,13,6,14,8,10,11,3,9,4,2,15,7,5"
15032,commdev-image-keyboard-response,575,1644370,learnblock2,297.3000000715256,img/planet2_right.png,2,Community 3,NA,FALSE,f,j,NA,NA,NA,2,6,"12,1,13,6,14,8,10,11,3,9,4,2,15,7,5"
15032,commdev-image-keyboard-response,576,1645627,learnblock2,186,img/planet5_left.png,5,Community 3,NA,TRUE,f,f,NA,NA,NA,2,6,"12,1,13,6,14,8,10,11,3,9,4,2,15,7,5"
15032,commdev-image-keyboard-response,577,1646884,learnblock2,174.30000007152557,img/planet15_right.png,15,Community 3,NA,TRUE,j,j,NA,NA,NA,2,6,"12,1,13,6,14,8,10,11,3,9,4,2,15,7,5"
15032,commdev-image-keyboard-response,578,1648138,learnblock2,166.89999997615814,img/planet5_right.png,5,Community 3,NA,FALSE,f,j,NA,NA,NA,2,6,"12,1,13,6,14,8,10,11,3,9,4,2,15,7,5"
15032,commdev-image-keyboard-response,579,1649395,learnblock2,80.69999992847443,img/planet15_right.png,15,Community 3,NA,TRUE,j,j,NA,NA,NA,2,6,"12,1,13,6,14,8,10,11,3,9,4,2,15,7,5"
15032,commdev-image-keyboard-response,580,1650646,learnblock2,2.100000023841858,img/planet5_right.png,5,Community 3,NA,TRUE,j,j,NA,NA,NA,2,6,"12,1,13,6,14,8,10,11,3,9,4,2,15,7,5"
15032,commdev-image-keyboard-response,581,1651899,learnblock2,135.19999992847443,img/planet15_left.png,15,Community 3,NA,FALSE,j,f,NA,NA,NA,2,6,"12,1,13,6,14,8,10,11,3,9,4,2,15,7,5"
15032,commdev-image-keyboard-response,582,1653153,learnblock2,129.10000002384186,img/planet5_right.png,5,Community 3,NA,FALSE,f,j,NA,NA,NA,2,6,"12,1,13,6,14,8,10,11,3,9,4,2,15,7,5"
15032,commdev-image-keyboard-response,583,1654409,learnblock2,0.6999999284744263,img/planet4_right.png,4,Community 3,NA,FALSE,f,j,NA,NA,NA,2,6,"12,1,13,6,14,8,10,11,3,9,4,2,15,7,5"
15032,commdev-image-keyboard-response,584,1655664,learnblock2,38.5,img/planet15_left.png,15,Community 3,NA,TRUE,f,f,NA,NA,NA,2,6,"12,1,13,6,14,8,10,11,3,9,4,2,15,7,5"
15032,commdev-image-keyboard-response,585,1656920,learnblock2,109.89999997615814,img/planet4_left.png,4,Community 3,NA,FALSE,j,f,NA,NA,NA,2,6,"12,1,13,6,14,8,10,11,3,9,4,2,15,7,5"
15032,commdev-image-keyboard-response,586,1658176,learnblock2,137.30000007152557,img/planet14_right.png,14,Community 1,NA,FALSE,f,j,NA,NA,NA,2,6,"12,1,13,6,14,8,10,11,3,9,4,2,15,7,5"
15032,commdev-image-keyboard-response,587,1659430,learnblock2,246.60000002384186,img/planet4_left.png,4,Community 3,NA,TRUE,f,f,NA,NA,NA,2,6,"12,1,13,6,14,8,10,11,3,9,4,2,15,7,5"
15032,commdev-image-keyboard-response,588,1660683,learnblock2,298.59999990463257,img/planet15_right.png,15,Community 3,NA,TRUE,j,j,NA,NA,NA,2,6,"12,1,13,6,14,8,10,11,3,9,4,2,15,7,5"
15032,commdev-image-keyboard-response,589,1661940,learnblock2,17.699999928474426,img/planet7_right.png,7,Community 3,NA,TRUE,j,j,NA,NA,NA,2,6,"12,1,13,6,14,8,10,11,3,9,4,2,15,7,5"
15032,commdev-image-keyboard-response,590,1663192,learnblock2,139.70000004768372,img/planet5_right.png,5,Community 3,NA,TRUE,j,j,NA,NA,NA,2,6,"12,1,13,6,14,8,10,11,3,9,4,2,15,7,5"
15032,commdev-image-keyboard-response,591,1664444,learnblock2,42,img/planet15_right.png,15,Community 3,NA,TRUE,j,j,NA,NA,NA,2,6,"12,1,13,6,14,8,10,11,3,9,4,2,15,7,5"
15032,commdev-image-keyboard-response,592,1665700,learnblock2,84.60000002384186,img/planet2_left.png,2,Community 3,NA,TRUE,f,f,NA,NA,NA,2,6,"12,1,13,6,14,8,10,11,3,9,4,2,15,7,5"
15032,commdev-image-keyboard-response,593,1666953,learnblock2,256.60000002384186,img/planet15_right.png,15,Community 3,NA,TRUE,j,j,NA,NA,NA,2,6,"12,1,13,6,14,8,10,11,3,9,4,2,15,7,5"
15032,commdev-image-keyboard-response,594,1668205,learnblock2,70.20000004768372,img/planet5_right.png,5,Community 3,NA,TRUE,j,j,NA,NA,NA,2,6,"12,1,13,6,14,8,10,11,3,9,4,2,15,7,5"
15032,commdev-image-keyboard-response,595,1669457,learnblock2,10.299999952316284,img/planet4_right.png,4,Community 3,NA,FALSE,f,j,NA,NA,NA,2,6,"12,1,13,6,14,8,10,11,3,9,4,2,15,7,5"
15032,commdev-image-keyboard-response,596,1670716,learnblock2,180.39999997615814,img/planet15_right.png,15,Community 3,NA,TRUE,j,j,NA,NA,NA,2,6,"12,1,13,6,14,8,10,11,3,9,4,2,15,7,5"
15032,commdev-image-keyboard-response,597,1671977,learnblock2,119.5,img/planet5_left.png,5,Community 3,NA,TRUE,f,f,NA,NA,NA,2,6,"12,1,13,6,14,8,10,11,3,9,4,2,15,7,5"
15032,commdev-image-keyboard-response,598,1673237,learnblock2,237.30000007152557,img/planet7_right.png,7,Community 3,NA,FALSE,f,j,NA,NA,NA,2,6,"12,1,13,6,14,8,10,11,3,9,4,2,15,7,5"
15032,commdev-image-keyboard-response,599,1674492,learnblock2,251.19999992847443,img/planet4_left.png,4,Community 3,NA,TRUE,f,f,NA,NA,NA,2,6,"12,1,13,6,14,8,10,11,3,9,4,2,15,7,5"
15032,commdev-image-keyboard-response,600,1675750,learnblock2,229,img/planet15_left.png,15,Community 3,NA,TRUE,f,f,NA,NA,NA,2,6,"12,1,13,6,14,8,10,11,3,9,4,2,15,7,5"
15032,commdev-image-keyboard-response,601,1677004,learnblock2,71.79999995231628,img/planet5_right.png,5,Community 3,NA,TRUE,j,j,NA,NA,NA,2,6,"12,1,13,6,14,8,10,11,3,9,4,2,15,7,5"
15032,commdev-image-keyboard-response,602,1678260,learnblock2,17.300000071525574,img/planet15_left.png,15,Community 3,NA,TRUE,f,f,NA,NA,NA,2,6,"12,1,13,6,14,8,10,11,3,9,4,2,15,7,5"
15032,commdev-image-keyboard-response,603,1679515,learnblock2,45.5,img/planet5_left.png,5,Community 3,NA,FALSE,j,f,NA,NA,NA,2,6,"12,1,13,6,14,8,10,11,3,9,4,2,15,7,5"
15032,commdev-image-keyboard-response,604,1680768,learnblock2,130.39999997615814,img/planet15_right.png,15,Community 3,NA,FALSE,f,j,NA,NA,NA,2,6,"12,1,13,6,14,8,10,11,3,9,4,2,15,7,5"
15032,commdev-image-keyboard-response,605,1682020,learnblock2,30.899999976158142,img/planet4_left.png,4,Community 3,NA,FALSE,j,f,NA,NA,NA,2,6,"12,1,13,6,14,8,10,11,3,9,4,2,15,7,5"
15032,commdev-image-keyboard-response,606,1683276,learnblock2,167.70000004768372,img/planet15_left.png,15,Community 3,NA,FALSE,j,f,NA,NA,NA,2,6,"12,1,13,6,14,8,10,11,3,9,4,2,15,7,5"
15032,commdev-image-keyboard-response,607,1684533,learnblock2,232.60000002384186,img/planet2_left.png,2,Community 3,NA,FALSE,j,f,NA,NA,NA,2,6,"12,1,13,6,14,8,10,11,3,9,4,2,15,7,5"
15032,commdev-image-keyboard-response,608,1685786,learnblock2,39.89999997615814,img/planet5_right.png,5,Community 3,NA,FALSE,f,j,NA,NA,NA,2,6,"12,1,13,6,14,8,10,11,3,9,4,2,15,7,5"
15032,commdev-image-keyboard-response,609,1687039,learnblock2,67.70000004768372,img/planet15_left.png,15,Community 3,NA,FALSE,j,f,NA,NA,NA,2,6,"12,1,13,6,14,8,10,11,3,9,4,2,15,7,5"
15032,commdev-image-keyboard-response,610,1688292,learnblock2,7.5,img/planet7_left.png,7,Community 3,NA,FALSE,j,f,NA,NA,NA,2,6,"12,1,13,6,14,8,10,11,3,9,4,2,15,7,5"
15032,commdev-image-keyboard-response,611,1689544,learnblock2,57.199999928474426,img/planet15_left.png,15,Community 3,NA,FALSE,j,f,NA,NA,NA,2,6,"12,1,13,6,14,8,10,11,3,9,4,2,15,7,5"
15032,commdev-image-keyboard-response,612,1690803,learnblock2,109.5,img/planet7_left.png,7,Community 3,NA,TRUE,f,f,NA,NA,NA,2,6,"12,1,13,6,14,8,10,11,3,9,4,2,15,7,5"
15032,commdev-image-keyboard-response,613,1692060,learnblock2,166.79999995231628,img/planet4_left.png,4,Community 3,NA,FALSE,j,f,NA,NA,NA,2,6,"12,1,13,6,14,8,10,11,3,9,4,2,15,7,5"
15032,commdev-image-keyboard-response,614,1693320,learnblock2,348.7000000476837,img/planet7_right.png,7,Community 3,NA,TRUE,j,j,NA,NA,NA,2,6,"12,1,13,6,14,8,10,11,3,9,4,2,15,7,5"
15032,commdev-image-keyboard-response,615,1694579,learnblock2,338.89999997615814,img/planet4_right.png,4,Community 3,NA,TRUE,j,j,NA,NA,NA,2,6,"12,1,13,6,14,8,10,11,3,9,4,2,15,7,5"
15032,commdev-image-keyboard-response,616,1695833,learnblock2,140.40000009536743,img/planet5_right.png,5,Community 3,NA,TRUE,j,j,NA,NA,NA,2,6,"12,1,13,6,14,8,10,11,3,9,4,2,15,7,5"
15032,commdev-image-keyboard-response,617,1697093,learnblock2,183.5,img/planet2_left.png,2,Community 3,NA,FALSE,j,f,NA,NA,NA,2,6,"12,1,13,6,14,8,10,11,3,9,4,2,15,7,5"
15032,commdev-image-keyboard-response,618,1698352,learnblock2,362.09999990463257,img/planet7_right.png,7,Community 3,NA,TRUE,j,j,NA,NA,NA,2,6,"12,1,13,6,14,8,10,11,3,9,4,2,15,7,5"
15032,commdev-image-keyboard-response,619,1699607,learnblock2,196.09999990463257,img/planet4_left.png,4,Community 3,NA,FALSE,j,f,NA,NA,NA,2,6,"12,1,13,6,14,8,10,11,3,9,4,2,15,7,5"
15032,commdev-image-keyboard-response,620,1700867,learnblock2,221.30000007152557,img/planet5_left.png,5,Community 3,NA,TRUE,f,f,NA,NA,NA,2,6,"12,1,13,6,14,8,10,11,3,9,4,2,15,7,5"
15032,commdev-image-keyboard-response,621,1702120,learnblock2,103.39999997615814,img/planet2_right.png,2,Community 3,NA,TRUE,j,j,NA,NA,NA,2,6,"12,1,13,6,14,8,10,11,3,9,4,2,15,7,5"
15032,commdev-image-keyboard-response,622,1703375,learnblock2,94.10000002384186,img/planet15_right.png,15,Community 3,NA,FALSE,f,j,NA,NA,NA,2,6,"12,1,13,6,14,8,10,11,3,9,4,2,15,7,5"
15032,commdev-image-keyboard-response,623,1704635,learnblock2,122.09999990463257,img/planet5_left.png,5,Community 3,NA,FALSE,j,f,NA,NA,NA,2,6,"12,1,13,6,14,8,10,11,3,9,4,2,15,7,5"
15032,commdev-image-keyboard-response,624,1705896,learnblock2,109.89999997615814,img/planet7_left.png,7,Community 3,NA,FALSE,j,f,NA,NA,NA,2,6,"12,1,13,6,14,8,10,11,3,9,4,2,15,7,5"
15032,commdev-image-keyboard-response,625,1707150,learnblock2,167.29999995231628,img/planet4_left.png,4,Community 3,NA,TRUE,f,f,NA,NA,NA,2,6,"12,1,13,6,14,8,10,11,3,9,4,2,15,7,5"
15032,commdev-image-keyboard-response,626,1708403,learnblock2,134.89999997615814,img/planet7_left.png,7,Community 3,NA,FALSE,j,f,NA,NA,NA,2,6,"12,1,13,6,14,8,10,11,3,9,4,2,15,7,5"
15032,commdev-image-keyboard-response,627,1709659,learnblock2,319.10000002384186,img/planet5_left.png,5,Community 3,NA,FALSE,j,f,NA,NA,NA,2,6,"12,1,13,6,14,8,10,11,3,9,4,2,15,7,5"
15032,commdev-image-keyboard-response,628,1710916,learnblock2,249,img/planet2_right.png,2,Community 3,NA,TRUE,j,j,NA,NA,NA,2,6,"12,1,13,6,14,8,10,11,3,9,4,2,15,7,5"
15032,commdev-image-keyboard-response,629,1712177,learnblock2,326,img/planet5_right.png,5,Community 3,NA,TRUE,j,j,NA,NA,NA,2,6,"12,1,13,6,14,8,10,11,3,9,4,2,15,7,5"
15032,commdev-image-keyboard-response,630,1713431,learnblock2,583.2999999523163,img/planet7_right.png,7,Community 3,NA,TRUE,j,j,NA,NA,NA,2,6,"12,1,13,6,14,8,10,11,3,9,4,2,15,7,5"
15032,commdev-image-keyboard-response,631,1714690,learnblock2,170.5,img/planet5_right.png,5,Community 3,NA,TRUE,j,j,NA,NA,NA,2,6,"12,1,13,6,14,8,10,11,3,9,4,2,15,7,5"
15032,commdev-image-keyboard-response,632,1715946,learnblock2,399.3000000715256,img/planet7_right.png,7,Community 3,NA,TRUE,j,j,NA,NA,NA,2,6,"12,1,13,6,14,8,10,11,3,9,4,2,15,7,5"
15032,commdev-image-keyboard-response,633,1717200,learnblock2,399.7999999523163,img/planet2_right.png,2,Community 3,NA,TRUE,j,j,NA,NA,NA,2,6,"12,1,13,6,14,8,10,11,3,9,4,2,15,7,5"
15032,commdev-image-keyboard-response,634,1718452,learnblock2,357.39999997615814,img/planet7_left.png,7,Community 3,NA,TRUE,f,f,NA,NA,NA,2,6,"12,1,13,6,14,8,10,11,3,9,4,2,15,7,5"
15032,commdev-image-keyboard-response,635,1719711,learnblock2,9.299999952316284,img/planet15_left.png,15,Community 3,NA,FALSE,j,f,NA,NA,NA,2,6,"12,1,13,6,14,8,10,11,3,9,4,2,15,7,5"
15032,commdev-image-keyboard-response,636,1720967,learnblock2,63.800000071525574,img/planet7_left.png,7,Community 3,NA,FALSE,j,f,NA,NA,NA,2,6,"12,1,13,6,14,8,10,11,3,9,4,2,15,7,5"
15032,commdev-image-keyboard-response,637,1722222,learnblock2,155.69999992847443,img/planet2_left.png,2,Community 3,NA,FALSE,j,f,NA,NA,NA,2,6,"12,1,13,6,14,8,10,11,3,9,4,2,15,7,5"
15032,commdev-image-keyboard-response,638,1723475,learnblock2,556.3000000715256,img/planet5_right.png,5,Community 3,NA,TRUE,j,j,NA,NA,NA,2,6,"12,1,13,6,14,8,10,11,3,9,4,2,15,7,5"
15032,commdev-image-keyboard-response,639,1724728,learnblock2,244.69999992847443,img/planet7_right.png,7,Community 3,NA,FALSE,f,j,NA,NA,NA,2,6,"12,1,13,6,14,8,10,11,3,9,4,2,15,7,5"
15032,commdev-image-keyboard-response,640,1725983,learnblock2,61.700000047683716,img/planet15_right.png,15,Community 3,NA,TRUE,j,j,NA,NA,NA,2,6,"12,1,13,6,14,8,10,11,3,9,4,2,15,7,5"
15032,commdev-image-keyboard-response,641,1727234,learnblock2,144.5,img/planet4_right.png,4,Community 3,NA,TRUE,j,j,NA,NA,NA,2,6,"12,1,13,6,14,8,10,11,3,9,4,2,15,7,5"
15032,commdev-image-keyboard-response,642,1728492,learnblock2,448.89999997615814,img/planet14_right.png,14,Community 1,NA,TRUE,j,j,NA,NA,NA,2,6,"12,1,13,6,14,8,10,11,3,9,4,2,15,7,5"
15032,commdev-image-keyboard-response,643,1729749,learnblock2,105.39999997615814,img/planet1_right.png,1,Community 1,NA,FALSE,f,j,NA,NA,NA,2,6,"12,1,13,6,14,8,10,11,3,9,4,2,15,7,5"
15032,commdev-image-keyboard-response,644,1731004,learnblock2,245.19999992847443,img/planet13_left.png,13,Community 1,NA,FALSE,j,f,NA,NA,NA,2,6,"12,1,13,6,14,8,10,11,3,9,4,2,15,7,5"
15032,commdev-image-keyboard-response,645,1732260,learnblock2,57.700000047683716,img/planet14_right.png,14,Community 1,NA,FALSE,f,j,NA,NA,NA,2,6,"12,1,13,6,14,8,10,11,3,9,4,2,15,7,5"
15032,commdev-image-keyboard-response,646,1733513,learnblock2,232,img/planet13_right.png,13,Community 1,NA,FALSE,f,j,NA,NA,NA,2,6,"12,1,13,6,14,8,10,11,3,9,4,2,15,7,5"
15032,commdev-image-keyboard-response,647,1734772,learnblock2,433.7999999523163,img/planet6_left.png,6,Community 1,NA,FALSE,j,f,NA,NA,NA,2,6,"12,1,13,6,14,8,10,11,3,9,4,2,15,7,5"
