subject_id,trial_type,trial_index,time_elapsed,block,rt,stimulus,planet,community,response,correct,key_press,learning_correct_response,parse,init_locations,final_locations,browser_interactions,num_comp,planet_map
14515,commdev-instructions,7,55795,NA,6202.5,"<p>In this game, you will be shown a 3x3 grid of patterns.</p> <p>The last one in the bottom right-hand corner, <strong>will be missing:</strong></p> <div style='width: 700px;'><div style='float: top;'><img style='width: 200px;' src='practice/p1_M1.png'></img><p class='small'>You need to select<strong> which of the four possible patterns </strong>along the bottom<strong> fits into the gap:</strong></p></div><div style='float: top;'><img style='width: 300px;' src='practice/p1_T1.png'></img></div><br>",NA,NA,NA,NA,NA,NA,NA,NA,NA,1,7,"15,13,9,10,7,3,5,6,11,12,8,4,2,14,1"
14515,commdev-instructions,8,75294,NA,955.3999999910593,"<p>Try to be as fast and as accurate as you can be.</p> <p>If you cannot solve the puzzle then you should guess - you will not be penalised for an incorrect answer.</p> <p>The task contains a shuffled mix of easy, medium and hard puzzles.</p> <p>You will have <strong>30 seconds</strong> to complete each puzzle.</p><br>",NA,NA,NA,NA,NA,NA,NA,NA,NA,1,7,"15,13,9,10,7,3,5,6,11,12,8,4,2,14,1"
14515,commdev-instructions,15,101726,NA,679.7000000029802,<p><strong>Success!</strong></p> <p>You seem to be getting the hang of this...</p> <p>Let's move on to the real trials.</p><br>,NA,NA,NA,NA,NA,NA,NA,NA,NA,1,7,"15,13,9,10,7,3,5,6,11,12,8,4,2,14,1"
14515,commdev-instructions,71,595693,NA,2031.3999999910593,"<p>In this game, you are a scientist on board a space shuttle. </p><p> On each mission, you will visit planets all across the universe.</p><img src=""img/controlroom.jpg"" width=300vw>",NA,NA,NA,NA,NA,NA,NA,NA,NA,1,7,"15,13,9,10,7,3,5,6,11,12,8,4,2,14,1"
14515,commdev-instructions,72,599290,NA,1525,"<p>Here are a few planets you might see:</p><img src=""img/practice1.png"" width=200vw><img src=""img/practice2.png"" width=200vw><img src=""img/practice3.png"" width=200vw>",NA,NA,NA,NA,NA,NA,NA,NA,NA,1,7,"15,13,9,10,7,3,5,6,11,12,8,4,2,14,1"
14515,commdev-instructions,73,608541,NA,1849.2000000029802,"<p>Your job as a scientist is to record which direction the winds are moving on each planet.</p><p>There are two types of wind directions:</p><img src=""img/practice1_left.png"" width=200vw><img src=""img/practice1_right.png"" width=200vw>",NA,NA,NA,NA,NA,NA,NA,NA,NA,1,7,"15,13,9,10,7,3,5,6,11,12,8,4,2,14,1"
14515,commdev-instructions,74,618326,NA,4903.79999999702,"<p>If the winds are moving this way, press the letter <strong>F</strong> on the keyboard as fast as you can.</p><img src=""img/leftwind.png"" width=250vw>",NA,NA,NA,NA,NA,NA,NA,NA,NA,1,7,"15,13,9,10,7,3,5,6,11,12,8,4,2,14,1"
14515,commdev-instructions,75,624574,NA,1749.3999999910593,"<p>If the winds are moving this way, press the letter <strong>J</strong> on the keyboard as fast as you can.</p><img src=""img/rightwind.png"" width=350vw>",NA,NA,NA,NA,NA,NA,NA,NA,NA,1,7,"15,13,9,10,7,3,5,6,11,12,8,4,2,14,1"
14515,commdev-instructions,76,631641,NA,2646.6000000089407,<p>You will have 1 second to respond. Try to respond before the time runs out!,NA,NA,NA,NA,NA,NA,NA,NA,NA,1,7,"15,13,9,10,7,3,5,6,11,12,8,4,2,14,1"
14515,commdev-instructions,77,638290,NA,1221.5,<p>The planets you will visit will look different from each other.</p><p>You should respond <strong>only</strong> based on wind direction.,NA,NA,NA,NA,NA,NA,NA,NA,NA,1,7,"15,13,9,10,7,3,5,6,11,12,8,4,2,14,1"
14515,commdev-instructions,78,645273,NA,1813.7000000029802,"<p> Ready to start the practice round? </p><p> Remember, press <strong>F</strong> or <strong>J</strong> depending on the wind direction.<br><img src=""img/categorize_planet_example.png""",NA,NA,NA,NA,NA,NA,NA,NA,NA,1,7,"15,13,9,10,7,3,5,6,11,12,8,4,2,14,1"
14515,commdev-instructions,90,703439,NA,1173.0999999940395,"<p>Great, now try a short practice mission. </p><p> This time, you will have 1 second to respond and you won't know whether you pressed the right or wrong key for each planet.</p>",NA,NA,NA,NA,NA,NA,NA,NA,NA,1,7,"15,13,9,10,7,3,5,6,11,12,8,4,2,14,1"
14515,commdev-image-keyboard-response,91,704796,practice,null,img/practice3_left.png,NA,Number not found in mappings,NA,FALSE,null,f,NA,NA,NA,1,7,"15,13,9,10,7,3,5,6,11,12,8,4,2,14,1"
14515,commdev-image-keyboard-response,92,706050,practice,137.6000000089407,img/practice1_left.png,NA,Number not found in mappings,NA,TRUE,f,f,NA,NA,NA,1,7,"15,13,9,10,7,3,5,6,11,12,8,4,2,14,1"
14515,commdev-image-keyboard-response,93,707303,practice,null,img/practice4_right.png,NA,Number not found in mappings,NA,FALSE,null,j,NA,NA,NA,1,7,"15,13,9,10,7,3,5,6,11,12,8,4,2,14,1"
14515,commdev-image-keyboard-response,94,708556,practice,95.09999999403954,img/practice1_right.png,NA,Number not found in mappings,NA,TRUE,j,j,NA,NA,NA,1,7,"15,13,9,10,7,3,5,6,11,12,8,4,2,14,1"
14515,commdev-image-keyboard-response,95,709809,practice,812.5,img/practice3_right.png,NA,Number not found in mappings,NA,TRUE,j,j,NA,NA,NA,1,7,"15,13,9,10,7,3,5,6,11,12,8,4,2,14,1"
14515,commdev-image-keyboard-response,96,711061,practice,747.7999999970198,img/practice1_left.png,NA,Number not found in mappings,NA,TRUE,f,f,NA,NA,NA,1,7,"15,13,9,10,7,3,5,6,11,12,8,4,2,14,1"
14515,commdev-image-keyboard-response,97,712313,practice,851,img/practice4_right.png,NA,Number not found in mappings,NA,TRUE,j,j,NA,NA,NA,1,7,"15,13,9,10,7,3,5,6,11,12,8,4,2,14,1"
14515,commdev-image-keyboard-response,98,713566,practice,721.4000000059605,img/practice2_left.png,NA,Number not found in mappings,NA,TRUE,f,f,NA,NA,NA,1,7,"15,13,9,10,7,3,5,6,11,12,8,4,2,14,1"
14515,commdev-instructions,99,729140,NA,6021.5,"<p>Great job with the practice round.</p><p>During real missions, you won't know whether you pressed the right or wrong key for each planet.</p><p>But between missions, we will tell you how you did overall.</p>",NA,NA,NA,NA,NA,NA,NA,NA,NA,1,7,"15,13,9,10,7,3,5,6,11,12,8,4,2,14,1"
14515,commdev-instructions,100,738990,NA,1610.300000011921,<p>Try your best! You will be paid a bonus based on how many correct responses you make!</p><p>Responses that are too slow will not count toward your bonus.</p>,NA,NA,NA,NA,NA,NA,NA,NA,NA,1,7,"15,13,9,10,7,3,5,6,11,12,8,4,2,14,1"
14515,commdev-instructions,101,745623,NA,435.29999999701977,"<p>You are almost ready to start the real game.</p><p> First, we are going to ask you some questions about how the game works.</p>",NA,NA,NA,NA,NA,NA,NA,NA,NA,1,7,"15,13,9,10,7,3,5,6,11,12,8,4,2,14,1"
14515,commdev-instructions,112,835105,NA,2381.199999988079,"<p> Nice work! It is now time to start the real game.<p></p>You will go on two missions to record wind directions of different planets.<p></p>Each one will take about 5 minutes. You will get to take a break between missions.<p><p> Remember, press <strong>F</strong> or <strong>J</strong> depending on the wind direction. Good luck!<br><img src=""img/categorize_planet_example.png""",NA,NA,NA,NA,NA,NA,NA,NA,NA,1,7,"15,13,9,10,7,3,5,6,11,12,8,4,2,14,1"
14515,commdev-image-keyboard-response,114,841730,learnblock1,null,img/planet15_right.png,15,Community 1,NA,FALSE,null,j,NA,NA,NA,1,7,"15,13,9,10,7,3,5,6,11,12,8,4,2,14,1"
14515,commdev-image-keyboard-response,115,842982,learnblock1,26.799999997019768,img/planet13_right.png,13,Community 1,NA,FALSE,f,j,NA,NA,NA,1,7,"15,13,9,10,7,3,5,6,11,12,8,4,2,14,1"
14515,commdev-image-keyboard-response,116,844236,learnblock1,678.6000000089407,img/planet10_left.png,10,Community 1,NA,FALSE,j,f,NA,NA,NA,1,7,"15,13,9,10,7,3,5,6,11,12,8,4,2,14,1"
14515,commdev-image-keyboard-response,117,845489,learnblock1,null,img/planet3_right.png,3,Community 2,NA,FALSE,null,j,NA,NA,NA,1,7,"15,13,9,10,7,3,5,6,11,12,8,4,2,14,1"
14515,commdev-image-keyboard-response,118,846743,learnblock1,17.700000002980232,img/planet5_right.png,5,Community 2,NA,FALSE,f,j,NA,NA,NA,1,7,"15,13,9,10,7,3,5,6,11,12,8,4,2,14,1"
14515,commdev-image-keyboard-response,119,847996,learnblock1,null,img/planet3_left.png,3,Community 2,NA,FALSE,null,f,NA,NA,NA,1,7,"15,13,9,10,7,3,5,6,11,12,8,4,2,14,1"
14515,commdev-image-keyboard-response,120,849249,learnblock1,null,img/planet12_left.png,12,Community 2,NA,FALSE,null,f,NA,NA,NA,1,7,"15,13,9,10,7,3,5,6,11,12,8,4,2,14,1"
14515,commdev-image-keyboard-response,121,850502,learnblock1,264.70000000298023,img/planet5_left.png,5,Community 2,NA,TRUE,f,f,NA,NA,NA,1,7,"15,13,9,10,7,3,5,6,11,12,8,4,2,14,1"
14515,commdev-image-keyboard-response,122,851756,learnblock1,848.2999999970198,img/planet6_left.png,6,Community 2,NA,TRUE,f,f,NA,NA,NA,1,7,"15,13,9,10,7,3,5,6,11,12,8,4,2,14,1"
14515,commdev-image-keyboard-response,123,853008,learnblock1,1109.0999999940395,img/planet11_right.png,11,Community 2,NA,TRUE,j,j,NA,NA,NA,1,7,"15,13,9,10,7,3,5,6,11,12,8,4,2,14,1"
14515,commdev-image-keyboard-response,124,854261,learnblock1,1054,img/planet3_left.png,3,Community 2,NA,FALSE,j,f,NA,NA,NA,1,7,"15,13,9,10,7,3,5,6,11,12,8,4,2,14,1"
14515,commdev-image-keyboard-response,125,855514,learnblock1,774.2000000029802,img/planet11_left.png,11,Community 2,NA,FALSE,j,f,NA,NA,NA,1,7,"15,13,9,10,7,3,5,6,11,12,8,4,2,14,1"
14515,commdev-image-keyboard-response,126,856767,learnblock1,706.7999999970198,img/planet5_right.png,5,Community 2,NA,FALSE,f,j,NA,NA,NA,1,7,"15,13,9,10,7,3,5,6,11,12,8,4,2,14,1"
14515,commdev-image-keyboard-response,127,858020,learnblock1,693.8999999910593,img/planet6_right.png,6,Community 2,NA,FALSE,f,j,NA,NA,NA,1,7,"15,13,9,10,7,3,5,6,11,12,8,4,2,14,1"
14515,commdev-image-keyboard-response,128,859273,learnblock1,778.3999999910593,img/planet5_left.png,5,Community 2,NA,FALSE,j,f,NA,NA,NA,1,7,"15,13,9,10,7,3,5,6,11,12,8,4,2,14,1"
14515,commdev-image-keyboard-response,129,860526,learnblock1,772.7999999970198,img/planet11_right.png,11,Community 2,NA,FALSE,f,j,NA,NA,NA,1,7,"15,13,9,10,7,3,5,6,11,12,8,4,2,14,1"
14515,commdev-image-keyboard-response,130,861779,learnblock1,null,img/planet12_left.png,12,Community 2,NA,FALSE,null,f,NA,NA,NA,1,7,"15,13,9,10,7,3,5,6,11,12,8,4,2,14,1"
14515,commdev-image-keyboard-response,131,863032,learnblock1,74.5,img/planet5_left.png,5,Community 2,NA,FALSE,j,f,NA,NA,NA,1,7,"15,13,9,10,7,3,5,6,11,12,8,4,2,14,1"
14515,commdev-image-keyboard-response,132,864285,learnblock1,1164.7000000029802,img/planet6_right.png,6,Community 2,NA,TRUE,j,j,NA,NA,NA,1,7,"15,13,9,10,7,3,5,6,11,12,8,4,2,14,1"
14515,commdev-image-keyboard-response,133,865539,learnblock1,969.2000000029802,img/planet5_left.png,5,Community 2,NA,TRUE,f,f,NA,NA,NA,1,7,"15,13,9,10,7,3,5,6,11,12,8,4,2,14,1"
14515,commdev-image-keyboard-response,134,866791,learnblock1,677.5999999940395,img/planet3_left.png,3,Community 2,NA,TRUE,f,f,NA,NA,NA,1,7,"15,13,9,10,7,3,5,6,11,12,8,4,2,14,1"
14515,commdev-image-keyboard-response,135,868044,learnblock1,738.5999999940395,img/planet10_left.png,10,Community 1,NA,TRUE,f,f,NA,NA,NA,1,7,"15,13,9,10,7,3,5,6,11,12,8,4,2,14,1"
14515,commdev-image-keyboard-response,136,869297,learnblock1,851.6999999880791,img/planet3_left.png,3,Community 2,NA,TRUE,f,f,NA,NA,NA,1,7,"15,13,9,10,7,3,5,6,11,12,8,4,2,14,1"
14515,commdev-image-keyboard-response,137,870550,learnblock1,873.0999999940395,img/planet12_right.png,12,Community 2,NA,TRUE,j,j,NA,NA,NA,1,7,"15,13,9,10,7,3,5,6,11,12,8,4,2,14,1"
14515,commdev-image-keyboard-response,138,871803,learnblock1,675.3999999910593,img/planet5_left.png,5,Community 2,NA,TRUE,f,f,NA,NA,NA,1,7,"15,13,9,10,7,3,5,6,11,12,8,4,2,14,1"
14515,commdev-image-keyboard-response,139,873056,learnblock1,740.5,img/planet3_left.png,3,Community 2,NA,TRUE,f,f,NA,NA,NA,1,7,"15,13,9,10,7,3,5,6,11,12,8,4,2,14,1"
14515,commdev-image-keyboard-response,140,874309,learnblock1,1017.1000000089407,img/planet12_left.png,12,Community 2,NA,TRUE,f,f,NA,NA,NA,1,7,"15,13,9,10,7,3,5,6,11,12,8,4,2,14,1"
14515,commdev-image-keyboard-response,141,875562,learnblock1,740.2999999970198,img/planet5_left.png,5,Community 2,NA,TRUE,f,f,NA,NA,NA,1,7,"15,13,9,10,7,3,5,6,11,12,8,4,2,14,1"
14515,commdev-image-keyboard-response,142,876814,learnblock1,815.8000000119209,img/planet3_left.png,3,Community 2,NA,TRUE,f,f,NA,NA,NA,1,7,"15,13,9,10,7,3,5,6,11,12,8,4,2,14,1"
14515,commdev-image-keyboard-response,143,878067,learnblock1,669.1999999880791,img/planet10_left.png,10,Community 1,NA,TRUE,f,f,NA,NA,NA,1,7,"15,13,9,10,7,3,5,6,11,12,8,4,2,14,1"
14515,commdev-image-keyboard-response,144,879319,learnblock1,713,img/planet3_right.png,3,Community 2,NA,TRUE,j,j,NA,NA,NA,1,7,"15,13,9,10,7,3,5,6,11,12,8,4,2,14,1"
14515,commdev-image-keyboard-response,145,880573,learnblock1,583.8999999910593,img/planet5_left.png,5,Community 2,NA,TRUE,f,f,NA,NA,NA,1,7,"15,13,9,10,7,3,5,6,11,12,8,4,2,14,1"
14515,commdev-image-keyboard-response,146,881828,learnblock1,902.2000000029802,img/planet11_right.png,11,Community 2,NA,FALSE,f,j,NA,NA,NA,1,7,"15,13,9,10,7,3,5,6,11,12,8,4,2,14,1"
14515,commdev-image-keyboard-response,147,883081,learnblock1,786.9000000059605,img/planet5_left.png,5,Community 2,NA,FALSE,j,f,NA,NA,NA,1,7,"15,13,9,10,7,3,5,6,11,12,8,4,2,14,1"
14515,commdev-image-keyboard-response,148,884335,learnblock1,1057.8999999910593,img/planet11_right.png,11,Community 2,NA,FALSE,f,j,NA,NA,NA,1,7,"15,13,9,10,7,3,5,6,11,12,8,4,2,14,1"
14515,commdev-image-keyboard-response,149,885590,learnblock1,942.5999999940395,img/planet12_right.png,12,Community 2,NA,TRUE,j,j,NA,NA,NA,1,7,"15,13,9,10,7,3,5,6,11,12,8,4,2,14,1"
14515,commdev-image-keyboard-response,150,886843,learnblock1,756.5999999940395,img/planet5_right.png,5,Community 2,NA,TRUE,j,j,NA,NA,NA,1,7,"15,13,9,10,7,3,5,6,11,12,8,4,2,14,1"
14515,commdev-image-keyboard-response,151,888102,learnblock1,867.7999999970198,img/planet12_left.png,12,Community 2,NA,TRUE,f,f,NA,NA,NA,1,7,"15,13,9,10,7,3,5,6,11,12,8,4,2,14,1"
14515,commdev-image-keyboard-response,152,889355,learnblock1,820.2999999970198,img/planet11_left.png,11,Community 2,NA,FALSE,j,f,NA,NA,NA,1,7,"15,13,9,10,7,3,5,6,11,12,8,4,2,14,1"
14515,commdev-image-keyboard-response,153,890608,learnblock1,846.2000000029802,img/planet12_left.png,12,Community 2,NA,FALSE,j,f,NA,NA,NA,1,7,"15,13,9,10,7,3,5,6,11,12,8,4,2,14,1"
14515,commdev-image-keyboard-response,154,891861,learnblock1,877.7999999970198,img/planet5_left.png,5,Community 2,NA,FALSE,j,f,NA,NA,NA,1,7,"15,13,9,10,7,3,5,6,11,12,8,4,2,14,1"
14515,commdev-image-keyboard-response,155,893114,learnblock1,null,img/planet3_left.png,3,Community 2,NA,FALSE,null,f,NA,NA,NA,1,7,"15,13,9,10,7,3,5,6,11,12,8,4,2,14,1"
14515,commdev-image-keyboard-response,156,894367,learnblock1,1228.7000000029802,img/planet12_right.png,12,Community 2,NA,TRUE,j,j,NA,NA,NA,1,7,"15,13,9,10,7,3,5,6,11,12,8,4,2,14,1"
14515,commdev-image-keyboard-response,157,895620,learnblock1,752.7999999970198,img/planet11_right.png,11,Community 2,NA,TRUE,j,j,NA,NA,NA,1,7,"15,13,9,10,7,3,5,6,11,12,8,4,2,14,1"
14515,commdev-image-keyboard-response,158,896873,learnblock1,916.6000000089407,img/planet6_right.png,6,Community 2,NA,TRUE,j,j,NA,NA,NA,1,7,"15,13,9,10,7,3,5,6,11,12,8,4,2,14,1"
14515,commdev-image-keyboard-response,159,898126,learnblock1,602.2999999970198,img/planet4_left.png,4,Community 3,NA,TRUE,f,f,NA,NA,NA,1,7,"15,13,9,10,7,3,5,6,11,12,8,4,2,14,1"
14515,commdev-image-keyboard-response,160,899379,learnblock1,551.2999999970198,img/planet2_left.png,2,Community 3,NA,TRUE,f,f,NA,NA,NA,1,7,"15,13,9,10,7,3,5,6,11,12,8,4,2,14,1"
14515,commdev-image-keyboard-response,161,900632,learnblock1,647.8999999910593,img/planet4_left.png,4,Community 3,NA,TRUE,f,f,NA,NA,NA,1,7,"15,13,9,10,7,3,5,6,11,12,8,4,2,14,1"
14515,commdev-image-keyboard-response,162,901885,learnblock1,928.6000000089407,img/planet6_right.png,6,Community 2,NA,TRUE,j,j,NA,NA,NA,1,7,"15,13,9,10,7,3,5,6,11,12,8,4,2,14,1"
14515,commdev-image-keyboard-response,163,903139,learnblock1,559.7000000029802,img/planet4_right.png,4,Community 3,NA,TRUE,j,j,NA,NA,NA,1,7,"15,13,9,10,7,3,5,6,11,12,8,4,2,14,1"
14515,commdev-image-keyboard-response,164,904392,learnblock1,900.1999999880791,img/planet2_left.png,2,Community 3,NA,TRUE,f,f,NA,NA,NA,1,7,"15,13,9,10,7,3,5,6,11,12,8,4,2,14,1"
14515,commdev-image-keyboard-response,165,905645,learnblock1,661.7999999970198,img/planet4_right.png,4,Community 3,NA,TRUE,j,j,NA,NA,NA,1,7,"15,13,9,10,7,3,5,6,11,12,8,4,2,14,1"
14515,commdev-image-keyboard-response,166,906899,learnblock1,517.5,img/planet2_left.png,2,Community 3,NA,TRUE,f,f,NA,NA,NA,1,7,"15,13,9,10,7,3,5,6,11,12,8,4,2,14,1"
14515,commdev-image-keyboard-response,167,908152,learnblock1,641.7999999970198,img/planet1_right.png,1,Community 3,NA,TRUE,j,j,NA,NA,NA,1,7,"15,13,9,10,7,3,5,6,11,12,8,4,2,14,1"
14515,commdev-image-keyboard-response,168,909404,learnblock1,759.4000000059605,img/planet8_right.png,8,Community 3,NA,FALSE,f,j,NA,NA,NA,1,7,"15,13,9,10,7,3,5,6,11,12,8,4,2,14,1"
14515,commdev-image-keyboard-response,169,910657,learnblock1,751,img/planet7_right.png,7,Community 1,NA,FALSE,f,j,NA,NA,NA,1,7,"15,13,9,10,7,3,5,6,11,12,8,4,2,14,1"
14515,commdev-image-keyboard-response,170,911910,learnblock1,null,img/planet15_left.png,15,Community 1,NA,FALSE,null,f,NA,NA,NA,1,7,"15,13,9,10,7,3,5,6,11,12,8,4,2,14,1"
14515,commdev-image-keyboard-response,171,913163,learnblock1,166.8999999910593,img/planet9_right.png,9,Community 1,NA,TRUE,j,j,NA,NA,NA,1,7,"15,13,9,10,7,3,5,6,11,12,8,4,2,14,1"
14515,commdev-image-keyboard-response,172,914416,learnblock1,909.6000000089407,img/planet10_right.png,10,Community 1,NA,TRUE,j,j,NA,NA,NA,1,7,"15,13,9,10,7,3,5,6,11,12,8,4,2,14,1"
14515,commdev-image-keyboard-response,173,915669,learnblock1,614.0999999940395,img/planet13_right.png,13,Community 1,NA,TRUE,j,j,NA,NA,NA,1,7,"15,13,9,10,7,3,5,6,11,12,8,4,2,14,1"
14515,commdev-image-keyboard-response,174,916922,learnblock1,660.0999999940395,img/planet7_right.png,7,Community 1,NA,TRUE,j,j,NA,NA,NA,1,7,"15,13,9,10,7,3,5,6,11,12,8,4,2,14,1"
14515,commdev-image-keyboard-response,175,918176,learnblock1,717,img/planet15_left.png,15,Community 1,NA,TRUE,f,f,NA,NA,NA,1,7,"15,13,9,10,7,3,5,6,11,12,8,4,2,14,1"
14515,commdev-image-keyboard-response,176,919428,learnblock1,null,img/planet13_right.png,13,Community 1,NA,FALSE,null,j,NA,NA,NA,1,7,"15,13,9,10,7,3,5,6,11,12,8,4,2,14,1"
14515,commdev-image-keyboard-response,177,920681,learnblock1,90.40000000596046,img/planet15_right.png,15,Community 1,NA,TRUE,j,j,NA,NA,NA,1,7,"15,13,9,10,7,3,5,6,11,12,8,4,2,14,1"
14515,commdev-image-keyboard-response,178,921935,learnblock1,1005.4000000059605,img/planet13_right.png,13,Community 1,NA,TRUE,j,j,NA,NA,NA,1,7,"15,13,9,10,7,3,5,6,11,12,8,4,2,14,1"
14515,commdev-image-keyboard-response,179,923188,learnblock1,852.0999999940395,img/planet10_right.png,10,Community 1,NA,TRUE,j,j,NA,NA,NA,1,7,"15,13,9,10,7,3,5,6,11,12,8,4,2,14,1"
14515,commdev-image-keyboard-response,180,924441,learnblock1,638.2999999970198,img/planet9_right.png,9,Community 1,NA,TRUE,j,j,NA,NA,NA,1,7,"15,13,9,10,7,3,5,6,11,12,8,4,2,14,1"
14515,commdev-image-keyboard-response,181,925694,learnblock1,926,img/planet13_right.png,13,Community 1,NA,TRUE,j,j,NA,NA,NA,1,7,"15,13,9,10,7,3,5,6,11,12,8,4,2,14,1"
14515,commdev-image-keyboard-response,182,926946,learnblock1,1233.5999999940395,img/planet7_right.png,7,Community 1,NA,TRUE,j,j,NA,NA,NA,1,7,"15,13,9,10,7,3,5,6,11,12,8,4,2,14,1"
14515,commdev-image-keyboard-response,183,928199,learnblock1,802,img/planet8_right.png,8,Community 3,NA,TRUE,j,j,NA,NA,NA,1,7,"15,13,9,10,7,3,5,6,11,12,8,4,2,14,1"
14515,commdev-image-keyboard-response,184,929450,learnblock1,650.7000000029802,img/planet2_right.png,2,Community 3,NA,TRUE,j,j,NA,NA,NA,1,7,"15,13,9,10,7,3,5,6,11,12,8,4,2,14,1"
14515,commdev-image-keyboard-response,185,930704,learnblock1,592.4000000059605,img/planet8_right.png,8,Community 3,NA,TRUE,j,j,NA,NA,NA,1,7,"15,13,9,10,7,3,5,6,11,12,8,4,2,14,1"
14515,commdev-image-keyboard-response,186,931957,learnblock1,681.7999999970198,img/planet7_left.png,7,Community 1,NA,TRUE,f,f,NA,NA,NA,1,7,"15,13,9,10,7,3,5,6,11,12,8,4,2,14,1"
14515,commdev-image-keyboard-response,187,933209,learnblock1,665.5,img/planet15_right.png,15,Community 1,NA,TRUE,j,j,NA,NA,NA,1,7,"15,13,9,10,7,3,5,6,11,12,8,4,2,14,1"
14515,commdev-image-keyboard-response,188,934461,learnblock1,674.5,img/planet10_left.png,10,Community 1,NA,TRUE,f,f,NA,NA,NA,1,7,"15,13,9,10,7,3,5,6,11,12,8,4,2,14,1"
14515,commdev-image-keyboard-response,189,935714,learnblock1,787.3999999910593,img/planet9_left.png,9,Community 1,NA,TRUE,f,f,NA,NA,NA,1,7,"15,13,9,10,7,3,5,6,11,12,8,4,2,14,1"
14515,commdev-image-keyboard-response,190,936967,learnblock1,1033.2000000029802,img/planet15_left.png,15,Community 1,NA,TRUE,f,f,NA,NA,NA,1,7,"15,13,9,10,7,3,5,6,11,12,8,4,2,14,1"
14515,commdev-image-keyboard-response,191,938220,learnblock1,644.5,img/planet10_right.png,10,Community 1,NA,TRUE,j,j,NA,NA,NA,1,7,"15,13,9,10,7,3,5,6,11,12,8,4,2,14,1"
14515,commdev-image-keyboard-response,192,939474,learnblock1,1046.2999999970198,img/planet13_right.png,13,Community 1,NA,TRUE,j,j,NA,NA,NA,1,7,"15,13,9,10,7,3,5,6,11,12,8,4,2,14,1"
14515,commdev-image-keyboard-response,193,940727,learnblock1,646.0999999940395,img/planet9_right.png,9,Community 1,NA,TRUE,j,j,NA,NA,NA,1,7,"15,13,9,10,7,3,5,6,11,12,8,4,2,14,1"
14515,commdev-image-keyboard-response,194,941987,learnblock1,645.1000000089407,img/planet15_right.png,15,Community 1,NA,TRUE,j,j,NA,NA,NA,1,7,"15,13,9,10,7,3,5,6,11,12,8,4,2,14,1"
14515,commdev-image-keyboard-response,195,943240,learnblock1,517.7999999970198,img/planet10_left.png,10,Community 1,NA,FALSE,j,f,NA,NA,NA,1,7,"15,13,9,10,7,3,5,6,11,12,8,4,2,14,1"
14515,commdev-image-keyboard-response,196,944493,learnblock1,1233.1000000089407,img/planet13_right.png,13,Community 1,NA,TRUE,j,j,NA,NA,NA,1,7,"15,13,9,10,7,3,5,6,11,12,8,4,2,14,1"
14515,commdev-image-keyboard-response,197,945746,learnblock1,631.1000000089407,img/planet15_left.png,15,Community 1,NA,TRUE,f,f,NA,NA,NA,1,7,"15,13,9,10,7,3,5,6,11,12,8,4,2,14,1"
14515,commdev-image-keyboard-response,198,946999,learnblock1,653,img/planet10_left.png,10,Community 1,NA,TRUE,f,f,NA,NA,NA,1,7,"15,13,9,10,7,3,5,6,11,12,8,4,2,14,1"
14515,commdev-image-keyboard-response,199,948252,learnblock1,573.1999999880791,img/planet15_left.png,15,Community 1,NA,TRUE,f,f,NA,NA,NA,1,7,"15,13,9,10,7,3,5,6,11,12,8,4,2,14,1"
14515,commdev-image-keyboard-response,200,949505,learnblock1,542.5999999940395,img/planet10_left.png,10,Community 1,NA,TRUE,f,f,NA,NA,NA,1,7,"15,13,9,10,7,3,5,6,11,12,8,4,2,14,1"
14515,commdev-image-keyboard-response,201,950758,learnblock1,684.2000000029802,img/planet9_right.png,9,Community 1,NA,TRUE,j,j,NA,NA,NA,1,7,"15,13,9,10,7,3,5,6,11,12,8,4,2,14,1"
14515,commdev-image-keyboard-response,202,952010,learnblock1,1036.2000000029802,img/planet10_right.png,10,Community 1,NA,TRUE,j,j,NA,NA,NA,1,7,"15,13,9,10,7,3,5,6,11,12,8,4,2,14,1"
14515,commdev-image-keyboard-response,203,953264,learnblock1,764.1999999880791,img/planet3_left.png,3,Community 2,NA,TRUE,f,f,NA,NA,NA,1,7,"15,13,9,10,7,3,5,6,11,12,8,4,2,14,1"
14515,commdev-image-keyboard-response,204,954516,learnblock1,764.8999999910593,img/planet10_right.png,10,Community 1,NA,TRUE,j,j,NA,NA,NA,1,7,"15,13,9,10,7,3,5,6,11,12,8,4,2,14,1"
14515,commdev-image-keyboard-response,205,955768,learnblock1,992.7999999970198,img/planet15_right.png,15,Community 1,NA,TRUE,j,j,NA,NA,NA,1,7,"15,13,9,10,7,3,5,6,11,12,8,4,2,14,1"
14515,commdev-image-keyboard-response,206,957021,learnblock1,754.8999999910593,img/planet9_right.png,9,Community 1,NA,TRUE,j,j,NA,NA,NA,1,7,"15,13,9,10,7,3,5,6,11,12,8,4,2,14,1"
14515,commdev-image-keyboard-response,207,958274,learnblock1,652.1000000089407,img/planet7_right.png,7,Community 1,NA,TRUE,j,j,NA,NA,NA,1,7,"15,13,9,10,7,3,5,6,11,12,8,4,2,14,1"
14515,commdev-image-keyboard-response,208,959528,learnblock1,808,img/planet13_right.png,13,Community 1,NA,TRUE,j,j,NA,NA,NA,1,7,"15,13,9,10,7,3,5,6,11,12,8,4,2,14,1"
14515,commdev-image-keyboard-response,209,960781,learnblock1,733.5,img/planet7_left.png,7,Community 1,NA,TRUE,f,f,NA,NA,NA,1,7,"15,13,9,10,7,3,5,6,11,12,8,4,2,14,1"
14515,commdev-image-keyboard-response,210,962033,learnblock1,574,img/planet9_right.png,9,Community 1,NA,TRUE,j,j,NA,NA,NA,1,7,"15,13,9,10,7,3,5,6,11,12,8,4,2,14,1"
14515,commdev-image-keyboard-response,211,963285,learnblock1,818.9000000059605,img/planet13_right.png,13,Community 1,NA,TRUE,j,j,NA,NA,NA,1,7,"15,13,9,10,7,3,5,6,11,12,8,4,2,14,1"
14515,commdev-image-keyboard-response,212,964538,learnblock1,697.2999999970198,img/planet7_left.png,7,Community 1,NA,TRUE,f,f,NA,NA,NA,1,7,"15,13,9,10,7,3,5,6,11,12,8,4,2,14,1"
14515,commdev-image-keyboard-response,213,965791,learnblock1,808.2000000029802,img/planet9_right.png,9,Community 1,NA,TRUE,j,j,NA,NA,NA,1,7,"15,13,9,10,7,3,5,6,11,12,8,4,2,14,1"
14515,commdev-image-keyboard-response,214,967043,learnblock1,559.2000000029802,img/planet15_right.png,15,Community 1,NA,TRUE,j,j,NA,NA,NA,1,7,"15,13,9,10,7,3,5,6,11,12,8,4,2,14,1"
14515,commdev-image-keyboard-response,215,968296,learnblock1,718.5,img/planet10_right.png,10,Community 1,NA,TRUE,j,j,NA,NA,NA,1,7,"15,13,9,10,7,3,5,6,11,12,8,4,2,14,1"
14515,commdev-image-keyboard-response,216,969549,learnblock1,509.20000000298023,img/planet13_right.png,13,Community 1,NA,TRUE,j,j,NA,NA,NA,1,7,"15,13,9,10,7,3,5,6,11,12,8,4,2,14,1"
14515,commdev-image-keyboard-response,217,970802,learnblock1,803.8999999910593,img/planet15_right.png,15,Community 1,NA,TRUE,j,j,NA,NA,NA,1,7,"15,13,9,10,7,3,5,6,11,12,8,4,2,14,1"
14515,commdev-image-keyboard-response,218,972055,learnblock1,703.9000000059605,img/planet10_left.png,10,Community 1,NA,TRUE,f,f,NA,NA,NA,1,7,"15,13,9,10,7,3,5,6,11,12,8,4,2,14,1"
14515,commdev-image-keyboard-response,219,973307,learnblock1,889.5,img/planet15_left.png,15,Community 1,NA,FALSE,j,f,NA,NA,NA,1,7,"15,13,9,10,7,3,5,6,11,12,8,4,2,14,1"
14515,commdev-image-keyboard-response,220,974560,learnblock1,1084,img/planet13_right.png,13,Community 1,NA,FALSE,f,j,NA,NA,NA,1,7,"15,13,9,10,7,3,5,6,11,12,8,4,2,14,1"
14515,commdev-image-keyboard-response,221,975813,learnblock1,null,img/planet15_right.png,15,Community 1,NA,FALSE,null,j,NA,NA,NA,1,7,"15,13,9,10,7,3,5,6,11,12,8,4,2,14,1"
14515,commdev-image-keyboard-response,222,977066,learnblock1,1140.7999999970198,img/planet13_right.png,13,Community 1,NA,TRUE,j,j,NA,NA,NA,1,7,"15,13,9,10,7,3,5,6,11,12,8,4,2,14,1"
14515,commdev-image-keyboard-response,223,978319,learnblock1,757.5999999940395,img/planet9_left.png,9,Community 1,NA,TRUE,f,f,NA,NA,NA,1,7,"15,13,9,10,7,3,5,6,11,12,8,4,2,14,1"
14515,commdev-image-keyboard-response,224,979572,learnblock1,806,img/planet10_left.png,10,Community 1,NA,TRUE,f,f,NA,NA,NA,1,7,"15,13,9,10,7,3,5,6,11,12,8,4,2,14,1"
14515,commdev-image-keyboard-response,225,980825,learnblock1,926.7000000029802,img/planet9_left.png,9,Community 1,NA,TRUE,f,f,NA,NA,NA,1,7,"15,13,9,10,7,3,5,6,11,12,8,4,2,14,1"
14515,commdev-image-keyboard-response,226,982078,learnblock1,978.8000000119209,img/planet15_right.png,15,Community 1,NA,TRUE,j,j,NA,NA,NA,1,7,"15,13,9,10,7,3,5,6,11,12,8,4,2,14,1"
14515,commdev-image-keyboard-response,227,983330,learnblock1,1024.6000000089407,img/planet13_left.png,13,Community 1,NA,TRUE,f,f,NA,NA,NA,1,7,"15,13,9,10,7,3,5,6,11,12,8,4,2,14,1"
14515,commdev-image-keyboard-response,228,984583,learnblock1,1080.8999999910593,img/planet15_right.png,15,Community 1,NA,TRUE,j,j,NA,NA,NA,1,7,"15,13,9,10,7,3,5,6,11,12,8,4,2,14,1"
14515,commdev-image-keyboard-response,229,985836,learnblock1,968,img/planet7_left.png,7,Community 1,NA,TRUE,f,f,NA,NA,NA,1,7,"15,13,9,10,7,3,5,6,11,12,8,4,2,14,1"
14515,commdev-image-keyboard-response,230,987089,learnblock1,729.0999999940395,img/planet15_left.png,15,Community 1,NA,FALSE,j,f,NA,NA,NA,1,7,"15,13,9,10,7,3,5,6,11,12,8,4,2,14,1"
14515,commdev-image-keyboard-response,231,988341,learnblock1,844.4000000059605,img/planet7_right.png,7,Community 1,NA,FALSE,f,j,NA,NA,NA,1,7,"15,13,9,10,7,3,5,6,11,12,8,4,2,14,1"
14515,commdev-image-keyboard-response,232,989595,learnblock1,1033.7999999970198,img/planet8_right.png,8,Community 3,NA,FALSE,f,j,NA,NA,NA,1,7,"15,13,9,10,7,3,5,6,11,12,8,4,2,14,1"
14515,commdev-image-keyboard-response,233,990848,learnblock1,999.3000000119209,img/planet14_right.png,14,Community 3,NA,FALSE,f,j,NA,NA,NA,1,7,"15,13,9,10,7,3,5,6,11,12,8,4,2,14,1"
14515,commdev-image-keyboard-response,234,992101,learnblock1,957.7000000029802,img/planet8_right.png,8,Community 3,NA,FALSE,f,j,NA,NA,NA,1,7,"15,13,9,10,7,3,5,6,11,12,8,4,2,14,1"
14515,commdev-image-keyboard-response,235,993353,learnblock1,757.7999999970198,img/planet1_left.png,1,Community 3,NA,FALSE,j,f,NA,NA,NA,1,7,"15,13,9,10,7,3,5,6,11,12,8,4,2,14,1"
14515,commdev-image-keyboard-response,236,994607,learnblock1,872.8999999910593,img/planet8_left.png,8,Community 3,NA,FALSE,j,f,NA,NA,NA,1,7,"15,13,9,10,7,3,5,6,11,12,8,4,2,14,1"
14515,commdev-image-keyboard-response,237,995860,learnblock1,852.2000000029802,img/planet14_right.png,14,Community 3,NA,FALSE,f,j,NA,NA,NA,1,7,"15,13,9,10,7,3,5,6,11,12,8,4,2,14,1"
14515,commdev-image-keyboard-response,238,997113,learnblock1,788.6000000089407,img/planet2_right.png,2,Community 3,NA,FALSE,f,j,NA,NA,NA,1,7,"15,13,9,10,7,3,5,6,11,12,8,4,2,14,1"
14515,commdev-image-keyboard-response,239,998366,learnblock1,904,img/planet8_left.png,8,Community 3,NA,FALSE,j,f,NA,NA,NA,1,7,"15,13,9,10,7,3,5,6,11,12,8,4,2,14,1"
14515,commdev-image-keyboard-response,240,999618,learnblock1,728.6000000089407,img/planet2_left.png,2,Community 3,NA,FALSE,j,f,NA,NA,NA,1,7,"15,13,9,10,7,3,5,6,11,12,8,4,2,14,1"
14515,commdev-image-keyboard-response,241,1000871,learnblock1,853.3999999910593,img/planet4_right.png,4,Community 3,NA,FALSE,f,j,NA,NA,NA,1,7,"15,13,9,10,7,3,5,6,11,12,8,4,2,14,1"
14515,commdev-image-keyboard-response,242,1002125,learnblock1,872.7999999970198,img/planet14_right.png,14,Community 3,NA,FALSE,f,j,NA,NA,NA,1,7,"15,13,9,10,7,3,5,6,11,12,8,4,2,14,1"
14515,commdev-image-keyboard-response,243,1003378,learnblock1,712.8999999910593,img/planet1_left.png,1,Community 3,NA,FALSE,j,f,NA,NA,NA,1,7,"15,13,9,10,7,3,5,6,11,12,8,4,2,14,1"
14515,commdev-image-keyboard-response,244,1004631,learnblock1,642.9000000059605,img/planet2_left.png,2,Community 3,NA,FALSE,j,f,NA,NA,NA,1,7,"15,13,9,10,7,3,5,6,11,12,8,4,2,14,1"
14515,commdev-image-keyboard-response,245,1005884,learnblock1,790.5,img/planet8_left.png,8,Community 3,NA,FALSE,j,f,NA,NA,NA,1,7,"15,13,9,10,7,3,5,6,11,12,8,4,2,14,1"
14515,commdev-image-keyboard-response,246,1007137,learnblock1,676.5,img/planet2_left.png,2,Community 3,NA,FALSE,j,f,NA,NA,NA,1,7,"15,13,9,10,7,3,5,6,11,12,8,4,2,14,1"
14515,commdev-image-keyboard-response,247,1008390,learnblock1,596.0999999940395,img/planet8_right.png,8,Community 3,NA,FALSE,f,j,NA,NA,NA,1,7,"15,13,9,10,7,3,5,6,11,12,8,4,2,14,1"
14515,commdev-image-keyboard-response,248,1009643,learnblock1,881.5,img/planet2_right.png,2,Community 3,NA,FALSE,f,j,NA,NA,NA,1,7,"15,13,9,10,7,3,5,6,11,12,8,4,2,14,1"
14515,commdev-image-keyboard-response,249,1010896,learnblock1,1044.6000000089407,img/planet1_left.png,1,Community 3,NA,TRUE,f,f,NA,NA,NA,1,7,"15,13,9,10,7,3,5,6,11,12,8,4,2,14,1"
14515,commdev-image-keyboard-response,250,1012150,learnblock1,1000.8000000119209,img/planet14_left.png,14,Community 3,NA,TRUE,f,f,NA,NA,NA,1,7,"15,13,9,10,7,3,5,6,11,12,8,4,2,14,1"
14515,commdev-image-keyboard-response,251,1013402,learnblock1,1158.800000011921,img/planet1_left.png,1,Community 3,NA,TRUE,f,f,NA,NA,NA,1,7,"15,13,9,10,7,3,5,6,11,12,8,4,2,14,1"
14515,commdev-image-keyboard-response,252,1014654,learnblock1,null,img/planet14_left.png,14,Community 3,NA,FALSE,null,f,NA,NA,NA,1,7,"15,13,9,10,7,3,5,6,11,12,8,4,2,14,1"
14515,commdev-image-keyboard-response,253,1015907,learnblock1,null,img/planet8_right.png,8,Community 3,NA,FALSE,null,j,NA,NA,NA,1,7,"15,13,9,10,7,3,5,6,11,12,8,4,2,14,1"
14515,commdev-image-keyboard-response,254,1017160,learnblock1,1034.5,img/planet14_right.png,14,Community 3,NA,FALSE,f,j,NA,NA,NA,1,7,"15,13,9,10,7,3,5,6,11,12,8,4,2,14,1"
14515,commdev-image-keyboard-response,255,1018413,learnblock1,null,img/planet2_left.png,2,Community 3,NA,FALSE,null,f,NA,NA,NA,1,7,"15,13,9,10,7,3,5,6,11,12,8,4,2,14,1"
14515,commdev-image-keyboard-response,256,1019666,learnblock1,null,img/planet4_right.png,4,Community 3,NA,FALSE,null,j,NA,NA,NA,1,7,"15,13,9,10,7,3,5,6,11,12,8,4,2,14,1"
14515,commdev-image-keyboard-response,257,1020919,learnblock1,null,img/planet6_right.png,6,Community 2,NA,FALSE,null,j,NA,NA,NA,1,7,"15,13,9,10,7,3,5,6,11,12,8,4,2,14,1"
14515,commdev-image-keyboard-response,258,1022172,learnblock1,1174.2000000029802,img/planet5_left.png,5,Community 2,NA,FALSE,j,f,NA,NA,NA,1,7,"15,13,9,10,7,3,5,6,11,12,8,4,2,14,1"
14515,commdev-image-keyboard-response,259,1023425,learnblock1,460.5,img/planet12_left.png,12,Community 2,NA,TRUE,f,f,NA,NA,NA,1,7,"15,13,9,10,7,3,5,6,11,12,8,4,2,14,1"
14515,commdev-image-keyboard-response,260,1024679,learnblock1,80.59999999403954,img/planet11_right.png,11,Community 2,NA,FALSE,f,j,NA,NA,NA,1,7,"15,13,9,10,7,3,5,6,11,12,8,4,2,14,1"
14515,commdev-image-keyboard-response,261,1025931,learnblock1,null,img/planet6_right.png,6,Community 2,NA,FALSE,null,j,NA,NA,NA,1,7,"15,13,9,10,7,3,5,6,11,12,8,4,2,14,1"
14515,commdev-image-keyboard-response,262,1027183,learnblock1,25.900000005960464,img/planet4_left.png,4,Community 3,NA,FALSE,j,f,NA,NA,NA,1,7,"15,13,9,10,7,3,5,6,11,12,8,4,2,14,1"
14515,commdev-image-keyboard-response,263,1028437,learnblock1,null,img/planet6_left.png,6,Community 2,NA,FALSE,null,f,NA,NA,NA,1,7,"15,13,9,10,7,3,5,6,11,12,8,4,2,14,1"
14515,commdev-image-keyboard-response,264,1029689,learnblock1,null,img/planet5_left.png,5,Community 2,NA,FALSE,null,f,NA,NA,NA,1,7,"15,13,9,10,7,3,5,6,11,12,8,4,2,14,1"
14515,commdev-image-keyboard-response,265,1030941,learnblock1,1123.9000000059605,img/planet11_left.png,11,Community 2,NA,TRUE,f,f,NA,NA,NA,1,7,"15,13,9,10,7,3,5,6,11,12,8,4,2,14,1"
14515,commdev-image-keyboard-response,266,1032194,learnblock1,null,img/planet12_right.png,12,Community 2,NA,FALSE,null,j,NA,NA,NA,1,7,"15,13,9,10,7,3,5,6,11,12,8,4,2,14,1"
14515,commdev-image-keyboard-response,267,1033447,learnblock1,68.29999999701977,img/planet3_left.png,3,Community 2,NA,FALSE,j,f,NA,NA,NA,1,7,"15,13,9,10,7,3,5,6,11,12,8,4,2,14,1"
14515,commdev-image-keyboard-response,268,1034700,learnblock1,876.9000000059605,img/planet10_right.png,10,Community 1,NA,TRUE,j,j,NA,NA,NA,1,7,"15,13,9,10,7,3,5,6,11,12,8,4,2,14,1"
14515,commdev-image-keyboard-response,269,1035952,learnblock1,null,img/planet13_left.png,13,Community 1,NA,FALSE,null,f,NA,NA,NA,1,7,"15,13,9,10,7,3,5,6,11,12,8,4,2,14,1"
14515,commdev-image-keyboard-response,270,1037206,learnblock1,76.90000000596046,img/planet10_left.png,10,Community 1,NA,TRUE,f,f,NA,NA,NA,1,7,"15,13,9,10,7,3,5,6,11,12,8,4,2,14,1"
14515,commdev-image-keyboard-response,271,1038459,learnblock1,778.8999999910593,img/planet3_right.png,3,Community 2,NA,TRUE,j,j,NA,NA,NA,1,7,"15,13,9,10,7,3,5,6,11,12,8,4,2,14,1"
14515,commdev-image-keyboard-response,272,1039711,learnblock1,1159.8999999910593,img/planet12_right.png,12,Community 2,NA,FALSE,f,j,NA,NA,NA,1,7,"15,13,9,10,7,3,5,6,11,12,8,4,2,14,1"
14515,commdev-image-keyboard-response,273,1040963,learnblock1,null,img/planet11_left.png,11,Community 2,NA,FALSE,null,f,NA,NA,NA,1,7,"15,13,9,10,7,3,5,6,11,12,8,4,2,14,1"
14515,commdev-image-keyboard-response,274,1042216,learnblock1,799.2000000029802,img/planet5_left.png,5,Community 2,NA,FALSE,j,f,NA,NA,NA,1,7,"15,13,9,10,7,3,5,6,11,12,8,4,2,14,1"
14515,commdev-image-keyboard-response,275,1043469,learnblock1,null,img/planet12_right.png,12,Community 2,NA,FALSE,null,j,NA,NA,NA,1,7,"15,13,9,10,7,3,5,6,11,12,8,4,2,14,1"
14515,commdev-image-keyboard-response,276,1044722,learnblock1,1149.2000000029802,img/planet5_right.png,5,Community 2,NA,TRUE,j,j,NA,NA,NA,1,7,"15,13,9,10,7,3,5,6,11,12,8,4,2,14,1"
14515,commdev-image-keyboard-response,277,1045975,learnblock1,817.5,img/planet3_left.png,3,Community 2,NA,TRUE,f,f,NA,NA,NA,1,7,"15,13,9,10,7,3,5,6,11,12,8,4,2,14,1"
14515,commdev-image-keyboard-response,278,1047228,learnblock1,null,img/planet5_right.png,5,Community 2,NA,FALSE,null,j,NA,NA,NA,1,7,"15,13,9,10,7,3,5,6,11,12,8,4,2,14,1"
14515,commdev-image-keyboard-response,279,1048481,learnblock1,5.4000000059604645,img/planet11_right.png,11,Community 2,NA,FALSE,f,j,NA,NA,NA,1,7,"15,13,9,10,7,3,5,6,11,12,8,4,2,14,1"
14515,commdev-image-keyboard-response,280,1049734,learnblock1,null,img/planet5_right.png,5,Community 2,NA,FALSE,null,j,NA,NA,NA,1,7,"15,13,9,10,7,3,5,6,11,12,8,4,2,14,1"
14515,commdev-image-keyboard-response,281,1050987,learnblock1,36.79999999701977,img/planet6_right.png,6,Community 2,NA,TRUE,j,j,NA,NA,NA,1,7,"15,13,9,10,7,3,5,6,11,12,8,4,2,14,1"
14515,commdev-image-keyboard-response,282,1052239,learnblock1,null,img/planet11_left.png,11,Community 2,NA,FALSE,null,f,NA,NA,NA,1,7,"15,13,9,10,7,3,5,6,11,12,8,4,2,14,1"
14515,commdev-image-keyboard-response,283,1053492,learnblock1,869.6000000089407,img/planet12_right.png,12,Community 2,NA,TRUE,j,j,NA,NA,NA,1,7,"15,13,9,10,7,3,5,6,11,12,8,4,2,14,1"
14515,commdev-image-keyboard-response,284,1054745,learnblock1,null,img/planet5_right.png,5,Community 2,NA,FALSE,null,j,NA,NA,NA,1,7,"15,13,9,10,7,3,5,6,11,12,8,4,2,14,1"
14515,commdev-image-keyboard-response,285,1055999,learnblock1,161.69999998807907,img/planet11_left.png,11,Community 2,NA,FALSE,j,f,NA,NA,NA,1,7,"15,13,9,10,7,3,5,6,11,12,8,4,2,14,1"
14515,commdev-image-keyboard-response,286,1057251,learnblock1,null,img/planet3_right.png,3,Community 2,NA,FALSE,null,j,NA,NA,NA,1,7,"15,13,9,10,7,3,5,6,11,12,8,4,2,14,1"
14515,commdev-image-keyboard-response,287,1058505,learnblock1,1112.1000000089407,img/planet5_left.png,5,Community 2,NA,TRUE,f,f,NA,NA,NA,1,7,"15,13,9,10,7,3,5,6,11,12,8,4,2,14,1"
14515,commdev-image-keyboard-response,288,1059758,learnblock1,944.7000000029802,img/planet3_right.png,3,Community 2,NA,TRUE,j,j,NA,NA,NA,1,7,"15,13,9,10,7,3,5,6,11,12,8,4,2,14,1"
14515,commdev-image-keyboard-response,289,1061010,learnblock1,991.2999999970198,img/planet5_right.png,5,Community 2,NA,TRUE,j,j,NA,NA,NA,1,7,"15,13,9,10,7,3,5,6,11,12,8,4,2,14,1"
14515,commdev-image-keyboard-response,290,1062263,learnblock1,1140.5999999940395,img/planet3_right.png,3,Community 2,NA,TRUE,j,j,NA,NA,NA,1,7,"15,13,9,10,7,3,5,6,11,12,8,4,2,14,1"
14515,commdev-image-keyboard-response,291,1063523,learnblock1,797.3999999910593,img/planet12_left.png,12,Community 2,NA,TRUE,f,f,NA,NA,NA,1,7,"15,13,9,10,7,3,5,6,11,12,8,4,2,14,1"
14515,commdev-image-keyboard-response,292,1064776,learnblock1,839.0999999940395,img/planet6_left.png,6,Community 2,NA,FALSE,j,f,NA,NA,NA,1,7,"15,13,9,10,7,3,5,6,11,12,8,4,2,14,1"
14515,commdev-image-keyboard-response,293,1066029,learnblock1,null,img/planet11_right.png,11,Community 2,NA,FALSE,null,j,NA,NA,NA,1,7,"15,13,9,10,7,3,5,6,11,12,8,4,2,14,1"
14515,commdev-image-keyboard-response,294,1067282,learnblock1,null,img/planet6_left.png,6,Community 2,NA,FALSE,null,f,NA,NA,NA,1,7,"15,13,9,10,7,3,5,6,11,12,8,4,2,14,1"
14515,commdev-image-keyboard-response,295,1068535,learnblock1,4.799999997019768,img/planet11_right.png,11,Community 2,NA,FALSE,f,j,NA,NA,NA,1,7,"15,13,9,10,7,3,5,6,11,12,8,4,2,14,1"
14515,commdev-image-keyboard-response,296,1069796,learnblock1,1010.7999999970198,img/planet3_left.png,3,Community 2,NA,TRUE,f,f,NA,NA,NA,1,7,"15,13,9,10,7,3,5,6,11,12,8,4,2,14,1"
14515,commdev-image-keyboard-response,297,1071048,learnblock1,760.0999999940395,img/planet12_right.png,12,Community 2,NA,TRUE,j,j,NA,NA,NA,1,7,"15,13,9,10,7,3,5,6,11,12,8,4,2,14,1"
14515,commdev-image-keyboard-response,298,1072301,learnblock1,null,img/planet3_right.png,3,Community 2,NA,FALSE,null,j,NA,NA,NA,1,7,"15,13,9,10,7,3,5,6,11,12,8,4,2,14,1"
14515,commdev-image-keyboard-response,299,1073553,learnblock1,294.3999999910593,img/planet10_right.png,10,Community 1,NA,FALSE,f,j,NA,NA,NA,1,7,"15,13,9,10,7,3,5,6,11,12,8,4,2,14,1"
14515,commdev-image-keyboard-response,300,1074806,learnblock1,null,img/planet15_left.png,15,Community 1,NA,FALSE,null,f,NA,NA,NA,1,7,"15,13,9,10,7,3,5,6,11,12,8,4,2,14,1"
14515,commdev-image-keyboard-response,301,1076059,learnblock1,null,img/planet7_right.png,7,Community 1,NA,FALSE,null,j,NA,NA,NA,1,7,"15,13,9,10,7,3,5,6,11,12,8,4,2,14,1"
14515,commdev-image-keyboard-response,302,1077312,learnblock1,null,img/planet13_right.png,13,Community 1,NA,FALSE,null,j,NA,NA,NA,1,7,"15,13,9,10,7,3,5,6,11,12,8,4,2,14,1"
14515,commdev-image-keyboard-response,303,1078565,learnblock1,null,img/planet10_right.png,10,Community 1,NA,FALSE,null,j,NA,NA,NA,1,7,"15,13,9,10,7,3,5,6,11,12,8,4,2,14,1"
14515,commdev-image-keyboard-response,304,1079818,learnblock1,1142.0999999940395,img/planet15_right.png,15,Community 1,NA,TRUE,j,j,NA,NA,NA,1,7,"15,13,9,10,7,3,5,6,11,12,8,4,2,14,1"
14515,commdev-image-keyboard-response,305,1081071,learnblock1,902.7000000029802,img/planet7_right.png,7,Community 1,NA,TRUE,j,j,NA,NA,NA,1,7,"15,13,9,10,7,3,5,6,11,12,8,4,2,14,1"
14515,commdev-image-keyboard-response,306,1082324,learnblock1,936,img/planet13_left.png,13,Community 1,NA,TRUE,f,f,NA,NA,NA,1,7,"15,13,9,10,7,3,5,6,11,12,8,4,2,14,1"
14515,commdev-image-keyboard-response,307,1083578,learnblock1,908,img/planet9_left.png,9,Community 1,NA,TRUE,f,f,NA,NA,NA,1,7,"15,13,9,10,7,3,5,6,11,12,8,4,2,14,1"
14515,commdev-image-keyboard-response,308,1084830,learnblock1,742.7999999970198,img/planet13_right.png,13,Community 1,NA,TRUE,j,j,NA,NA,NA,1,7,"15,13,9,10,7,3,5,6,11,12,8,4,2,14,1"
14515,commdev-image-keyboard-response,309,1086083,learnblock1,815.2000000029802,img/planet15_right.png,15,Community 1,NA,TRUE,j,j,NA,NA,NA,1,7,"15,13,9,10,7,3,5,6,11,12,8,4,2,14,1"
14515,commdev-image-keyboard-response,310,1087336,learnblock1,1031,img/planet7_left.png,7,Community 1,NA,TRUE,f,f,NA,NA,NA,1,7,"15,13,9,10,7,3,5,6,11,12,8,4,2,14,1"
14515,commdev-image-keyboard-response,311,1088590,learnblock1,1084.5,img/planet15_right.png,15,Community 1,NA,TRUE,j,j,NA,NA,NA,1,7,"15,13,9,10,7,3,5,6,11,12,8,4,2,14,1"
14515,commdev-image-keyboard-response,312,1089842,learnblock1,725.4000000059605,img/planet13_right.png,13,Community 1,NA,TRUE,j,j,NA,NA,NA,1,7,"15,13,9,10,7,3,5,6,11,12,8,4,2,14,1"
14515,commdev-image-keyboard-response,313,1091095,learnblock1,665.2000000029802,img/planet15_right.png,15,Community 1,NA,TRUE,j,j,NA,NA,NA,1,7,"15,13,9,10,7,3,5,6,11,12,8,4,2,14,1"
14515,commdev-image-keyboard-response,314,1092348,learnblock1,844.4000000059605,img/planet10_left.png,10,Community 1,NA,TRUE,f,f,NA,NA,NA,1,7,"15,13,9,10,7,3,5,6,11,12,8,4,2,14,1"
14515,commdev-image-keyboard-response,315,1093601,learnblock1,963.8999999910593,img/planet15_left.png,15,Community 1,NA,TRUE,f,f,NA,NA,NA,1,7,"15,13,9,10,7,3,5,6,11,12,8,4,2,14,1"
14515,commdev-image-keyboard-response,316,1094853,learnblock1,801.4000000059605,img/planet9_left.png,9,Community 1,NA,TRUE,f,f,NA,NA,NA,1,7,"15,13,9,10,7,3,5,6,11,12,8,4,2,14,1"
14515,commdev-image-keyboard-response,317,1096104,learnblock1,861.7000000029802,img/planet7_right.png,7,Community 1,NA,TRUE,j,j,NA,NA,NA,1,7,"15,13,9,10,7,3,5,6,11,12,8,4,2,14,1"
14515,commdev-image-keyboard-response,318,1097357,learnblock1,762.3000000119209,img/planet13_right.png,13,Community 1,NA,TRUE,j,j,NA,NA,NA,1,7,"15,13,9,10,7,3,5,6,11,12,8,4,2,14,1"
14515,commdev-image-keyboard-response,319,1098611,learnblock1,870.4000000059605,img/planet15_right.png,15,Community 1,NA,TRUE,j,j,NA,NA,NA,1,7,"15,13,9,10,7,3,5,6,11,12,8,4,2,14,1"
14515,commdev-image-keyboard-response,320,1099864,learnblock1,957,img/planet13_right.png,13,Community 1,NA,TRUE,j,j,NA,NA,NA,1,7,"15,13,9,10,7,3,5,6,11,12,8,4,2,14,1"
14515,commdev-image-keyboard-response,321,1101117,learnblock1,754.7000000029802,img/planet9_right.png,9,Community 1,NA,TRUE,j,j,NA,NA,NA,1,7,"15,13,9,10,7,3,5,6,11,12,8,4,2,14,1"
14515,commdev-image-keyboard-response,322,1102371,learnblock1,989.5,img/planet10_left.png,10,Community 1,NA,TRUE,f,f,NA,NA,NA,1,7,"15,13,9,10,7,3,5,6,11,12,8,4,2,14,1"
14515,commdev-image-keyboard-response,323,1103624,learnblock1,802.5,img/planet15_left.png,15,Community 1,NA,TRUE,f,f,NA,NA,NA,1,7,"15,13,9,10,7,3,5,6,11,12,8,4,2,14,1"
14515,commdev-image-keyboard-response,324,1104877,learnblock1,648.3999999910593,img/planet10_left.png,10,Community 1,NA,TRUE,f,f,NA,NA,NA,1,7,"15,13,9,10,7,3,5,6,11,12,8,4,2,14,1"
14515,commdev-image-keyboard-response,325,1106130,learnblock1,810.1999999880791,img/planet15_right.png,15,Community 1,NA,TRUE,j,j,NA,NA,NA,1,7,"15,13,9,10,7,3,5,6,11,12,8,4,2,14,1"
14515,commdev-image-keyboard-response,326,1107384,learnblock1,null,img/planet7_left.png,7,Community 1,NA,FALSE,null,f,NA,NA,NA,1,7,"15,13,9,10,7,3,5,6,11,12,8,4,2,14,1"
14515,commdev-image-keyboard-response,327,1108637,learnblock1,53.8999999910593,img/planet9_right.png,9,Community 1,NA,FALSE,f,j,NA,NA,NA,1,7,"15,13,9,10,7,3,5,6,11,12,8,4,2,14,1"
14515,commdev-image-keyboard-response,328,1109890,learnblock1,945.7000000029802,img/planet13_left.png,13,Community 1,NA,TRUE,f,f,NA,NA,NA,1,7,"15,13,9,10,7,3,5,6,11,12,8,4,2,14,1"
14515,commdev-image-keyboard-response,329,1111142,learnblock1,null,img/planet10_right.png,10,Community 1,NA,FALSE,null,j,NA,NA,NA,1,7,"15,13,9,10,7,3,5,6,11,12,8,4,2,14,1"
14515,commdev-image-keyboard-response,330,1112395,learnblock1,1239.2999999970198,img/planet13_right.png,13,Community 1,NA,FALSE,f,j,NA,NA,NA,1,7,"15,13,9,10,7,3,5,6,11,12,8,4,2,14,1"
14515,commdev-image-keyboard-response,331,1113648,learnblock1,710.2999999970198,img/planet10_right.png,10,Community 1,NA,FALSE,f,j,NA,NA,NA,1,7,"15,13,9,10,7,3,5,6,11,12,8,4,2,14,1"
14515,commdev-image-keyboard-response,332,1114902,learnblock1,1235.7000000029802,img/planet3_right.png,3,Community 2,NA,FALSE,f,j,NA,NA,NA,1,7,"15,13,9,10,7,3,5,6,11,12,8,4,2,14,1"
14515,commdev-image-keyboard-response,333,1116157,learnblock1,null,img/planet12_left.png,12,Community 2,NA,FALSE,null,f,NA,NA,NA,1,7,"15,13,9,10,7,3,5,6,11,12,8,4,2,14,1"
14515,commdev-image-keyboard-response,334,1117413,learnblock1,855.5,img/planet5_left.png,5,Community 2,NA,TRUE,f,f,NA,NA,NA,1,7,"15,13,9,10,7,3,5,6,11,12,8,4,2,14,1"
14515,commdev-image-keyboard-response,335,1118669,learnblock1,813.6999999880791,img/planet3_left.png,3,Community 2,NA,TRUE,f,f,NA,NA,NA,1,7,"15,13,9,10,7,3,5,6,11,12,8,4,2,14,1"
14515,commdev-image-keyboard-response,336,1119925,learnblock1,589.5999999940395,img/planet12_right.png,12,Community 2,NA,TRUE,j,j,NA,NA,NA,1,7,"15,13,9,10,7,3,5,6,11,12,8,4,2,14,1"
14515,commdev-image-keyboard-response,337,1121180,learnblock1,542.5,img/planet5_right.png,5,Community 2,NA,TRUE,j,j,NA,NA,NA,1,7,"15,13,9,10,7,3,5,6,11,12,8,4,2,14,1"
14515,commdev-image-keyboard-response,338,1122434,learnblock1,1063,img/planet3_right.png,3,Community 2,NA,TRUE,j,j,NA,NA,NA,1,7,"15,13,9,10,7,3,5,6,11,12,8,4,2,14,1"
14515,commdev-image-keyboard-response,339,1123689,learnblock1,906.2000000029802,img/planet12_right.png,12,Community 2,NA,TRUE,j,j,NA,NA,NA,1,7,"15,13,9,10,7,3,5,6,11,12,8,4,2,14,1"
14515,commdev-image-keyboard-response,340,1124943,learnblock1,820.3999999910593,img/planet5_left.png,5,Community 2,NA,TRUE,f,f,NA,NA,NA,1,7,"15,13,9,10,7,3,5,6,11,12,8,4,2,14,1"
14515,commdev-image-keyboard-response,341,1126198,learnblock1,1058.199999988079,img/planet11_left.png,11,Community 2,NA,TRUE,f,f,NA,NA,NA,1,7,"15,13,9,10,7,3,5,6,11,12,8,4,2,14,1"
14515,commdev-image-keyboard-response,342,1127451,learnblock1,707.6999999880791,img/planet5_right.png,5,Community 2,NA,TRUE,j,j,NA,NA,NA,1,7,"15,13,9,10,7,3,5,6,11,12,8,4,2,14,1"
14515,commdev-image-keyboard-response,343,1128705,learnblock1,767.0999999940395,img/planet3_right.png,3,Community 2,NA,TRUE,j,j,NA,NA,NA,1,7,"15,13,9,10,7,3,5,6,11,12,8,4,2,14,1"
14515,commdev-image-keyboard-response,344,1129958,learnblock1,746.2999999970198,img/planet10_left.png,10,Community 1,NA,TRUE,f,f,NA,NA,NA,1,7,"15,13,9,10,7,3,5,6,11,12,8,4,2,14,1"
14515,commdev-image-keyboard-response,345,1131212,learnblock1,583.4000000059605,img/planet3_right.png,3,Community 2,NA,TRUE,j,j,NA,NA,NA,1,7,"15,13,9,10,7,3,5,6,11,12,8,4,2,14,1"
14515,commdev-image-keyboard-response,346,1132466,learnblock1,736.7000000029802,img/planet10_right.png,10,Community 1,NA,TRUE,j,j,NA,NA,NA,1,7,"15,13,9,10,7,3,5,6,11,12,8,4,2,14,1"
14515,commdev-image-keyboard-response,347,1133720,learnblock1,734.2999999970198,img/planet3_left.png,3,Community 2,NA,TRUE,f,f,NA,NA,NA,1,7,"15,13,9,10,7,3,5,6,11,12,8,4,2,14,1"
14515,commdev-image-keyboard-response,348,1134974,learnblock1,1007,img/planet12_left.png,12,Community 2,NA,TRUE,f,f,NA,NA,NA,1,7,"15,13,9,10,7,3,5,6,11,12,8,4,2,14,1"
14515,commdev-image-keyboard-response,349,1136228,learnblock1,750.2999999970198,img/planet3_left.png,3,Community 2,NA,TRUE,f,f,NA,NA,NA,1,7,"15,13,9,10,7,3,5,6,11,12,8,4,2,14,1"
14515,commdev-image-keyboard-response,350,1137482,learnblock1,518.2999999970198,img/planet10_left.png,10,Community 1,NA,TRUE,f,f,NA,NA,NA,1,7,"15,13,9,10,7,3,5,6,11,12,8,4,2,14,1"
14515,commdev-image-keyboard-response,351,1138736,learnblock1,597.0999999940395,img/planet13_left.png,13,Community 1,NA,TRUE,f,f,NA,NA,NA,1,7,"15,13,9,10,7,3,5,6,11,12,8,4,2,14,1"
14515,commdev-image-keyboard-response,352,1139989,learnblock1,555.5999999940395,img/planet10_left.png,10,Community 1,NA,TRUE,f,f,NA,NA,NA,1,7,"15,13,9,10,7,3,5,6,11,12,8,4,2,14,1"
14515,commdev-image-keyboard-response,353,1141243,learnblock1,520.8000000119209,img/planet9_left.png,9,Community 1,NA,TRUE,f,f,NA,NA,NA,1,7,"15,13,9,10,7,3,5,6,11,12,8,4,2,14,1"
14515,commdev-image-keyboard-response,354,1142497,learnblock1,660.5999999940395,img/planet15_left.png,15,Community 1,NA,TRUE,f,f,NA,NA,NA,1,7,"15,13,9,10,7,3,5,6,11,12,8,4,2,14,1"
14515,commdev-image-keyboard-response,355,1143749,learnblock1,540.9000000059605,img/planet13_right.png,13,Community 1,NA,TRUE,j,j,NA,NA,NA,1,7,"15,13,9,10,7,3,5,6,11,12,8,4,2,14,1"
14515,commdev-image-keyboard-response,356,1145003,learnblock1,715.7000000029802,img/planet7_right.png,7,Community 1,NA,TRUE,j,j,NA,NA,NA,1,7,"15,13,9,10,7,3,5,6,11,12,8,4,2,14,1"
14515,commdev-image-keyboard-response,357,1146256,learnblock1,680.7999999970198,img/planet15_right.png,15,Community 1,NA,TRUE,j,j,NA,NA,NA,1,7,"15,13,9,10,7,3,5,6,11,12,8,4,2,14,1"
14515,commdev-image-keyboard-response,358,1147510,learnblock1,715.7000000029802,img/planet9_right.png,9,Community 1,NA,TRUE,j,j,NA,NA,NA,1,7,"15,13,9,10,7,3,5,6,11,12,8,4,2,14,1"
14515,commdev-image-keyboard-response,359,1148762,learnblock1,729.2000000029802,img/planet13_left.png,13,Community 1,NA,TRUE,f,f,NA,NA,NA,1,7,"15,13,9,10,7,3,5,6,11,12,8,4,2,14,1"
14515,commdev-image-keyboard-response,360,1150016,learnblock1,751.7000000029802,img/planet9_left.png,9,Community 1,NA,TRUE,f,f,NA,NA,NA,1,7,"15,13,9,10,7,3,5,6,11,12,8,4,2,14,1"
14515,commdev-image-keyboard-response,361,1151269,learnblock1,548.7000000029802,img/planet10_left.png,10,Community 1,NA,TRUE,f,f,NA,NA,NA,1,7,"15,13,9,10,7,3,5,6,11,12,8,4,2,14,1"
14515,commdev-image-keyboard-response,362,1152523,learnblock1,596.9000000059605,img/planet15_left.png,15,Community 1,NA,TRUE,f,f,NA,NA,NA,1,7,"15,13,9,10,7,3,5,6,11,12,8,4,2,14,1"
14515,commdev-image-keyboard-response,363,1153776,learnblock1,502.40000000596046,img/planet13_right.png,13,Community 1,NA,TRUE,j,j,NA,NA,NA,1,7,"15,13,9,10,7,3,5,6,11,12,8,4,2,14,1"
14515,commdev-image-keyboard-response,364,1155029,learnblock1,770.5,img/planet15_right.png,15,Community 1,NA,TRUE,j,j,NA,NA,NA,1,7,"15,13,9,10,7,3,5,6,11,12,8,4,2,14,1"
14515,commdev-image-keyboard-response,365,1156283,learnblock1,653.6000000089407,img/planet9_left.png,9,Community 1,NA,TRUE,f,f,NA,NA,NA,1,7,"15,13,9,10,7,3,5,6,11,12,8,4,2,14,1"
14515,commdev-image-keyboard-response,366,1157536,learnblock1,707.8999999910593,img/planet15_left.png,15,Community 1,NA,TRUE,f,f,NA,NA,NA,1,7,"15,13,9,10,7,3,5,6,11,12,8,4,2,14,1"
14515,commdev-image-keyboard-response,367,1158789,learnblock1,580.1000000089407,img/planet10_left.png,10,Community 1,NA,TRUE,f,f,NA,NA,NA,1,7,"15,13,9,10,7,3,5,6,11,12,8,4,2,14,1"
14515,commdev-image-keyboard-response,368,1160042,learnblock1,713.7999999970198,img/planet15_right.png,15,Community 1,NA,TRUE,j,j,NA,NA,NA,1,7,"15,13,9,10,7,3,5,6,11,12,8,4,2,14,1"
14515,commdev-image-keyboard-response,369,1161295,learnblock1,658.5,img/planet9_left.png,9,Community 1,NA,TRUE,f,f,NA,NA,NA,1,7,"15,13,9,10,7,3,5,6,11,12,8,4,2,14,1"
14515,commdev-image-keyboard-response,370,1162548,learnblock1,714.8000000119209,img/planet13_left.png,13,Community 1,NA,TRUE,f,f,NA,NA,NA,1,7,"15,13,9,10,7,3,5,6,11,12,8,4,2,14,1"
14515,commdev-image-keyboard-response,371,1163801,learnblock1,713.9000000059605,img/planet9_left.png,9,Community 1,NA,TRUE,f,f,NA,NA,NA,1,7,"15,13,9,10,7,3,5,6,11,12,8,4,2,14,1"
14515,commdev-image-keyboard-response,372,1165054,learnblock1,598.5999999940395,img/planet15_left.png,15,Community 1,NA,TRUE,f,f,NA,NA,NA,1,7,"15,13,9,10,7,3,5,6,11,12,8,4,2,14,1"
14515,commdev-image-keyboard-response,373,1166307,learnblock1,617.2999999970198,img/planet7_left.png,7,Community 1,NA,TRUE,f,f,NA,NA,NA,1,7,"15,13,9,10,7,3,5,6,11,12,8,4,2,14,1"
14515,commdev-image-keyboard-response,374,1167560,learnblock1,664.5999999940395,img/planet9_right.png,9,Community 1,NA,TRUE,j,j,NA,NA,NA,1,7,"15,13,9,10,7,3,5,6,11,12,8,4,2,14,1"
14515,commdev-image-keyboard-response,375,1168813,learnblock1,842.5999999940395,img/planet7_left.png,7,Community 1,NA,TRUE,f,f,NA,NA,NA,1,7,"15,13,9,10,7,3,5,6,11,12,8,4,2,14,1"
14515,commdev-image-keyboard-response,376,1170066,learnblock1,651.7999999970198,img/planet8_right.png,8,Community 3,NA,TRUE,j,j,NA,NA,NA,1,7,"15,13,9,10,7,3,5,6,11,12,8,4,2,14,1"
14515,commdev-image-keyboard-response,377,1171319,learnblock1,651.7000000029802,img/planet7_left.png,7,Community 1,NA,TRUE,f,f,NA,NA,NA,1,7,"15,13,9,10,7,3,5,6,11,12,8,4,2,14,1"
14515,commdev-image-keyboard-response,378,1172572,learnblock1,535.2000000029802,img/planet15_right.png,15,Community 1,NA,TRUE,j,j,NA,NA,NA,1,7,"15,13,9,10,7,3,5,6,11,12,8,4,2,14,1"
14515,commdev-image-keyboard-response,379,1173825,learnblock1,1213.7999999970198,img/planet13_left.png,13,Community 1,NA,TRUE,f,f,NA,NA,NA,1,7,"15,13,9,10,7,3,5,6,11,12,8,4,2,14,1"
14515,commdev-image-keyboard-response,380,1175078,learnblock1,632.2000000029802,img/planet9_right.png,9,Community 1,NA,TRUE,j,j,NA,NA,NA,1,7,"15,13,9,10,7,3,5,6,11,12,8,4,2,14,1"
14515,commdev-image-keyboard-response,381,1176331,learnblock1,877.7000000029802,img/planet15_right.png,15,Community 1,NA,TRUE,j,j,NA,NA,NA,1,7,"15,13,9,10,7,3,5,6,11,12,8,4,2,14,1"
14515,commdev-image-keyboard-response,382,1177584,learnblock1,585.4000000059605,img/planet10_right.png,10,Community 1,NA,TRUE,j,j,NA,NA,NA,1,7,"15,13,9,10,7,3,5,6,11,12,8,4,2,14,1"
14515,commdev-image-keyboard-response,383,1178836,learnblock1,663.0999999940395,img/planet3_left.png,3,Community 2,NA,TRUE,f,f,NA,NA,NA,1,7,"15,13,9,10,7,3,5,6,11,12,8,4,2,14,1"
14515,commdev-image-keyboard-response,384,1180089,learnblock1,581.8999999910593,img/planet5_right.png,5,Community 2,NA,TRUE,j,j,NA,NA,NA,1,7,"15,13,9,10,7,3,5,6,11,12,8,4,2,14,1"
14515,commdev-image-keyboard-response,385,1181343,learnblock1,798.7000000029802,img/planet12_right.png,12,Community 2,NA,TRUE,j,j,NA,NA,NA,1,7,"15,13,9,10,7,3,5,6,11,12,8,4,2,14,1"
14515,commdev-image-keyboard-response,386,1182597,learnblock1,760,img/planet6_left.png,6,Community 2,NA,TRUE,f,f,NA,NA,NA,1,7,"15,13,9,10,7,3,5,6,11,12,8,4,2,14,1"
14515,commdev-image-keyboard-response,387,1183851,learnblock1,896.4000000059605,img/planet5_left.png,5,Community 2,NA,TRUE,f,f,NA,NA,NA,1,7,"15,13,9,10,7,3,5,6,11,12,8,4,2,14,1"
14515,commdev-image-keyboard-response,388,1185104,learnblock1,636.5999999940395,img/planet6_left.png,6,Community 2,NA,TRUE,f,f,NA,NA,NA,1,7,"15,13,9,10,7,3,5,6,11,12,8,4,2,14,1"
14515,commdev-image-keyboard-response,389,1186358,learnblock1,579.5,img/planet4_right.png,4,Community 3,NA,TRUE,j,j,NA,NA,NA,1,7,"15,13,9,10,7,3,5,6,11,12,8,4,2,14,1"
14515,commdev-image-keyboard-response,390,1187611,learnblock1,539.1000000089407,img/planet2_left.png,2,Community 3,NA,TRUE,f,f,NA,NA,NA,1,7,"15,13,9,10,7,3,5,6,11,12,8,4,2,14,1"
14515,commdev-image-keyboard-response,391,1188864,learnblock1,673.5999999940395,img/planet1_right.png,1,Community 3,NA,TRUE,j,j,NA,NA,NA,1,7,"15,13,9,10,7,3,5,6,11,12,8,4,2,14,1"
14515,commdev-image-keyboard-response,392,1190117,learnblock1,949.0999999940395,img/planet8_right.png,8,Community 3,NA,TRUE,j,j,NA,NA,NA,1,7,"15,13,9,10,7,3,5,6,11,12,8,4,2,14,1"
14515,commdev-image-keyboard-response,393,1191370,learnblock1,693.8999999910593,img/planet7_right.png,7,Community 1,NA,TRUE,j,j,NA,NA,NA,1,7,"15,13,9,10,7,3,5,6,11,12,8,4,2,14,1"
14515,commdev-image-keyboard-response,394,1192624,learnblock1,957.3999999910593,img/planet8_right.png,8,Community 3,NA,TRUE,j,j,NA,NA,NA,1,7,"15,13,9,10,7,3,5,6,11,12,8,4,2,14,1"
14515,commdev-image-keyboard-response,395,1193876,learnblock1,794.2999999970198,img/planet7_left.png,7,Community 1,NA,TRUE,f,f,NA,NA,NA,1,7,"15,13,9,10,7,3,5,6,11,12,8,4,2,14,1"
14515,commdev-image-keyboard-response,396,1195130,learnblock1,562.7999999970198,img/planet15_right.png,15,Community 1,NA,TRUE,j,j,NA,NA,NA,1,7,"15,13,9,10,7,3,5,6,11,12,8,4,2,14,1"
14515,commdev-image-keyboard-response,397,1196384,learnblock1,606.2000000029802,img/planet13_left.png,13,Community 1,NA,TRUE,f,f,NA,NA,NA,1,7,"15,13,9,10,7,3,5,6,11,12,8,4,2,14,1"
14515,commdev-image-keyboard-response,398,1197637,learnblock1,646.2999999970198,img/planet10_left.png,10,Community 1,NA,TRUE,f,f,NA,NA,NA,1,7,"15,13,9,10,7,3,5,6,11,12,8,4,2,14,1"
14515,commdev-image-keyboard-response,399,1198888,learnblock1,560.7000000029802,img/planet9_right.png,9,Community 1,NA,TRUE,j,j,NA,NA,NA,1,7,"15,13,9,10,7,3,5,6,11,12,8,4,2,14,1"
14515,commdev-image-keyboard-response,400,1200142,learnblock1,707.8999999910593,img/planet10_right.png,10,Community 1,NA,TRUE,j,j,NA,NA,NA,1,7,"15,13,9,10,7,3,5,6,11,12,8,4,2,14,1"
14515,commdev-image-keyboard-response,401,1201395,learnblock1,728.2000000029802,img/planet13_right.png,13,Community 1,NA,TRUE,j,j,NA,NA,NA,1,7,"15,13,9,10,7,3,5,6,11,12,8,4,2,14,1"
14515,commdev-image-keyboard-response,402,1202648,learnblock1,647.3999999910593,img/planet9_left.png,9,Community 1,NA,TRUE,f,f,NA,NA,NA,1,7,"15,13,9,10,7,3,5,6,11,12,8,4,2,14,1"
14515,commdev-image-keyboard-response,403,1203900,learnblock1,588.0999999940395,img/planet10_right.png,10,Community 1,NA,TRUE,j,j,NA,NA,NA,1,7,"15,13,9,10,7,3,5,6,11,12,8,4,2,14,1"
14515,commdev-image-keyboard-response,404,1205154,learnblock1,539,img/planet9_right.png,9,Community 1,NA,TRUE,j,j,NA,NA,NA,1,7,"15,13,9,10,7,3,5,6,11,12,8,4,2,14,1"
14515,commdev-image-keyboard-response,405,1206407,learnblock1,624.9000000059605,img/planet13_left.png,13,Community 1,NA,TRUE,f,f,NA,NA,NA,1,7,"15,13,9,10,7,3,5,6,11,12,8,4,2,14,1"
14515,commdev-image-keyboard-response,406,1207661,learnblock1,509.70000000298023,img/planet10_right.png,10,Community 1,NA,TRUE,j,j,NA,NA,NA,1,7,"15,13,9,10,7,3,5,6,11,12,8,4,2,14,1"
14515,commdev-image-keyboard-response,407,1208913,learnblock1,687.7999999970198,img/planet9_right.png,9,Community 1,NA,TRUE,j,j,NA,NA,NA,1,7,"15,13,9,10,7,3,5,6,11,12,8,4,2,14,1"
14515,commdev-image-keyboard-response,408,1210166,learnblock1,644.2000000029802,img/planet10_right.png,10,Community 1,NA,TRUE,j,j,NA,NA,NA,1,7,"15,13,9,10,7,3,5,6,11,12,8,4,2,14,1"
14515,commdev-image-keyboard-response,409,1211420,learnblock1,656.5999999940395,img/planet3_left.png,3,Community 2,NA,TRUE,f,f,NA,NA,NA,1,7,"15,13,9,10,7,3,5,6,11,12,8,4,2,14,1"
14515,commdev-image-keyboard-response,410,1212673,learnblock1,684.7000000029802,img/planet12_left.png,12,Community 2,NA,TRUE,f,f,NA,NA,NA,1,7,"15,13,9,10,7,3,5,6,11,12,8,4,2,14,1"
14515,commdev-image-keyboard-response,411,1213926,learnblock1,587.5,img/planet5_right.png,5,Community 2,NA,TRUE,j,j,NA,NA,NA,1,7,"15,13,9,10,7,3,5,6,11,12,8,4,2,14,1"
14515,commdev-image-keyboard-response,412,1215180,learnblock1,879.2000000029802,img/planet6_right.png,6,Community 2,NA,TRUE,j,j,NA,NA,NA,1,7,"15,13,9,10,7,3,5,6,11,12,8,4,2,14,1"
14515,commdev-image-keyboard-response,413,1216432,learnblock1,601.5999999940395,img/planet4_left.png,4,Community 3,NA,TRUE,f,f,NA,NA,NA,1,7,"15,13,9,10,7,3,5,6,11,12,8,4,2,14,1"
14515,commdev-image-keyboard-response,417,1234399,learnblock2,875.1000000089407,img/planet8_right.png,8,Community 3,NA,TRUE,j,j,NA,NA,NA,1,7,"15,13,9,10,7,3,5,6,11,12,8,4,2,14,1"
14515,commdev-image-keyboard-response,418,1235652,learnblock2,771.2000000029802,img/planet7_left.png,7,Community 1,NA,TRUE,f,f,NA,NA,NA,1,7,"15,13,9,10,7,3,5,6,11,12,8,4,2,14,1"
14515,commdev-image-keyboard-response,419,1236905,learnblock2,668.5999999940395,img/planet15_left.png,15,Community 1,NA,TRUE,f,f,NA,NA,NA,1,7,"15,13,9,10,7,3,5,6,11,12,8,4,2,14,1"
14515,commdev-image-keyboard-response,420,1238158,learnblock2,851.7000000029802,img/planet10_left.png,10,Community 1,NA,TRUE,f,f,NA,NA,NA,1,7,"15,13,9,10,7,3,5,6,11,12,8,4,2,14,1"
14515,commdev-image-keyboard-response,421,1239411,learnblock2,711.7999999970198,img/planet3_left.png,3,Community 2,NA,TRUE,f,f,NA,NA,NA,1,7,"15,13,9,10,7,3,5,6,11,12,8,4,2,14,1"
14515,commdev-image-keyboard-response,422,1240664,learnblock2,722.7999999970198,img/planet12_right.png,12,Community 2,NA,TRUE,j,j,NA,NA,NA,1,7,"15,13,9,10,7,3,5,6,11,12,8,4,2,14,1"
14515,commdev-image-keyboard-response,423,1241918,learnblock2,665.6999999880791,img/planet11_left.png,11,Community 2,NA,TRUE,f,f,NA,NA,NA,1,7,"15,13,9,10,7,3,5,6,11,12,8,4,2,14,1"
14515,commdev-image-keyboard-response,424,1243170,learnblock2,574.7999999970198,img/planet6_right.png,6,Community 2,NA,TRUE,j,j,NA,NA,NA,1,7,"15,13,9,10,7,3,5,6,11,12,8,4,2,14,1"
14515,commdev-image-keyboard-response,425,1244424,learnblock2,694.7999999970198,img/planet12_left.png,12,Community 2,NA,TRUE,f,f,NA,NA,NA,1,7,"15,13,9,10,7,3,5,6,11,12,8,4,2,14,1"
14515,commdev-image-keyboard-response,426,1245678,learnblock2,492.69999998807907,img/planet6_right.png,6,Community 2,NA,TRUE,j,j,NA,NA,NA,1,7,"15,13,9,10,7,3,5,6,11,12,8,4,2,14,1"
14515,commdev-image-keyboard-response,427,1246930,learnblock2,596.5,img/planet5_left.png,5,Community 2,NA,TRUE,f,f,NA,NA,NA,1,7,"15,13,9,10,7,3,5,6,11,12,8,4,2,14,1"
14515,commdev-image-keyboard-response,428,1248182,learnblock2,555.3000000119209,img/planet12_left.png,12,Community 2,NA,TRUE,f,f,NA,NA,NA,1,7,"15,13,9,10,7,3,5,6,11,12,8,4,2,14,1"
14515,commdev-image-keyboard-response,429,1249435,learnblock2,569.7999999970198,img/planet6_right.png,6,Community 2,NA,TRUE,j,j,NA,NA,NA,1,7,"15,13,9,10,7,3,5,6,11,12,8,4,2,14,1"
14515,commdev-image-keyboard-response,430,1250687,learnblock2,777.1999999880791,img/planet5_right.png,5,Community 2,NA,TRUE,j,j,NA,NA,NA,1,7,"15,13,9,10,7,3,5,6,11,12,8,4,2,14,1"
14515,commdev-image-keyboard-response,431,1251941,learnblock2,632.5,img/planet12_left.png,12,Community 2,NA,TRUE,f,f,NA,NA,NA,1,7,"15,13,9,10,7,3,5,6,11,12,8,4,2,14,1"
14515,commdev-image-keyboard-response,432,1253194,learnblock2,657.1000000089407,img/planet11_right.png,11,Community 2,NA,TRUE,j,j,NA,NA,NA,1,7,"15,13,9,10,7,3,5,6,11,12,8,4,2,14,1"
14515,commdev-image-keyboard-response,433,1254447,learnblock2,761.7000000029802,img/planet12_left.png,12,Community 2,NA,TRUE,f,f,NA,NA,NA,1,7,"15,13,9,10,7,3,5,6,11,12,8,4,2,14,1"
14515,commdev-image-keyboard-response,434,1255701,learnblock2,577.5,img/planet3_right.png,3,Community 2,NA,TRUE,j,j,NA,NA,NA,1,7,"15,13,9,10,7,3,5,6,11,12,8,4,2,14,1"
14515,commdev-image-keyboard-response,435,1256953,learnblock2,1042.9000000059605,img/planet11_left.png,11,Community 2,NA,TRUE,f,f,NA,NA,NA,1,7,"15,13,9,10,7,3,5,6,11,12,8,4,2,14,1"
14515,commdev-image-keyboard-response,436,1258206,learnblock2,557.5999999940395,img/planet12_right.png,12,Community 2,NA,TRUE,j,j,NA,NA,NA,1,7,"15,13,9,10,7,3,5,6,11,12,8,4,2,14,1"
14515,commdev-image-keyboard-response,437,1259459,learnblock2,634,img/planet11_left.png,11,Community 2,NA,TRUE,f,f,NA,NA,NA,1,7,"15,13,9,10,7,3,5,6,11,12,8,4,2,14,1"
14515,commdev-image-keyboard-response,438,1260713,learnblock2,635.0999999940395,img/planet5_left.png,5,Community 2,NA,TRUE,f,f,NA,NA,NA,1,7,"15,13,9,10,7,3,5,6,11,12,8,4,2,14,1"
14515,commdev-image-keyboard-response,439,1261967,learnblock2,632.1000000089407,img/planet3_left.png,3,Community 2,NA,TRUE,f,f,NA,NA,NA,1,7,"15,13,9,10,7,3,5,6,11,12,8,4,2,14,1"
14515,commdev-image-keyboard-response,440,1263219,learnblock2,694.5,img/planet12_right.png,12,Community 2,NA,TRUE,j,j,NA,NA,NA,1,7,"15,13,9,10,7,3,5,6,11,12,8,4,2,14,1"
14515,commdev-image-keyboard-response,441,1264473,learnblock2,624.7000000029802,img/planet5_right.png,5,Community 2,NA,TRUE,j,j,NA,NA,NA,1,7,"15,13,9,10,7,3,5,6,11,12,8,4,2,14,1"
14515,commdev-image-keyboard-response,442,1265726,learnblock2,562.1000000089407,img/planet6_left.png,6,Community 2,NA,TRUE,f,f,NA,NA,NA,1,7,"15,13,9,10,7,3,5,6,11,12,8,4,2,14,1"
14515,commdev-image-keyboard-response,443,1266979,learnblock2,553.9000000059605,img/planet12_right.png,12,Community 2,NA,TRUE,j,j,NA,NA,NA,1,7,"15,13,9,10,7,3,5,6,11,12,8,4,2,14,1"
14515,commdev-image-keyboard-response,444,1268232,learnblock2,682.9000000059605,img/planet5_left.png,5,Community 2,NA,TRUE,f,f,NA,NA,NA,1,7,"15,13,9,10,7,3,5,6,11,12,8,4,2,14,1"
14515,commdev-image-keyboard-response,445,1269485,learnblock2,775.6000000089407,img/planet3_left.png,3,Community 2,NA,TRUE,f,f,NA,NA,NA,1,7,"15,13,9,10,7,3,5,6,11,12,8,4,2,14,1"
14515,commdev-image-keyboard-response,446,1270738,learnblock2,570,img/planet11_right.png,11,Community 2,NA,TRUE,j,j,NA,NA,NA,1,7,"15,13,9,10,7,3,5,6,11,12,8,4,2,14,1"
14515,commdev-image-keyboard-response,447,1271992,learnblock2,626.6999999880791,img/planet6_left.png,6,Community 2,NA,TRUE,f,f,NA,NA,NA,1,7,"15,13,9,10,7,3,5,6,11,12,8,4,2,14,1"
14515,commdev-image-keyboard-response,448,1273245,learnblock2,783.8999999910593,img/planet12_left.png,12,Community 2,NA,TRUE,f,f,NA,NA,NA,1,7,"15,13,9,10,7,3,5,6,11,12,8,4,2,14,1"
14515,commdev-image-keyboard-response,449,1274498,learnblock2,574.4000000059605,img/planet6_left.png,6,Community 2,NA,TRUE,f,f,NA,NA,NA,1,7,"15,13,9,10,7,3,5,6,11,12,8,4,2,14,1"
14515,commdev-image-keyboard-response,450,1275751,learnblock2,662.5999999940395,img/planet5_right.png,5,Community 2,NA,TRUE,j,j,NA,NA,NA,1,7,"15,13,9,10,7,3,5,6,11,12,8,4,2,14,1"
14515,commdev-image-keyboard-response,451,1277004,learnblock2,1042.4000000059605,img/planet3_right.png,3,Community 2,NA,FALSE,f,j,NA,NA,NA,1,7,"15,13,9,10,7,3,5,6,11,12,8,4,2,14,1"
14515,commdev-image-keyboard-response,452,1278257,learnblock2,634.2999999970198,img/planet5_right.png,5,Community 2,NA,FALSE,f,j,NA,NA,NA,1,7,"15,13,9,10,7,3,5,6,11,12,8,4,2,14,1"
14515,commdev-image-keyboard-response,453,1279509,learnblock2,690.5,img/planet3_left.png,3,Community 2,NA,FALSE,j,f,NA,NA,NA,1,7,"15,13,9,10,7,3,5,6,11,12,8,4,2,14,1"
14515,commdev-image-keyboard-response,454,1280762,learnblock2,null,img/planet5_left.png,5,Community 2,NA,FALSE,null,f,NA,NA,NA,1,7,"15,13,9,10,7,3,5,6,11,12,8,4,2,14,1"
14515,commdev-image-keyboard-response,455,1282015,learnblock2,909.7999999970198,img/planet3_left.png,3,Community 2,NA,TRUE,f,f,NA,NA,NA,1,7,"15,13,9,10,7,3,5,6,11,12,8,4,2,14,1"
14515,commdev-image-keyboard-response,456,1283268,learnblock2,864.9000000059605,img/planet5_left.png,5,Community 2,NA,TRUE,f,f,NA,NA,NA,1,7,"15,13,9,10,7,3,5,6,11,12,8,4,2,14,1"
14515,commdev-image-keyboard-response,457,1284521,learnblock2,574.2000000029802,img/planet12_right.png,12,Community 2,NA,TRUE,j,j,NA,NA,NA,1,7,"15,13,9,10,7,3,5,6,11,12,8,4,2,14,1"
14515,commdev-image-keyboard-response,458,1285774,learnblock2,769.9000000059605,img/planet11_left.png,11,Community 2,NA,TRUE,f,f,NA,NA,NA,1,7,"15,13,9,10,7,3,5,6,11,12,8,4,2,14,1"
14515,commdev-image-keyboard-response,459,1287027,learnblock2,740.2000000029802,img/planet3_left.png,3,Community 2,NA,TRUE,f,f,NA,NA,NA,1,7,"15,13,9,10,7,3,5,6,11,12,8,4,2,14,1"
14515,commdev-image-keyboard-response,460,1288279,learnblock2,590.5999999940395,img/planet12_left.png,12,Community 2,NA,TRUE,f,f,NA,NA,NA,1,7,"15,13,9,10,7,3,5,6,11,12,8,4,2,14,1"
14515,commdev-image-keyboard-response,461,1289533,learnblock2,775.7999999970198,img/planet11_right.png,11,Community 2,NA,TRUE,j,j,NA,NA,NA,1,7,"15,13,9,10,7,3,5,6,11,12,8,4,2,14,1"
14515,commdev-image-keyboard-response,462,1290786,learnblock2,660.7000000029802,img/planet12_left.png,12,Community 2,NA,TRUE,f,f,NA,NA,NA,1,7,"15,13,9,10,7,3,5,6,11,12,8,4,2,14,1"
14515,commdev-image-keyboard-response,463,1292039,learnblock2,525.7999999970198,img/planet5_right.png,5,Community 2,NA,TRUE,j,j,NA,NA,NA,1,7,"15,13,9,10,7,3,5,6,11,12,8,4,2,14,1"
14515,commdev-image-keyboard-response,464,1293292,learnblock2,805.6000000089407,img/planet3_right.png,3,Community 2,NA,TRUE,j,j,NA,NA,NA,1,7,"15,13,9,10,7,3,5,6,11,12,8,4,2,14,1"
14515,commdev-image-keyboard-response,465,1294544,learnblock2,1080.4000000059605,img/planet11_right.png,11,Community 2,NA,TRUE,j,j,NA,NA,NA,1,7,"15,13,9,10,7,3,5,6,11,12,8,4,2,14,1"
14515,commdev-image-keyboard-response,466,1295797,learnblock2,718.5,img/planet3_left.png,3,Community 2,NA,TRUE,f,f,NA,NA,NA,1,7,"15,13,9,10,7,3,5,6,11,12,8,4,2,14,1"
14515,commdev-image-keyboard-response,467,1297050,learnblock2,702.0999999940395,img/planet11_left.png,11,Community 2,NA,TRUE,f,f,NA,NA,NA,1,7,"15,13,9,10,7,3,5,6,11,12,8,4,2,14,1"
14515,commdev-image-keyboard-response,468,1298303,learnblock2,680.2999999970198,img/planet6_right.png,6,Community 2,NA,TRUE,j,j,NA,NA,NA,1,7,"15,13,9,10,7,3,5,6,11,12,8,4,2,14,1"
14515,commdev-image-keyboard-response,469,1299556,learnblock2,743.8999999910593,img/planet11_right.png,11,Community 2,NA,TRUE,j,j,NA,NA,NA,1,7,"15,13,9,10,7,3,5,6,11,12,8,4,2,14,1"
14515,commdev-image-keyboard-response,470,1300809,learnblock2,658.5,img/planet3_left.png,3,Community 2,NA,TRUE,f,f,NA,NA,NA,1,7,"15,13,9,10,7,3,5,6,11,12,8,4,2,14,1"
14515,commdev-image-keyboard-response,471,1302063,learnblock2,563,img/planet11_right.png,11,Community 2,NA,TRUE,j,j,NA,NA,NA,1,7,"15,13,9,10,7,3,5,6,11,12,8,4,2,14,1"
14515,commdev-image-keyboard-response,472,1303317,learnblock2,851.0999999940395,img/planet3_right.png,3,Community 2,NA,TRUE,j,j,NA,NA,NA,1,7,"15,13,9,10,7,3,5,6,11,12,8,4,2,14,1"
14515,commdev-image-keyboard-response,473,1304569,learnblock2,644.3000000119209,img/planet10_right.png,10,Community 1,NA,TRUE,j,j,NA,NA,NA,1,7,"15,13,9,10,7,3,5,6,11,12,8,4,2,14,1"
14515,commdev-image-keyboard-response,474,1305823,learnblock2,732.2000000029802,img/planet15_left.png,15,Community 1,NA,TRUE,f,f,NA,NA,NA,1,7,"15,13,9,10,7,3,5,6,11,12,8,4,2,14,1"
14515,commdev-image-keyboard-response,475,1307076,learnblock2,688.0999999940395,img/planet13_left.png,13,Community 1,NA,FALSE,j,f,NA,NA,NA,1,7,"15,13,9,10,7,3,5,6,11,12,8,4,2,14,1"
14515,commdev-image-keyboard-response,476,1308329,learnblock2,789.5,img/planet7_left.png,7,Community 1,NA,TRUE,f,f,NA,NA,NA,1,7,"15,13,9,10,7,3,5,6,11,12,8,4,2,14,1"
14515,commdev-image-keyboard-response,477,1309582,learnblock2,691.0999999940395,img/planet8_right.png,8,Community 3,NA,TRUE,j,j,NA,NA,NA,1,7,"15,13,9,10,7,3,5,6,11,12,8,4,2,14,1"
14515,commdev-image-keyboard-response,478,1310836,learnblock2,802.8999999910593,img/planet7_right.png,7,Community 1,NA,TRUE,j,j,NA,NA,NA,1,7,"15,13,9,10,7,3,5,6,11,12,8,4,2,14,1"
14515,commdev-image-keyboard-response,479,1312089,learnblock2,733.8999999910593,img/planet13_left.png,13,Community 1,NA,TRUE,f,f,NA,NA,NA,1,7,"15,13,9,10,7,3,5,6,11,12,8,4,2,14,1"
14515,commdev-image-keyboard-response,480,1313342,learnblock2,738.9000000059605,img/planet15_right.png,15,Community 1,NA,TRUE,j,j,NA,NA,NA,1,7,"15,13,9,10,7,3,5,6,11,12,8,4,2,14,1"
14515,commdev-image-keyboard-response,481,1314595,learnblock2,632.5,img/planet10_right.png,10,Community 1,NA,TRUE,j,j,NA,NA,NA,1,7,"15,13,9,10,7,3,5,6,11,12,8,4,2,14,1"
14515,commdev-image-keyboard-response,482,1315848,learnblock2,620.3000000119209,img/planet9_left.png,9,Community 1,NA,TRUE,f,f,NA,NA,NA,1,7,"15,13,9,10,7,3,5,6,11,12,8,4,2,14,1"
14515,commdev-image-keyboard-response,483,1317102,learnblock2,572.0999999940395,img/planet10_left.png,10,Community 1,NA,TRUE,f,f,NA,NA,NA,1,7,"15,13,9,10,7,3,5,6,11,12,8,4,2,14,1"
14515,commdev-image-keyboard-response,484,1318355,learnblock2,713.2000000029802,img/planet15_left.png,15,Community 1,NA,TRUE,f,f,NA,NA,NA,1,7,"15,13,9,10,7,3,5,6,11,12,8,4,2,14,1"
14515,commdev-image-keyboard-response,485,1319608,learnblock2,630.2000000029802,img/planet10_right.png,10,Community 1,NA,TRUE,j,j,NA,NA,NA,1,7,"15,13,9,10,7,3,5,6,11,12,8,4,2,14,1"
14515,commdev-image-keyboard-response,486,1320861,learnblock2,701.7999999970198,img/planet13_right.png,13,Community 1,NA,TRUE,j,j,NA,NA,NA,1,7,"15,13,9,10,7,3,5,6,11,12,8,4,2,14,1"
14515,commdev-image-keyboard-response,487,1322114,learnblock2,725.0999999940395,img/planet15_right.png,15,Community 1,NA,TRUE,j,j,NA,NA,NA,1,7,"15,13,9,10,7,3,5,6,11,12,8,4,2,14,1"
14515,commdev-image-keyboard-response,488,1323368,learnblock2,678.0999999940395,img/planet13_left.png,13,Community 1,NA,TRUE,f,f,NA,NA,NA,1,7,"15,13,9,10,7,3,5,6,11,12,8,4,2,14,1"
14515,commdev-image-keyboard-response,489,1324620,learnblock2,547.2999999970198,img/planet9_right.png,9,Community 1,NA,TRUE,j,j,NA,NA,NA,1,7,"15,13,9,10,7,3,5,6,11,12,8,4,2,14,1"
14515,commdev-image-keyboard-response,490,1325873,learnblock2,783.8999999910593,img/planet15_right.png,15,Community 1,NA,TRUE,j,j,NA,NA,NA,1,7,"15,13,9,10,7,3,5,6,11,12,8,4,2,14,1"
14515,commdev-image-keyboard-response,491,1327127,learnblock2,666.2999999970198,img/planet13_right.png,13,Community 1,NA,TRUE,j,j,NA,NA,NA,1,7,"15,13,9,10,7,3,5,6,11,12,8,4,2,14,1"
14515,commdev-image-keyboard-response,492,1328379,learnblock2,670.2999999970198,img/planet15_left.png,15,Community 1,NA,TRUE,f,f,NA,NA,NA,1,7,"15,13,9,10,7,3,5,6,11,12,8,4,2,14,1"
14515,commdev-image-keyboard-response,493,1329632,learnblock2,729.1999999880791,img/planet10_left.png,10,Community 1,NA,TRUE,f,f,NA,NA,NA,1,7,"15,13,9,10,7,3,5,6,11,12,8,4,2,14,1"
14515,commdev-image-keyboard-response,494,1330885,learnblock2,539.7999999970198,img/planet15_right.png,15,Community 1,NA,TRUE,j,j,NA,NA,NA,1,7,"15,13,9,10,7,3,5,6,11,12,8,4,2,14,1"
14515,commdev-image-keyboard-response,495,1332139,learnblock2,685.7000000029802,img/planet9_left.png,9,Community 1,NA,TRUE,f,f,NA,NA,NA,1,7,"15,13,9,10,7,3,5,6,11,12,8,4,2,14,1"
14515,commdev-image-keyboard-response,496,1333392,learnblock2,480.79999999701977,img/planet10_right.png,10,Community 1,NA,TRUE,j,j,NA,NA,NA,1,7,"15,13,9,10,7,3,5,6,11,12,8,4,2,14,1"
14515,commdev-image-keyboard-response,497,1334644,learnblock2,732.9000000059605,img/planet15_right.png,15,Community 1,NA,TRUE,j,j,NA,NA,NA,1,7,"15,13,9,10,7,3,5,6,11,12,8,4,2,14,1"
14515,commdev-image-keyboard-response,498,1335896,learnblock2,767.6999999880791,img/planet7_right.png,7,Community 1,NA,TRUE,j,j,NA,NA,NA,1,7,"15,13,9,10,7,3,5,6,11,12,8,4,2,14,1"
14515,commdev-image-keyboard-response,499,1337149,learnblock2,717.5999999940395,img/planet15_left.png,15,Community 1,NA,TRUE,f,f,NA,NA,NA,1,7,"15,13,9,10,7,3,5,6,11,12,8,4,2,14,1"
14515,commdev-image-keyboard-response,500,1338404,learnblock2,719.7000000029802,img/planet7_left.png,7,Community 1,NA,TRUE,f,f,NA,NA,NA,1,7,"15,13,9,10,7,3,5,6,11,12,8,4,2,14,1"
14515,commdev-image-keyboard-response,501,1339657,learnblock2,727.8000000119209,img/planet8_left.png,8,Community 3,NA,TRUE,f,f,NA,NA,NA,1,7,"15,13,9,10,7,3,5,6,11,12,8,4,2,14,1"
14515,commdev-image-keyboard-response,502,1340910,learnblock2,557.0999999940395,img/planet2_right.png,2,Community 3,NA,TRUE,j,j,NA,NA,NA,1,7,"15,13,9,10,7,3,5,6,11,12,8,4,2,14,1"
14515,commdev-image-keyboard-response,503,1342163,learnblock2,803.5,img/planet4_left.png,4,Community 3,NA,TRUE,f,f,NA,NA,NA,1,7,"15,13,9,10,7,3,5,6,11,12,8,4,2,14,1"
14515,commdev-image-keyboard-response,504,1343417,learnblock2,847.6000000089407,img/planet2_left.png,2,Community 3,NA,TRUE,f,f,NA,NA,NA,1,7,"15,13,9,10,7,3,5,6,11,12,8,4,2,14,1"
14515,commdev-image-keyboard-response,505,1344670,learnblock2,696.3999999910593,img/planet4_left.png,4,Community 3,NA,TRUE,f,f,NA,NA,NA,1,7,"15,13,9,10,7,3,5,6,11,12,8,4,2,14,1"
14515,commdev-image-keyboard-response,506,1345924,learnblock2,695.7000000029802,img/planet14_right.png,14,Community 3,NA,TRUE,j,j,NA,NA,NA,1,7,"15,13,9,10,7,3,5,6,11,12,8,4,2,14,1"
14515,commdev-image-keyboard-response,507,1347177,learnblock2,627.5,img/planet2_left.png,2,Community 3,NA,TRUE,f,f,NA,NA,NA,1,7,"15,13,9,10,7,3,5,6,11,12,8,4,2,14,1"
14515,commdev-image-keyboard-response,508,1348430,learnblock2,591.2999999970198,img/planet14_right.png,14,Community 3,NA,TRUE,j,j,NA,NA,NA,1,7,"15,13,9,10,7,3,5,6,11,12,8,4,2,14,1"
14515,commdev-image-keyboard-response,509,1349683,learnblock2,673.4000000059605,img/planet2_right.png,2,Community 3,NA,TRUE,j,j,NA,NA,NA,1,7,"15,13,9,10,7,3,5,6,11,12,8,4,2,14,1"
14515,commdev-image-keyboard-response,510,1350936,learnblock2,694.1000000089407,img/planet14_right.png,14,Community 3,NA,TRUE,j,j,NA,NA,NA,1,7,"15,13,9,10,7,3,5,6,11,12,8,4,2,14,1"
14515,commdev-image-keyboard-response,511,1352190,learnblock2,574.4000000059605,img/planet4_right.png,4,Community 3,NA,TRUE,j,j,NA,NA,NA,1,7,"15,13,9,10,7,3,5,6,11,12,8,4,2,14,1"
14515,commdev-image-keyboard-response,512,1353443,learnblock2,553.5999999940395,img/planet6_right.png,6,Community 2,NA,TRUE,j,j,NA,NA,NA,1,7,"15,13,9,10,7,3,5,6,11,12,8,4,2,14,1"
14515,commdev-image-keyboard-response,513,1354696,learnblock2,520.9000000059605,img/planet11_right.png,11,Community 2,NA,TRUE,j,j,NA,NA,NA,1,7,"15,13,9,10,7,3,5,6,11,12,8,4,2,14,1"
14515,commdev-image-keyboard-response,514,1355949,learnblock2,786,img/planet6_left.png,6,Community 2,NA,TRUE,f,f,NA,NA,NA,1,7,"15,13,9,10,7,3,5,6,11,12,8,4,2,14,1"
14515,commdev-image-keyboard-response,515,1357202,learnblock2,529.7000000029802,img/planet12_right.png,12,Community 2,NA,TRUE,j,j,NA,NA,NA,1,7,"15,13,9,10,7,3,5,6,11,12,8,4,2,14,1"
14515,commdev-image-keyboard-response,516,1358455,learnblock2,721.5,img/planet11_left.png,11,Community 2,NA,TRUE,f,f,NA,NA,NA,1,7,"15,13,9,10,7,3,5,6,11,12,8,4,2,14,1"
14515,commdev-image-keyboard-response,517,1359709,learnblock2,519.5,img/planet5_right.png,5,Community 2,NA,TRUE,j,j,NA,NA,NA,1,7,"15,13,9,10,7,3,5,6,11,12,8,4,2,14,1"
14515,commdev-image-keyboard-response,518,1360963,learnblock2,678.2000000029802,img/planet11_left.png,11,Community 2,NA,TRUE,f,f,NA,NA,NA,1,7,"15,13,9,10,7,3,5,6,11,12,8,4,2,14,1"
14515,commdev-image-keyboard-response,519,1362217,learnblock2,510,img/planet6_right.png,6,Community 2,NA,TRUE,j,j,NA,NA,NA,1,7,"15,13,9,10,7,3,5,6,11,12,8,4,2,14,1"
14515,commdev-image-keyboard-response,520,1363471,learnblock2,635.9000000059605,img/planet11_right.png,11,Community 2,NA,TRUE,j,j,NA,NA,NA,1,7,"15,13,9,10,7,3,5,6,11,12,8,4,2,14,1"
14515,commdev-image-keyboard-response,521,1364724,learnblock2,536.7999999970198,img/planet5_right.png,5,Community 2,NA,TRUE,j,j,NA,NA,NA,1,7,"15,13,9,10,7,3,5,6,11,12,8,4,2,14,1"
14515,commdev-image-keyboard-response,522,1365977,learnblock2,687.7999999970198,img/planet6_left.png,6,Community 2,NA,TRUE,f,f,NA,NA,NA,1,7,"15,13,9,10,7,3,5,6,11,12,8,4,2,14,1"
14515,commdev-image-keyboard-response,523,1367229,learnblock2,535.7000000029802,img/planet11_right.png,11,Community 2,NA,TRUE,j,j,NA,NA,NA,1,7,"15,13,9,10,7,3,5,6,11,12,8,4,2,14,1"
14515,commdev-image-keyboard-response,524,1368482,learnblock2,668.1999999880791,img/planet3_left.png,3,Community 2,NA,TRUE,f,f,NA,NA,NA,1,7,"15,13,9,10,7,3,5,6,11,12,8,4,2,14,1"
14515,commdev-image-keyboard-response,525,1369736,learnblock2,621.9000000059605,img/planet11_left.png,11,Community 2,NA,TRUE,f,f,NA,NA,NA,1,7,"15,13,9,10,7,3,5,6,11,12,8,4,2,14,1"
14515,commdev-image-keyboard-response,526,1370988,learnblock2,600.0999999940395,img/planet12_left.png,12,Community 2,NA,TRUE,f,f,NA,NA,NA,1,7,"15,13,9,10,7,3,5,6,11,12,8,4,2,14,1"
14515,commdev-image-keyboard-response,527,1372241,learnblock2,623.5,img/planet3_right.png,3,Community 2,NA,TRUE,j,j,NA,NA,NA,1,7,"15,13,9,10,7,3,5,6,11,12,8,4,2,14,1"
14515,commdev-image-keyboard-response,528,1373494,learnblock2,649.5999999940395,img/planet12_right.png,12,Community 2,NA,TRUE,j,j,NA,NA,NA,1,7,"15,13,9,10,7,3,5,6,11,12,8,4,2,14,1"
14515,commdev-image-keyboard-response,529,1374748,learnblock2,660.4000000059605,img/planet3_left.png,3,Community 2,NA,TRUE,f,f,NA,NA,NA,1,7,"15,13,9,10,7,3,5,6,11,12,8,4,2,14,1"
14515,commdev-image-keyboard-response,530,1376001,learnblock2,682.7000000029802,img/planet10_left.png,10,Community 1,NA,TRUE,f,f,NA,NA,NA,1,7,"15,13,9,10,7,3,5,6,11,12,8,4,2,14,1"
14515,commdev-image-keyboard-response,531,1377255,learnblock2,559.6000000089407,img/planet3_right.png,3,Community 2,NA,TRUE,j,j,NA,NA,NA,1,7,"15,13,9,10,7,3,5,6,11,12,8,4,2,14,1"
14515,commdev-image-keyboard-response,532,1378507,learnblock2,563,img/planet12_right.png,12,Community 2,NA,TRUE,j,j,NA,NA,NA,1,7,"15,13,9,10,7,3,5,6,11,12,8,4,2,14,1"
14515,commdev-image-keyboard-response,533,1379761,learnblock2,778.5,img/planet3_right.png,3,Community 2,NA,TRUE,j,j,NA,NA,NA,1,7,"15,13,9,10,7,3,5,6,11,12,8,4,2,14,1"
14515,commdev-image-keyboard-response,534,1381013,learnblock2,684.9000000059605,img/planet5_left.png,5,Community 2,NA,TRUE,f,f,NA,NA,NA,1,7,"15,13,9,10,7,3,5,6,11,12,8,4,2,14,1"
14515,commdev-image-keyboard-response,535,1382266,learnblock2,729.5,img/planet11_left.png,11,Community 2,NA,TRUE,f,f,NA,NA,NA,1,7,"15,13,9,10,7,3,5,6,11,12,8,4,2,14,1"
14515,commdev-image-keyboard-response,536,1383519,learnblock2,642.8000000119209,img/planet6_left.png,6,Community 2,NA,TRUE,f,f,NA,NA,NA,1,7,"15,13,9,10,7,3,5,6,11,12,8,4,2,14,1"
14515,commdev-image-keyboard-response,537,1384772,learnblock2,852.8000000119209,img/planet11_left.png,11,Community 2,NA,TRUE,f,f,NA,NA,NA,1,7,"15,13,9,10,7,3,5,6,11,12,8,4,2,14,1"
14515,commdev-image-keyboard-response,538,1386024,learnblock2,553.5,img/planet6_right.png,6,Community 2,NA,FALSE,f,j,NA,NA,NA,1,7,"15,13,9,10,7,3,5,6,11,12,8,4,2,14,1"
14515,commdev-image-keyboard-response,539,1387278,learnblock2,768.7000000029802,img/planet4_left.png,4,Community 3,NA,TRUE,f,f,NA,NA,NA,1,7,"15,13,9,10,7,3,5,6,11,12,8,4,2,14,1"
14515,commdev-image-keyboard-response,540,1388530,learnblock2,680.6000000089407,img/planet14_left.png,14,Community 3,NA,TRUE,f,f,NA,NA,NA,1,7,"15,13,9,10,7,3,5,6,11,12,8,4,2,14,1"
14515,commdev-image-keyboard-response,541,1389784,learnblock2,649,img/planet4_left.png,4,Community 3,NA,TRUE,f,f,NA,NA,NA,1,7,"15,13,9,10,7,3,5,6,11,12,8,4,2,14,1"
14515,commdev-image-keyboard-response,542,1391037,learnblock2,604.7999999970198,img/planet1_left.png,1,Community 3,NA,TRUE,f,f,NA,NA,NA,1,7,"15,13,9,10,7,3,5,6,11,12,8,4,2,14,1"
14515,commdev-image-keyboard-response,543,1392290,learnblock2,648.8999999910593,img/planet14_left.png,14,Community 3,NA,TRUE,f,f,NA,NA,NA,1,7,"15,13,9,10,7,3,5,6,11,12,8,4,2,14,1"
14515,commdev-image-keyboard-response,544,1393542,learnblock2,559.2000000029802,img/planet1_left.png,1,Community 3,NA,TRUE,f,f,NA,NA,NA,1,7,"15,13,9,10,7,3,5,6,11,12,8,4,2,14,1"
14515,commdev-image-keyboard-response,545,1394796,learnblock2,591.5,img/planet14_left.png,14,Community 3,NA,TRUE,f,f,NA,NA,NA,1,7,"15,13,9,10,7,3,5,6,11,12,8,4,2,14,1"
14515,commdev-image-keyboard-response,546,1396049,learnblock2,520.5999999940395,img/planet1_left.png,1,Community 3,NA,TRUE,f,f,NA,NA,NA,1,7,"15,13,9,10,7,3,5,6,11,12,8,4,2,14,1"
14515,commdev-image-keyboard-response,547,1397302,learnblock2,739.0999999940395,img/planet8_right.png,8,Community 3,NA,TRUE,j,j,NA,NA,NA,1,7,"15,13,9,10,7,3,5,6,11,12,8,4,2,14,1"
14515,commdev-image-keyboard-response,548,1398554,learnblock2,513.4000000059605,img/planet1_right.png,1,Community 3,NA,TRUE,j,j,NA,NA,NA,1,7,"15,13,9,10,7,3,5,6,11,12,8,4,2,14,1"
14515,commdev-image-keyboard-response,549,1399808,learnblock2,508.79999999701977,img/planet4_right.png,4,Community 3,NA,TRUE,j,j,NA,NA,NA,1,7,"15,13,9,10,7,3,5,6,11,12,8,4,2,14,1"
14515,commdev-image-keyboard-response,550,1401061,learnblock2,568.7000000029802,img/planet6_right.png,6,Community 2,NA,TRUE,j,j,NA,NA,NA,1,7,"15,13,9,10,7,3,5,6,11,12,8,4,2,14,1"
14515,commdev-image-keyboard-response,551,1402314,learnblock2,618,img/planet11_left.png,11,Community 2,NA,TRUE,f,f,NA,NA,NA,1,7,"15,13,9,10,7,3,5,6,11,12,8,4,2,14,1"
14515,commdev-image-keyboard-response,552,1403567,learnblock2,1133.2999999970198,img/planet6_left.png,6,Community 2,NA,TRUE,f,f,NA,NA,NA,1,7,"15,13,9,10,7,3,5,6,11,12,8,4,2,14,1"
14515,commdev-image-keyboard-response,553,1404820,learnblock2,777.7000000029802,img/planet5_right.png,5,Community 2,NA,TRUE,j,j,NA,NA,NA,1,7,"15,13,9,10,7,3,5,6,11,12,8,4,2,14,1"
14515,commdev-image-keyboard-response,554,1406073,learnblock2,640.2000000029802,img/planet11_left.png,11,Community 2,NA,TRUE,f,f,NA,NA,NA,1,7,"15,13,9,10,7,3,5,6,11,12,8,4,2,14,1"
14515,commdev-image-keyboard-response,555,1407327,learnblock2,670.2999999970198,img/planet3_right.png,3,Community 2,NA,TRUE,j,j,NA,NA,NA,1,7,"15,13,9,10,7,3,5,6,11,12,8,4,2,14,1"
14515,commdev-image-keyboard-response,556,1408578,learnblock2,615.0999999940395,img/planet11_left.png,11,Community 2,NA,TRUE,f,f,NA,NA,NA,1,7,"15,13,9,10,7,3,5,6,11,12,8,4,2,14,1"
14515,commdev-image-keyboard-response,557,1409832,learnblock2,519.7000000029802,img/planet5_right.png,5,Community 2,NA,TRUE,j,j,NA,NA,NA,1,7,"15,13,9,10,7,3,5,6,11,12,8,4,2,14,1"
14515,commdev-image-keyboard-response,558,1411085,learnblock2,781.7999999970198,img/planet12_right.png,12,Community 2,NA,TRUE,j,j,NA,NA,NA,1,7,"15,13,9,10,7,3,5,6,11,12,8,4,2,14,1"
14515,commdev-image-keyboard-response,559,1412337,learnblock2,1124,img/planet11_right.png,11,Community 2,NA,TRUE,j,j,NA,NA,NA,1,7,"15,13,9,10,7,3,5,6,11,12,8,4,2,14,1"
14515,commdev-image-keyboard-response,560,1413590,learnblock2,729.5999999940395,img/planet6_right.png,6,Community 2,NA,TRUE,j,j,NA,NA,NA,1,7,"15,13,9,10,7,3,5,6,11,12,8,4,2,14,1"
14515,commdev-image-keyboard-response,561,1414844,learnblock2,525.2000000029802,img/planet5_right.png,5,Community 2,NA,TRUE,j,j,NA,NA,NA,1,7,"15,13,9,10,7,3,5,6,11,12,8,4,2,14,1"
14515,commdev-image-keyboard-response,562,1416097,learnblock2,736.3000000119209,img/planet12_right.png,12,Community 2,NA,TRUE,j,j,NA,NA,NA,1,7,"15,13,9,10,7,3,5,6,11,12,8,4,2,14,1"
14515,commdev-image-keyboard-response,563,1417350,learnblock2,701,img/planet6_right.png,6,Community 2,NA,TRUE,j,j,NA,NA,NA,1,7,"15,13,9,10,7,3,5,6,11,12,8,4,2,14,1"
14515,commdev-image-keyboard-response,564,1418602,learnblock2,566.1000000089407,img/planet5_right.png,5,Community 2,NA,TRUE,j,j,NA,NA,NA,1,7,"15,13,9,10,7,3,5,6,11,12,8,4,2,14,1"
14515,commdev-image-keyboard-response,565,1419855,learnblock2,673.7999999970198,img/planet3_left.png,3,Community 2,NA,TRUE,f,f,NA,NA,NA,1,7,"15,13,9,10,7,3,5,6,11,12,8,4,2,14,1"
14515,commdev-image-keyboard-response,566,1421108,learnblock2,589.2000000029802,img/planet12_right.png,12,Community 2,NA,TRUE,j,j,NA,NA,NA,1,7,"15,13,9,10,7,3,5,6,11,12,8,4,2,14,1"
14515,commdev-image-keyboard-response,567,1422362,learnblock2,1251.5999999940395,img/planet3_right.png,3,Community 2,NA,TRUE,j,j,NA,NA,NA,1,7,"15,13,9,10,7,3,5,6,11,12,8,4,2,14,1"
14515,commdev-image-keyboard-response,568,1423620,learnblock2,831.2999999970198,img/planet5_right.png,5,Community 2,NA,TRUE,j,j,NA,NA,NA,1,7,"15,13,9,10,7,3,5,6,11,12,8,4,2,14,1"
14515,commdev-image-keyboard-response,569,1424873,learnblock2,600,img/planet12_right.png,12,Community 2,NA,TRUE,j,j,NA,NA,NA,1,7,"15,13,9,10,7,3,5,6,11,12,8,4,2,14,1"
14515,commdev-image-keyboard-response,570,1426127,learnblock2,null,img/planet11_right.png,11,Community 2,NA,FALSE,null,j,NA,NA,NA,1,7,"15,13,9,10,7,3,5,6,11,12,8,4,2,14,1"
14515,commdev-image-keyboard-response,571,1427380,learnblock2,136.3999999910593,img/planet12_left.png,12,Community 2,NA,FALSE,j,f,NA,NA,NA,1,7,"15,13,9,10,7,3,5,6,11,12,8,4,2,14,1"
14515,commdev-image-keyboard-response,572,1428633,learnblock2,685.4000000059605,img/planet3_right.png,3,Community 2,NA,TRUE,j,j,NA,NA,NA,1,7,"15,13,9,10,7,3,5,6,11,12,8,4,2,14,1"
14515,commdev-image-keyboard-response,573,1429885,learnblock2,1144.2000000029802,img/planet10_right.png,10,Community 1,NA,TRUE,j,j,NA,NA,NA,1,7,"15,13,9,10,7,3,5,6,11,12,8,4,2,14,1"
14515,commdev-image-keyboard-response,574,1431137,learnblock2,771.2000000029802,img/planet3_left.png,3,Community 2,NA,TRUE,f,f,NA,NA,NA,1,7,"15,13,9,10,7,3,5,6,11,12,8,4,2,14,1"
14515,commdev-image-keyboard-response,575,1432390,learnblock2,709.1000000089407,img/planet10_left.png,10,Community 1,NA,TRUE,f,f,NA,NA,NA,1,7,"15,13,9,10,7,3,5,6,11,12,8,4,2,14,1"
14515,commdev-image-keyboard-response,576,1433643,learnblock2,657.1000000089407,img/planet15_left.png,15,Community 1,NA,TRUE,f,f,NA,NA,NA,1,7,"15,13,9,10,7,3,5,6,11,12,8,4,2,14,1"
14515,commdev-image-keyboard-response,577,1434897,learnblock2,658.2999999970198,img/planet9_right.png,9,Community 1,NA,TRUE,j,j,NA,NA,NA,1,7,"15,13,9,10,7,3,5,6,11,12,8,4,2,14,1"
14515,commdev-image-keyboard-response,578,1436151,learnblock2,1160.1000000089407,img/planet15_right.png,15,Community 1,NA,TRUE,j,j,NA,NA,NA,1,7,"15,13,9,10,7,3,5,6,11,12,8,4,2,14,1"
14515,commdev-image-keyboard-response,579,1437404,learnblock2,836.0999999940395,img/planet13_left.png,13,Community 1,NA,TRUE,f,f,NA,NA,NA,1,7,"15,13,9,10,7,3,5,6,11,12,8,4,2,14,1"
14515,commdev-image-keyboard-response,580,1438657,learnblock2,724,img/planet7_right.png,7,Community 1,NA,TRUE,j,j,NA,NA,NA,1,7,"15,13,9,10,7,3,5,6,11,12,8,4,2,14,1"
14515,commdev-image-keyboard-response,581,1439911,learnblock2,990.9000000059605,img/planet9_right.png,9,Community 1,NA,TRUE,j,j,NA,NA,NA,1,7,"15,13,9,10,7,3,5,6,11,12,8,4,2,14,1"
14515,commdev-image-keyboard-response,582,1441163,learnblock2,716.7999999970198,img/planet7_left.png,7,Community 1,NA,TRUE,f,f,NA,NA,NA,1,7,"15,13,9,10,7,3,5,6,11,12,8,4,2,14,1"
14515,commdev-image-keyboard-response,583,1442416,learnblock2,774.9000000059605,img/planet13_left.png,13,Community 1,NA,TRUE,f,f,NA,NA,NA,1,7,"15,13,9,10,7,3,5,6,11,12,8,4,2,14,1"
14515,commdev-image-keyboard-response,584,1443668,learnblock2,623.7999999970198,img/planet9_right.png,9,Community 1,NA,TRUE,j,j,NA,NA,NA,1,7,"15,13,9,10,7,3,5,6,11,12,8,4,2,14,1"
14515,commdev-image-keyboard-response,585,1444922,learnblock2,805.6999999880791,img/planet13_left.png,13,Community 1,NA,TRUE,f,f,NA,NA,NA,1,7,"15,13,9,10,7,3,5,6,11,12,8,4,2,14,1"
14515,commdev-image-keyboard-response,586,1446175,learnblock2,644,img/planet10_left.png,10,Community 1,NA,TRUE,f,f,NA,NA,NA,1,7,"15,13,9,10,7,3,5,6,11,12,8,4,2,14,1"
14515,commdev-image-keyboard-response,587,1447428,learnblock2,651.3999999910593,img/planet9_right.png,9,Community 1,NA,TRUE,j,j,NA,NA,NA,1,7,"15,13,9,10,7,3,5,6,11,12,8,4,2,14,1"
14515,commdev-image-keyboard-response,588,1448680,learnblock2,1216.0999999940395,img/planet10_left.png,10,Community 1,NA,TRUE,f,f,NA,NA,NA,1,7,"15,13,9,10,7,3,5,6,11,12,8,4,2,14,1"
14515,commdev-image-keyboard-response,589,1449933,learnblock2,693.3999999910593,img/planet13_left.png,13,Community 1,NA,TRUE,f,f,NA,NA,NA,1,7,"15,13,9,10,7,3,5,6,11,12,8,4,2,14,1"
14515,commdev-image-keyboard-response,590,1451186,learnblock2,835.2000000029802,img/planet10_left.png,10,Community 1,NA,TRUE,f,f,NA,NA,NA,1,7,"15,13,9,10,7,3,5,6,11,12,8,4,2,14,1"
14515,commdev-image-keyboard-response,591,1452440,learnblock2,620.1999999880791,img/planet3_left.png,3,Community 2,NA,TRUE,f,f,NA,NA,NA,1,7,"15,13,9,10,7,3,5,6,11,12,8,4,2,14,1"
14515,commdev-image-keyboard-response,592,1453692,learnblock2,812.0999999940395,img/planet5_right.png,5,Community 2,NA,TRUE,j,j,NA,NA,NA,1,7,"15,13,9,10,7,3,5,6,11,12,8,4,2,14,1"
14515,commdev-image-keyboard-response,593,1454945,learnblock2,1227.0999999940395,img/planet12_right.png,12,Community 2,NA,TRUE,j,j,NA,NA,NA,1,7,"15,13,9,10,7,3,5,6,11,12,8,4,2,14,1"
14515,commdev-image-keyboard-response,594,1456199,learnblock2,925.9000000059605,img/planet11_right.png,11,Community 2,NA,TRUE,j,j,NA,NA,NA,1,7,"15,13,9,10,7,3,5,6,11,12,8,4,2,14,1"
14515,commdev-image-keyboard-response,595,1457452,learnblock2,658.0999999940395,img/planet6_right.png,6,Community 2,NA,TRUE,j,j,NA,NA,NA,1,7,"15,13,9,10,7,3,5,6,11,12,8,4,2,14,1"
14515,commdev-image-keyboard-response,596,1458705,learnblock2,812.5,img/planet4_right.png,4,Community 3,NA,TRUE,j,j,NA,NA,NA,1,7,"15,13,9,10,7,3,5,6,11,12,8,4,2,14,1"
14515,commdev-image-keyboard-response,597,1459959,learnblock2,630,img/planet2_left.png,2,Community 3,NA,TRUE,f,f,NA,NA,NA,1,7,"15,13,9,10,7,3,5,6,11,12,8,4,2,14,1"
14515,commdev-image-keyboard-response,598,1461212,learnblock2,793.4000000059605,img/planet8_right.png,8,Community 3,NA,TRUE,j,j,NA,NA,NA,1,7,"15,13,9,10,7,3,5,6,11,12,8,4,2,14,1"
14515,commdev-image-keyboard-response,599,1462466,learnblock2,653.2000000029802,img/planet7_left.png,7,Community 1,NA,TRUE,f,f,NA,NA,NA,1,7,"15,13,9,10,7,3,5,6,11,12,8,4,2,14,1"
14515,commdev-image-keyboard-response,600,1463719,learnblock2,620.2000000029802,img/planet13_right.png,13,Community 1,NA,TRUE,j,j,NA,NA,NA,1,7,"15,13,9,10,7,3,5,6,11,12,8,4,2,14,1"
14515,commdev-image-keyboard-response,601,1464972,learnblock2,903.5999999940395,img/planet7_right.png,7,Community 1,NA,TRUE,j,j,NA,NA,NA,1,7,"15,13,9,10,7,3,5,6,11,12,8,4,2,14,1"
14515,commdev-image-keyboard-response,602,1466225,learnblock2,null,img/planet8_right.png,8,Community 3,NA,FALSE,null,j,NA,NA,NA,1,7,"15,13,9,10,7,3,5,6,11,12,8,4,2,14,1"
14515,commdev-image-keyboard-response,603,1467479,learnblock2,116.6000000089407,img/planet14_left.png,14,Community 3,NA,FALSE,j,f,NA,NA,NA,1,7,"15,13,9,10,7,3,5,6,11,12,8,4,2,14,1"
14515,commdev-image-keyboard-response,604,1468731,learnblock2,589.3999999910593,img/planet2_right.png,2,Community 3,NA,TRUE,j,j,NA,NA,NA,1,7,"15,13,9,10,7,3,5,6,11,12,8,4,2,14,1"
14515,commdev-image-keyboard-response,605,1469984,learnblock2,880.0999999940395,img/planet1_left.png,1,Community 3,NA,TRUE,f,f,NA,NA,NA,1,7,"15,13,9,10,7,3,5,6,11,12,8,4,2,14,1"
14515,commdev-image-keyboard-response,606,1471238,learnblock2,630.7999999970198,img/planet8_right.png,8,Community 3,NA,TRUE,j,j,NA,NA,NA,1,7,"15,13,9,10,7,3,5,6,11,12,8,4,2,14,1"
14515,commdev-image-keyboard-response,607,1472491,learnblock2,722.7000000029802,img/planet14_left.png,14,Community 3,NA,TRUE,f,f,NA,NA,NA,1,7,"15,13,9,10,7,3,5,6,11,12,8,4,2,14,1"
14515,commdev-image-keyboard-response,608,1473744,learnblock2,716.7999999970198,img/planet4_left.png,4,Community 3,NA,TRUE,f,f,NA,NA,NA,1,7,"15,13,9,10,7,3,5,6,11,12,8,4,2,14,1"
14515,commdev-image-keyboard-response,609,1474996,learnblock2,585.7000000029802,img/planet1_left.png,1,Community 3,NA,TRUE,f,f,NA,NA,NA,1,7,"15,13,9,10,7,3,5,6,11,12,8,4,2,14,1"
14515,commdev-image-keyboard-response,610,1476250,learnblock2,623,img/planet14_right.png,14,Community 3,NA,TRUE,j,j,NA,NA,NA,1,7,"15,13,9,10,7,3,5,6,11,12,8,4,2,14,1"
14515,commdev-image-keyboard-response,611,1477503,learnblock2,628.4000000059605,img/planet2_left.png,2,Community 3,NA,TRUE,f,f,NA,NA,NA,1,7,"15,13,9,10,7,3,5,6,11,12,8,4,2,14,1"
14515,commdev-image-keyboard-response,612,1478757,learnblock2,574,img/planet8_right.png,8,Community 3,NA,TRUE,j,j,NA,NA,NA,1,7,"15,13,9,10,7,3,5,6,11,12,8,4,2,14,1"
14515,commdev-image-keyboard-response,613,1480010,learnblock2,675.3000000119209,img/planet1_right.png,1,Community 3,NA,TRUE,j,j,NA,NA,NA,1,7,"15,13,9,10,7,3,5,6,11,12,8,4,2,14,1"
14515,commdev-image-keyboard-response,614,1481263,learnblock2,606.3999999910593,img/planet14_right.png,14,Community 3,NA,TRUE,j,j,NA,NA,NA,1,7,"15,13,9,10,7,3,5,6,11,12,8,4,2,14,1"
14515,commdev-image-keyboard-response,615,1482516,learnblock2,683.7999999970198,img/planet4_left.png,4,Community 3,NA,TRUE,f,f,NA,NA,NA,1,7,"15,13,9,10,7,3,5,6,11,12,8,4,2,14,1"
14515,commdev-image-keyboard-response,616,1483770,learnblock2,669.2999999970198,img/planet1_left.png,1,Community 3,NA,TRUE,f,f,NA,NA,NA,1,7,"15,13,9,10,7,3,5,6,11,12,8,4,2,14,1"
14515,commdev-image-keyboard-response,617,1485024,learnblock2,616.2000000029802,img/planet14_right.png,14,Community 3,NA,TRUE,j,j,NA,NA,NA,1,7,"15,13,9,10,7,3,5,6,11,12,8,4,2,14,1"
14515,commdev-image-keyboard-response,618,1486277,learnblock2,718.7999999970198,img/planet1_right.png,1,Community 3,NA,TRUE,j,j,NA,NA,NA,1,7,"15,13,9,10,7,3,5,6,11,12,8,4,2,14,1"
14515,commdev-image-keyboard-response,619,1487530,learnblock2,666.4000000059605,img/planet2_left.png,2,Community 3,NA,TRUE,f,f,NA,NA,NA,1,7,"15,13,9,10,7,3,5,6,11,12,8,4,2,14,1"
14515,commdev-image-keyboard-response,620,1488783,learnblock2,552,img/planet14_right.png,14,Community 3,NA,TRUE,j,j,NA,NA,NA,1,7,"15,13,9,10,7,3,5,6,11,12,8,4,2,14,1"
14515,commdev-image-keyboard-response,621,1490036,learnblock2,722.8999999910593,img/planet4_right.png,4,Community 3,NA,TRUE,j,j,NA,NA,NA,1,7,"15,13,9,10,7,3,5,6,11,12,8,4,2,14,1"
14515,commdev-image-keyboard-response,622,1491289,learnblock2,639.6999999880791,img/planet14_right.png,14,Community 3,NA,TRUE,j,j,NA,NA,NA,1,7,"15,13,9,10,7,3,5,6,11,12,8,4,2,14,1"
14515,commdev-image-keyboard-response,623,1492542,learnblock2,639.9000000059605,img/planet4_right.png,4,Community 3,NA,TRUE,j,j,NA,NA,NA,1,7,"15,13,9,10,7,3,5,6,11,12,8,4,2,14,1"
14515,commdev-image-keyboard-response,624,1493796,learnblock2,677.5,img/planet2_left.png,2,Community 3,NA,TRUE,f,f,NA,NA,NA,1,7,"15,13,9,10,7,3,5,6,11,12,8,4,2,14,1"
14515,commdev-image-keyboard-response,625,1495049,learnblock2,619.6999999880791,img/planet1_left.png,1,Community 3,NA,TRUE,f,f,NA,NA,NA,1,7,"15,13,9,10,7,3,5,6,11,12,8,4,2,14,1"
14515,commdev-image-keyboard-response,626,1496302,learnblock2,555.3999999910593,img/planet4_left.png,4,Community 3,NA,TRUE,f,f,NA,NA,NA,1,7,"15,13,9,10,7,3,5,6,11,12,8,4,2,14,1"
14515,commdev-image-keyboard-response,627,1497555,learnblock2,559.2000000029802,img/planet6_right.png,6,Community 2,NA,TRUE,j,j,NA,NA,NA,1,7,"15,13,9,10,7,3,5,6,11,12,8,4,2,14,1"
14515,commdev-image-keyboard-response,628,1498808,learnblock2,597.2999999970198,img/planet12_right.png,12,Community 2,NA,TRUE,j,j,NA,NA,NA,1,7,"15,13,9,10,7,3,5,6,11,12,8,4,2,14,1"
14515,commdev-image-keyboard-response,629,1500061,learnblock2,601.2999999970198,img/planet11_left.png,11,Community 2,NA,TRUE,f,f,NA,NA,NA,1,7,"15,13,9,10,7,3,5,6,11,12,8,4,2,14,1"
14515,commdev-image-keyboard-response,630,1501313,learnblock2,704.5,img/planet3_left.png,3,Community 2,NA,TRUE,f,f,NA,NA,NA,1,7,"15,13,9,10,7,3,5,6,11,12,8,4,2,14,1"
14515,commdev-image-keyboard-response,631,1502567,learnblock2,500.30000001192093,img/planet10_left.png,10,Community 1,NA,TRUE,f,f,NA,NA,NA,1,7,"15,13,9,10,7,3,5,6,11,12,8,4,2,14,1"
14515,commdev-image-keyboard-response,632,1503820,learnblock2,570,img/planet15_left.png,15,Community 1,NA,TRUE,f,f,NA,NA,NA,1,7,"15,13,9,10,7,3,5,6,11,12,8,4,2,14,1"
14515,commdev-image-keyboard-response,633,1505074,learnblock2,617.0999999940395,img/planet9_right.png,9,Community 1,NA,TRUE,j,j,NA,NA,NA,1,7,"15,13,9,10,7,3,5,6,11,12,8,4,2,14,1"
14515,commdev-image-keyboard-response,634,1506326,learnblock2,736.8000000119209,img/planet7_left.png,7,Community 1,NA,TRUE,f,f,NA,NA,NA,1,7,"15,13,9,10,7,3,5,6,11,12,8,4,2,14,1"
14515,commdev-image-keyboard-response,635,1507579,learnblock2,623,img/planet15_left.png,15,Community 1,NA,TRUE,f,f,NA,NA,NA,1,7,"15,13,9,10,7,3,5,6,11,12,8,4,2,14,1"
14515,commdev-image-keyboard-response,636,1508832,learnblock2,1060.7999999970198,img/planet9_left.png,9,Community 1,NA,TRUE,f,f,NA,NA,NA,1,7,"15,13,9,10,7,3,5,6,11,12,8,4,2,14,1"
14515,commdev-image-keyboard-response,637,1510085,learnblock2,786.9000000059605,img/planet7_left.png,7,Community 1,NA,TRUE,f,f,NA,NA,NA,1,7,"15,13,9,10,7,3,5,6,11,12,8,4,2,14,1"
14515,commdev-image-keyboard-response,638,1511337,learnblock2,708.5,img/planet8_left.png,8,Community 3,NA,TRUE,f,f,NA,NA,NA,1,7,"15,13,9,10,7,3,5,6,11,12,8,4,2,14,1"
14515,commdev-image-keyboard-response,639,1512590,learnblock2,668,img/planet7_left.png,7,Community 1,NA,TRUE,f,f,NA,NA,NA,1,7,"15,13,9,10,7,3,5,6,11,12,8,4,2,14,1"
14515,commdev-image-keyboard-response,640,1513844,learnblock2,911.3000000119209,img/planet9_left.png,9,Community 1,NA,TRUE,f,f,NA,NA,NA,1,7,"15,13,9,10,7,3,5,6,11,12,8,4,2,14,1"
14515,commdev-image-keyboard-response,641,1515097,learnblock2,615.3999999910593,img/planet7_left.png,7,Community 1,NA,TRUE,f,f,NA,NA,NA,1,7,"15,13,9,10,7,3,5,6,11,12,8,4,2,14,1"
14515,commdev-image-keyboard-response,642,1516350,learnblock2,620,img/planet13_right.png,13,Community 1,NA,TRUE,j,j,NA,NA,NA,1,7,"15,13,9,10,7,3,5,6,11,12,8,4,2,14,1"
