subject_id,trial_type,trial_index,time_elapsed,block,rt,stimulus,planet,community,response,correct,key_press,learning_correct_response,parse,init_locations,final_locations,browser_interactions,num_comp,planet_map
15142,commdev-instructions,7,781388,NA,2435.2999999523163,"<p>In this game, you are a scientist on board a space shuttle. </p><p> On each mission, you will visit planets all across the universe.</p><img src=""img/controlroom.jpg"" width=300vw>",NA,NA,NA,NA,NA,NA,NA,NA,NA,3,6,"13,8,3,6,12,15,9,1,14,5,11,2,7,4,10"
15142,commdev-instructions,8,784407,NA,944.3000000715256,"<p>Here are a few planets you might see:</p><img src=""img/practice1.png"" width=200vw><img src=""img/practice2.png"" width=200vw><img src=""img/practice3.png"" width=200vw>",NA,NA,NA,NA,NA,NA,NA,NA,NA,3,6,"13,8,3,6,12,15,9,1,14,5,11,2,7,4,10"
15142,commdev-instructions,9,793884,NA,2071.399999976158,"<p>Your job as a scientist is to record which direction the winds are moving on each planet.</p><p>There are two types of wind directions:</p><img src=""img/practice1_left.png"" width=200vw><img src=""img/practice1_right.png"" width=200vw>",NA,NA,NA,NA,NA,NA,NA,NA,NA,3,6,"13,8,3,6,12,15,9,1,14,5,11,2,7,4,10"
15142,commdev-instructions,10,800252,NA,1489.6000000238419,"<p>If the winds are moving this way, press the letter <strong>F</strong> on the keyboard as fast as you can.</p><img src=""img/leftwind.png"" width=250vw>",NA,NA,NA,NA,NA,NA,NA,NA,NA,3,6,"13,8,3,6,12,15,9,1,14,5,11,2,7,4,10"
15142,commdev-instructions,11,806550,NA,1788,"<p>If the winds are moving this way, press the letter <strong>J</strong> on the keyboard as fast as you can.</p><img src=""img/rightwind.png"" width=350vw>",NA,NA,NA,NA,NA,NA,NA,NA,NA,3,6,"13,8,3,6,12,15,9,1,14,5,11,2,7,4,10"
15142,commdev-instructions,12,812277,NA,1294.1000000238419,<p>You will have 1 second to respond. Try to respond before the time runs out!,NA,NA,NA,NA,NA,NA,NA,NA,NA,3,6,"13,8,3,6,12,15,9,1,14,5,11,2,7,4,10"
15142,commdev-instructions,13,820653,NA,2941,<p>The planets you will visit will look different from each other.</p><p>You should respond <strong>only</strong> based on wind direction.,NA,NA,NA,NA,NA,NA,NA,NA,NA,3,6,"13,8,3,6,12,15,9,1,14,5,11,2,7,4,10"
15142,commdev-instructions,14,830235,NA,4412.300000071526,"<p> Ready to start the practice round? </p><p> Remember, press <strong>F</strong> or <strong>J</strong> depending on the wind direction.<br><img src=""img/categorize_planet_example.png""",NA,NA,NA,NA,NA,NA,NA,NA,NA,3,6,"13,8,3,6,12,15,9,1,14,5,11,2,7,4,10"
15142,commdev-instructions,26,881023,NA,3623.7000000476837,"<p>Great, now try a short practice mission. </p><p> This time, you will have 1 second to respond and you won't know whether you pressed the right or wrong key for each planet.</p>",NA,NA,NA,NA,NA,NA,NA,NA,NA,3,6,"13,8,3,6,12,15,9,1,14,5,11,2,7,4,10"
15142,commdev-image-keyboard-response,27,882400,practice,460.39999997615814,img/practice4_left.png,NA,Number not found in mappings,NA,TRUE,f,f,NA,NA,NA,3,6,"13,8,3,6,12,15,9,1,14,5,11,2,7,4,10"
15142,commdev-image-keyboard-response,28,883653,practice,886.7999999523163,img/practice3_left.png,NA,Number not found in mappings,NA,TRUE,f,f,NA,NA,NA,3,6,"13,8,3,6,12,15,9,1,14,5,11,2,7,4,10"
15142,commdev-image-keyboard-response,29,884914,practice,600.7000000476837,img/practice4_right.png,NA,Number not found in mappings,NA,TRUE,j,j,NA,NA,NA,3,6,"13,8,3,6,12,15,9,1,14,5,11,2,7,4,10"
15142,commdev-image-keyboard-response,30,886179,practice,608.5,img/practice2_right.png,NA,Number not found in mappings,NA,TRUE,j,j,NA,NA,NA,3,6,"13,8,3,6,12,15,9,1,14,5,11,2,7,4,10"
15142,commdev-image-keyboard-response,31,887432,practice,555,img/practice3_right.png,NA,Number not found in mappings,NA,TRUE,j,j,NA,NA,NA,3,6,"13,8,3,6,12,15,9,1,14,5,11,2,7,4,10"
15142,commdev-image-keyboard-response,32,888689,practice,430.2000000476837,img/practice4_left.png,NA,Number not found in mappings,NA,TRUE,f,f,NA,NA,NA,3,6,"13,8,3,6,12,15,9,1,14,5,11,2,7,4,10"
15142,commdev-image-keyboard-response,33,889952,practice,487.39999997615814,img/practice1_right.png,NA,Number not found in mappings,NA,TRUE,j,j,NA,NA,NA,3,6,"13,8,3,6,12,15,9,1,14,5,11,2,7,4,10"
15142,commdev-image-keyboard-response,34,891209,practice,407.39999997615814,img/practice4_left.png,NA,Number not found in mappings,NA,TRUE,f,f,NA,NA,NA,3,6,"13,8,3,6,12,15,9,1,14,5,11,2,7,4,10"
15142,commdev-instructions,35,908557,NA,7787.100000023842,"<p>Great job with the practice round.</p><p>During real missions, you won't know whether you pressed the right or wrong key for each planet.</p><p>But between missions, we will tell you how you did overall.</p>",NA,NA,NA,NA,NA,NA,NA,NA,NA,3,6,"13,8,3,6,12,15,9,1,14,5,11,2,7,4,10"
15142,commdev-instructions,36,918510,NA,1711.3999999761581,<p>Try your best! You will be paid a bonus based on how many correct responses you make!</p><p>Responses that are too slow will not count toward your bonus.</p>,NA,NA,NA,NA,NA,NA,NA,NA,NA,3,6,"13,8,3,6,12,15,9,1,14,5,11,2,7,4,10"
15142,commdev-instructions,37,925493,NA,784.1999999284744,"<p>You are almost ready to start the real game.</p><p> First, we are going to ask you some questions about how the game works.</p>",NA,NA,NA,NA,NA,NA,NA,NA,NA,3,6,"13,8,3,6,12,15,9,1,14,5,11,2,7,4,10"
15142,commdev-instructions,46,1045521,NA,3885.0999999046326,"<p> Nice work! It is now time to start the real game.<p></p>You will go on two missions to record wind directions of different planets.<p></p>Each one will take about 5 minutes. You will get to take a break between missions.<p><p> Remember, press <strong>F</strong> or <strong>J</strong> depending on the wind direction. Good luck!<br><img src=""img/categorize_planet_example.png""",NA,NA,NA,NA,NA,NA,NA,NA,NA,3,6,"13,8,3,6,12,15,9,1,14,5,11,2,7,4,10"
15142,commdev-image-keyboard-response,48,1057979,learnblock1,708.8999999761581,img/planet9_left.png,9,Community 2,NA,TRUE,f,f,NA,NA,NA,3,6,"13,8,3,6,12,15,9,1,14,5,11,2,7,4,10"
15142,commdev-image-keyboard-response,49,1059232,learnblock1,635.6000000238419,img/planet15_left.png,15,Community 2,NA,TRUE,f,f,NA,NA,NA,3,6,"13,8,3,6,12,15,9,1,14,5,11,2,7,4,10"
15142,commdev-image-keyboard-response,50,1060485,learnblock1,580.6000000238419,img/planet14_right.png,14,Community 2,NA,TRUE,j,j,NA,NA,NA,3,6,"13,8,3,6,12,15,9,1,14,5,11,2,7,4,10"
15142,commdev-image-keyboard-response,51,1061741,learnblock1,618.7000000476837,img/planet15_right.png,15,Community 2,NA,TRUE,j,j,NA,NA,NA,3,6,"13,8,3,6,12,15,9,1,14,5,11,2,7,4,10"
15142,commdev-image-keyboard-response,52,1062999,learnblock1,514.7999999523163,img/planet14_right.png,14,Community 2,NA,TRUE,j,j,NA,NA,NA,3,6,"13,8,3,6,12,15,9,1,14,5,11,2,7,4,10"
15142,commdev-image-keyboard-response,53,1064251,learnblock1,532.1999999284744,img/planet1_right.png,1,Community 2,NA,TRUE,j,j,NA,NA,NA,3,6,"13,8,3,6,12,15,9,1,14,5,11,2,7,4,10"
15142,commdev-image-keyboard-response,54,1065507,learnblock1,541.5,img/planet14_right.png,14,Community 2,NA,TRUE,j,j,NA,NA,NA,3,6,"13,8,3,6,12,15,9,1,14,5,11,2,7,4,10"
15142,commdev-image-keyboard-response,55,1066758,learnblock1,550.2999999523163,img/planet5_right.png,5,Community 2,NA,TRUE,j,j,NA,NA,NA,3,6,"13,8,3,6,12,15,9,1,14,5,11,2,7,4,10"
15142,commdev-image-keyboard-response,56,1068017,learnblock1,501.60000002384186,img/planet1_right.png,1,Community 2,NA,TRUE,j,j,NA,NA,NA,3,6,"13,8,3,6,12,15,9,1,14,5,11,2,7,4,10"
15142,commdev-image-keyboard-response,57,1069277,learnblock1,549.8999999761581,img/planet9_left.png,9,Community 2,NA,TRUE,f,f,NA,NA,NA,3,6,"13,8,3,6,12,15,9,1,14,5,11,2,7,4,10"
15142,commdev-image-keyboard-response,58,1070529,learnblock1,544.3999999761581,img/planet1_right.png,1,Community 2,NA,TRUE,j,j,NA,NA,NA,3,6,"13,8,3,6,12,15,9,1,14,5,11,2,7,4,10"
15142,commdev-image-keyboard-response,59,1071780,learnblock1,577.8000000715256,img/planet2_left.png,2,Community 3,NA,TRUE,f,f,NA,NA,NA,3,6,"13,8,3,6,12,15,9,1,14,5,11,2,7,4,10"
15142,commdev-image-keyboard-response,60,1073032,learnblock1,533.1999999284744,img/planet10_right.png,10,Community 3,NA,TRUE,j,j,NA,NA,NA,3,6,"13,8,3,6,12,15,9,1,14,5,11,2,7,4,10"
15142,commdev-image-keyboard-response,61,1074283,learnblock1,542.6000000238419,img/planet11_right.png,11,Community 3,NA,TRUE,j,j,NA,NA,NA,3,6,"13,8,3,6,12,15,9,1,14,5,11,2,7,4,10"
15142,commdev-image-keyboard-response,62,1075535,learnblock1,760.5,img/planet7_left.png,7,Community 3,NA,TRUE,f,f,NA,NA,NA,3,6,"13,8,3,6,12,15,9,1,14,5,11,2,7,4,10"
15142,commdev-image-keyboard-response,63,1076788,learnblock1,542,img/planet11_right.png,11,Community 3,NA,TRUE,j,j,NA,NA,NA,3,6,"13,8,3,6,12,15,9,1,14,5,11,2,7,4,10"
15142,commdev-image-keyboard-response,64,1078040,learnblock1,519.8000000715256,img/planet10_right.png,10,Community 3,NA,TRUE,j,j,NA,NA,NA,3,6,"13,8,3,6,12,15,9,1,14,5,11,2,7,4,10"
15142,commdev-image-keyboard-response,65,1079291,learnblock1,518.7000000476837,img/planet11_right.png,11,Community 3,NA,TRUE,j,j,NA,NA,NA,3,6,"13,8,3,6,12,15,9,1,14,5,11,2,7,4,10"
15142,commdev-image-keyboard-response,66,1080542,learnblock1,578.2000000476837,img/planet7_left.png,7,Community 3,NA,TRUE,f,f,NA,NA,NA,3,6,"13,8,3,6,12,15,9,1,14,5,11,2,7,4,10"
15142,commdev-image-keyboard-response,67,1081794,learnblock1,486.5,img/planet2_left.png,2,Community 3,NA,TRUE,f,f,NA,NA,NA,3,6,"13,8,3,6,12,15,9,1,14,5,11,2,7,4,10"
15142,commdev-image-keyboard-response,68,1083045,learnblock1,486.2000000476837,img/planet7_left.png,7,Community 3,NA,TRUE,f,f,NA,NA,NA,3,6,"13,8,3,6,12,15,9,1,14,5,11,2,7,4,10"
15142,commdev-image-keyboard-response,69,1084297,learnblock1,465.10000002384186,img/planet10_right.png,10,Community 3,NA,TRUE,j,j,NA,NA,NA,3,6,"13,8,3,6,12,15,9,1,14,5,11,2,7,4,10"
15142,commdev-image-keyboard-response,70,1085548,learnblock1,495.2000000476837,img/planet2_left.png,2,Community 3,NA,TRUE,f,f,NA,NA,NA,3,6,"13,8,3,6,12,15,9,1,14,5,11,2,7,4,10"
15142,commdev-image-keyboard-response,71,1086799,learnblock1,465.40000009536743,img/planet10_right.png,10,Community 3,NA,TRUE,j,j,NA,NA,NA,3,6,"13,8,3,6,12,15,9,1,14,5,11,2,7,4,10"
15142,commdev-image-keyboard-response,72,1088051,learnblock1,498.5,img/planet7_left.png,7,Community 3,NA,TRUE,f,f,NA,NA,NA,3,6,"13,8,3,6,12,15,9,1,14,5,11,2,7,4,10"
15142,commdev-image-keyboard-response,73,1089302,learnblock1,627.3000000715256,img/planet4_left.png,4,Community 3,NA,TRUE,f,f,NA,NA,NA,3,6,"13,8,3,6,12,15,9,1,14,5,11,2,7,4,10"
15142,commdev-image-keyboard-response,74,1090553,learnblock1,557.9000000953674,img/planet7_right.png,7,Community 3,NA,TRUE,j,j,NA,NA,NA,3,6,"13,8,3,6,12,15,9,1,14,5,11,2,7,4,10"
15142,commdev-image-keyboard-response,75,1091805,learnblock1,474,img/planet10_right.png,10,Community 3,NA,TRUE,j,j,NA,NA,NA,3,6,"13,8,3,6,12,15,9,1,14,5,11,2,7,4,10"
15142,commdev-image-keyboard-response,76,1093056,learnblock1,458.60000002384186,img/planet2_left.png,2,Community 3,NA,TRUE,f,f,NA,NA,NA,3,6,"13,8,3,6,12,15,9,1,14,5,11,2,7,4,10"
15142,commdev-image-keyboard-response,77,1094308,learnblock1,487.5,img/planet7_left.png,7,Community 3,NA,TRUE,f,f,NA,NA,NA,3,6,"13,8,3,6,12,15,9,1,14,5,11,2,7,4,10"
15142,commdev-image-keyboard-response,78,1095560,learnblock1,557,img/planet4_left.png,4,Community 3,NA,TRUE,f,f,NA,NA,NA,3,6,"13,8,3,6,12,15,9,1,14,5,11,2,7,4,10"
15142,commdev-image-keyboard-response,79,1096812,learnblock1,439.09999990463257,img/planet2_right.png,2,Community 3,NA,TRUE,j,j,NA,NA,NA,3,6,"13,8,3,6,12,15,9,1,14,5,11,2,7,4,10"
15142,commdev-image-keyboard-response,80,1098066,learnblock1,438.10000002384186,img/planet1_left.png,1,Community 2,NA,TRUE,f,f,NA,NA,NA,3,6,"13,8,3,6,12,15,9,1,14,5,11,2,7,4,10"
15142,commdev-image-keyboard-response,81,1099318,learnblock1,503.1999999284744,img/planet14_right.png,14,Community 2,NA,TRUE,j,j,NA,NA,NA,3,6,"13,8,3,6,12,15,9,1,14,5,11,2,7,4,10"
15142,commdev-image-keyboard-response,82,1100569,learnblock1,412.10000002384186,img/planet1_right.png,1,Community 2,NA,TRUE,j,j,NA,NA,NA,3,6,"13,8,3,6,12,15,9,1,14,5,11,2,7,4,10"
15142,commdev-image-keyboard-response,83,1101821,learnblock1,436,img/planet14_left.png,14,Community 2,NA,TRUE,f,f,NA,NA,NA,3,6,"13,8,3,6,12,15,9,1,14,5,11,2,7,4,10"
15142,commdev-image-keyboard-response,84,1103072,learnblock1,471.2000000476837,img/planet1_left.png,1,Community 2,NA,TRUE,f,f,NA,NA,NA,3,6,"13,8,3,6,12,15,9,1,14,5,11,2,7,4,10"
15142,commdev-image-keyboard-response,85,1104323,learnblock1,471.1999999284744,img/planet5_left.png,5,Community 2,NA,TRUE,f,f,NA,NA,NA,3,6,"13,8,3,6,12,15,9,1,14,5,11,2,7,4,10"
15142,commdev-image-keyboard-response,86,1105574,learnblock1,436.3000000715256,img/planet9_right.png,9,Community 2,NA,TRUE,j,j,NA,NA,NA,3,6,"13,8,3,6,12,15,9,1,14,5,11,2,7,4,10"
15142,commdev-image-keyboard-response,87,1106825,learnblock1,437.10000002384186,img/planet5_right.png,5,Community 2,NA,TRUE,j,j,NA,NA,NA,3,6,"13,8,3,6,12,15,9,1,14,5,11,2,7,4,10"
15142,commdev-image-keyboard-response,88,1108087,learnblock1,418.2000000476837,img/planet9_left.png,9,Community 2,NA,TRUE,f,f,NA,NA,NA,3,6,"13,8,3,6,12,15,9,1,14,5,11,2,7,4,10"
15142,commdev-image-keyboard-response,89,1109338,learnblock1,362.2000000476837,img/planet5_right.png,5,Community 2,NA,TRUE,j,j,NA,NA,NA,3,6,"13,8,3,6,12,15,9,1,14,5,11,2,7,4,10"
15142,commdev-image-keyboard-response,90,1110590,learnblock1,376.89999997615814,img/planet14_right.png,14,Community 2,NA,TRUE,j,j,NA,NA,NA,3,6,"13,8,3,6,12,15,9,1,14,5,11,2,7,4,10"
15142,commdev-image-keyboard-response,91,1111841,learnblock1,439,img/planet1_left.png,1,Community 2,NA,TRUE,f,f,NA,NA,NA,3,6,"13,8,3,6,12,15,9,1,14,5,11,2,7,4,10"
15142,commdev-image-keyboard-response,92,1113094,learnblock1,446.2000000476837,img/planet5_right.png,5,Community 2,NA,TRUE,j,j,NA,NA,NA,3,6,"13,8,3,6,12,15,9,1,14,5,11,2,7,4,10"
15142,commdev-image-keyboard-response,93,1114346,learnblock1,498.10000002384186,img/planet9_right.png,9,Community 2,NA,TRUE,j,j,NA,NA,NA,3,6,"13,8,3,6,12,15,9,1,14,5,11,2,7,4,10"
15142,commdev-image-keyboard-response,94,1115597,learnblock1,427.89999997615814,img/planet15_left.png,15,Community 2,NA,TRUE,f,f,NA,NA,NA,3,6,"13,8,3,6,12,15,9,1,14,5,11,2,7,4,10"
15142,commdev-image-keyboard-response,95,1116848,learnblock1,447.89999997615814,img/planet9_left.png,9,Community 2,NA,TRUE,f,f,NA,NA,NA,3,6,"13,8,3,6,12,15,9,1,14,5,11,2,7,4,10"
15142,commdev-image-keyboard-response,96,1118099,learnblock1,352.39999997615814,img/planet5_left.png,5,Community 2,NA,TRUE,f,f,NA,NA,NA,3,6,"13,8,3,6,12,15,9,1,14,5,11,2,7,4,10"
15142,commdev-image-keyboard-response,97,1119351,learnblock1,414.7000000476837,img/planet1_right.png,1,Community 2,NA,TRUE,j,j,NA,NA,NA,3,6,"13,8,3,6,12,15,9,1,14,5,11,2,7,4,10"
15142,commdev-image-keyboard-response,98,1120604,learnblock1,452.39999997615814,img/planet14_left.png,14,Community 2,NA,TRUE,f,f,NA,NA,NA,3,6,"13,8,3,6,12,15,9,1,14,5,11,2,7,4,10"
15142,commdev-image-keyboard-response,99,1121856,learnblock1,402.5,img/planet5_left.png,5,Community 2,NA,TRUE,f,f,NA,NA,NA,3,6,"13,8,3,6,12,15,9,1,14,5,11,2,7,4,10"
15142,commdev-image-keyboard-response,100,1123109,learnblock1,342,img/planet9_left.png,9,Community 2,NA,TRUE,f,f,NA,NA,NA,3,6,"13,8,3,6,12,15,9,1,14,5,11,2,7,4,10"
15142,commdev-image-keyboard-response,101,1124361,learnblock1,471.10000002384186,img/planet14_left.png,14,Community 2,NA,TRUE,f,f,NA,NA,NA,3,6,"13,8,3,6,12,15,9,1,14,5,11,2,7,4,10"
15142,commdev-image-keyboard-response,102,1125612,learnblock1,398.89999997615814,img/planet1_right.png,1,Community 2,NA,TRUE,j,j,NA,NA,NA,3,6,"13,8,3,6,12,15,9,1,14,5,11,2,7,4,10"
15142,commdev-image-keyboard-response,103,1126864,learnblock1,390.8000000715256,img/planet14_left.png,14,Community 2,NA,TRUE,f,f,NA,NA,NA,3,6,"13,8,3,6,12,15,9,1,14,5,11,2,7,4,10"
15142,commdev-image-keyboard-response,104,1128116,learnblock1,462.40000009536743,img/planet9_right.png,9,Community 2,NA,TRUE,j,j,NA,NA,NA,3,6,"13,8,3,6,12,15,9,1,14,5,11,2,7,4,10"
15142,commdev-image-keyboard-response,105,1129368,learnblock1,395.6999999284744,img/planet1_right.png,1,Community 2,NA,TRUE,j,j,NA,NA,NA,3,6,"13,8,3,6,12,15,9,1,14,5,11,2,7,4,10"
15142,commdev-image-keyboard-response,106,1130621,learnblock1,442.6999999284744,img/planet5_right.png,5,Community 2,NA,TRUE,j,j,NA,NA,NA,3,6,"13,8,3,6,12,15,9,1,14,5,11,2,7,4,10"
15142,commdev-image-keyboard-response,107,1131881,learnblock1,376.39999997615814,img/planet9_left.png,9,Community 2,NA,TRUE,f,f,NA,NA,NA,3,6,"13,8,3,6,12,15,9,1,14,5,11,2,7,4,10"
15142,commdev-image-keyboard-response,108,1133132,learnblock1,411.7999999523163,img/planet15_right.png,15,Community 2,NA,TRUE,j,j,NA,NA,NA,3,6,"13,8,3,6,12,15,9,1,14,5,11,2,7,4,10"
15142,commdev-image-keyboard-response,109,1134384,learnblock1,421.60000002384186,img/planet9_right.png,9,Community 2,NA,TRUE,j,j,NA,NA,NA,3,6,"13,8,3,6,12,15,9,1,14,5,11,2,7,4,10"
15142,commdev-image-keyboard-response,110,1135642,learnblock1,451.90000009536743,img/planet5_left.png,5,Community 2,NA,TRUE,f,f,NA,NA,NA,3,6,"13,8,3,6,12,15,9,1,14,5,11,2,7,4,10"
15142,commdev-image-keyboard-response,111,1136893,learnblock1,475.3000000715256,img/planet1_left.png,1,Community 2,NA,TRUE,f,f,NA,NA,NA,3,6,"13,8,3,6,12,15,9,1,14,5,11,2,7,4,10"
15142,commdev-image-keyboard-response,112,1138144,learnblock1,424.60000002384186,img/planet9_right.png,9,Community 2,NA,TRUE,j,j,NA,NA,NA,3,6,"13,8,3,6,12,15,9,1,14,5,11,2,7,4,10"
15142,commdev-image-keyboard-response,113,1139396,learnblock1,425.10000002384186,img/planet14_left.png,14,Community 2,NA,TRUE,f,f,NA,NA,NA,3,6,"13,8,3,6,12,15,9,1,14,5,11,2,7,4,10"
15142,commdev-image-keyboard-response,114,1140648,learnblock1,361.89999997615814,img/planet9_right.png,9,Community 2,NA,TRUE,j,j,NA,NA,NA,3,6,"13,8,3,6,12,15,9,1,14,5,11,2,7,4,10"
15142,commdev-image-keyboard-response,115,1141900,learnblock1,371.3000000715256,img/planet14_left.png,14,Community 2,NA,TRUE,f,f,NA,NA,NA,3,6,"13,8,3,6,12,15,9,1,14,5,11,2,7,4,10"
15142,commdev-image-keyboard-response,116,1143151,learnblock1,443.1999999284744,img/planet9_left.png,9,Community 2,NA,TRUE,f,f,NA,NA,NA,3,6,"13,8,3,6,12,15,9,1,14,5,11,2,7,4,10"
15142,commdev-image-keyboard-response,117,1144403,learnblock1,415.2000000476837,img/planet5_right.png,5,Community 2,NA,TRUE,j,j,NA,NA,NA,3,6,"13,8,3,6,12,15,9,1,14,5,11,2,7,4,10"
15142,commdev-image-keyboard-response,118,1145655,learnblock1,467.2000000476837,img/planet9_right.png,9,Community 2,NA,TRUE,j,j,NA,NA,NA,3,6,"13,8,3,6,12,15,9,1,14,5,11,2,7,4,10"
15142,commdev-image-keyboard-response,119,1146908,learnblock1,552.7999999523163,img/planet15_right.png,15,Community 2,NA,TRUE,j,j,NA,NA,NA,3,6,"13,8,3,6,12,15,9,1,14,5,11,2,7,4,10"
15142,commdev-image-keyboard-response,120,1148160,learnblock1,865.8999999761581,img/planet6_right.png,6,Community 1,NA,TRUE,j,j,NA,NA,NA,3,6,"13,8,3,6,12,15,9,1,14,5,11,2,7,4,10"
15142,commdev-image-keyboard-response,121,1149411,learnblock1,574.1000000238419,img/planet3_left.png,3,Community 1,NA,TRUE,f,f,NA,NA,NA,3,6,"13,8,3,6,12,15,9,1,14,5,11,2,7,4,10"
15142,commdev-image-keyboard-response,122,1150662,learnblock1,513.8999999761581,img/planet12_left.png,12,Community 1,NA,TRUE,f,f,NA,NA,NA,3,6,"13,8,3,6,12,15,9,1,14,5,11,2,7,4,10"
15142,commdev-image-keyboard-response,123,1151917,learnblock1,477.7000000476837,img/planet3_right.png,3,Community 1,NA,TRUE,j,j,NA,NA,NA,3,6,"13,8,3,6,12,15,9,1,14,5,11,2,7,4,10"
15142,commdev-image-keyboard-response,124,1153169,learnblock1,520.5,img/planet6_left.png,6,Community 1,NA,FALSE,j,f,NA,NA,NA,3,6,"13,8,3,6,12,15,9,1,14,5,11,2,7,4,10"
15142,commdev-image-keyboard-response,125,1154421,learnblock1,506.5,img/planet8_right.png,8,Community 1,NA,TRUE,j,j,NA,NA,NA,3,6,"13,8,3,6,12,15,9,1,14,5,11,2,7,4,10"
15142,commdev-image-keyboard-response,126,1155674,learnblock1,486,img/planet13_left.png,13,Community 1,NA,TRUE,f,f,NA,NA,NA,3,6,"13,8,3,6,12,15,9,1,14,5,11,2,7,4,10"
15142,commdev-image-keyboard-response,127,1156927,learnblock1,565.2999999523163,img/planet12_left.png,12,Community 1,NA,TRUE,f,f,NA,NA,NA,3,6,"13,8,3,6,12,15,9,1,14,5,11,2,7,4,10"
15142,commdev-image-keyboard-response,128,1158178,learnblock1,468.09999990463257,img/planet8_right.png,8,Community 1,NA,TRUE,j,j,NA,NA,NA,3,6,"13,8,3,6,12,15,9,1,14,5,11,2,7,4,10"
15142,commdev-image-keyboard-response,129,1159430,learnblock1,481.2000000476837,img/planet12_right.png,12,Community 1,NA,TRUE,j,j,NA,NA,NA,3,6,"13,8,3,6,12,15,9,1,14,5,11,2,7,4,10"
15142,commdev-image-keyboard-response,130,1160681,learnblock1,638.7999999523163,img/planet8_right.png,8,Community 1,NA,TRUE,j,j,NA,NA,NA,3,6,"13,8,3,6,12,15,9,1,14,5,11,2,7,4,10"
15142,commdev-image-keyboard-response,131,1161936,learnblock1,484.40000009536743,img/planet6_left.png,6,Community 1,NA,TRUE,f,f,NA,NA,NA,3,6,"13,8,3,6,12,15,9,1,14,5,11,2,7,4,10"
15142,commdev-image-keyboard-response,132,1163189,learnblock1,508.60000002384186,img/planet8_right.png,8,Community 1,NA,TRUE,j,j,NA,NA,NA,3,6,"13,8,3,6,12,15,9,1,14,5,11,2,7,4,10"
15142,commdev-image-keyboard-response,133,1164441,learnblock1,519.8999999761581,img/planet3_right.png,3,Community 1,NA,TRUE,j,j,NA,NA,NA,3,6,"13,8,3,6,12,15,9,1,14,5,11,2,7,4,10"
15142,commdev-image-keyboard-response,134,1165691,learnblock1,465.7000000476837,img/planet12_right.png,12,Community 1,NA,TRUE,j,j,NA,NA,NA,3,6,"13,8,3,6,12,15,9,1,14,5,11,2,7,4,10"
15142,commdev-image-keyboard-response,135,1166943,learnblock1,531,img/planet13_right.png,13,Community 1,NA,TRUE,j,j,NA,NA,NA,3,6,"13,8,3,6,12,15,9,1,14,5,11,2,7,4,10"
15142,commdev-image-keyboard-response,136,1168194,learnblock1,448.2999999523163,img/planet3_left.png,3,Community 1,NA,TRUE,f,f,NA,NA,NA,3,6,"13,8,3,6,12,15,9,1,14,5,11,2,7,4,10"
15142,commdev-image-keyboard-response,137,1169446,learnblock1,436.3000000715256,img/planet13_left.png,13,Community 1,NA,TRUE,f,f,NA,NA,NA,3,6,"13,8,3,6,12,15,9,1,14,5,11,2,7,4,10"
15142,commdev-image-keyboard-response,138,1170697,learnblock1,513.2999999523163,img/planet8_left.png,8,Community 1,NA,TRUE,f,f,NA,NA,NA,3,6,"13,8,3,6,12,15,9,1,14,5,11,2,7,4,10"
15142,commdev-image-keyboard-response,139,1171948,learnblock1,464.2000000476837,img/planet12_left.png,12,Community 1,NA,TRUE,f,f,NA,NA,NA,3,6,"13,8,3,6,12,15,9,1,14,5,11,2,7,4,10"
15142,commdev-image-keyboard-response,140,1173199,learnblock1,480.6999999284744,img/planet11_right.png,11,Community 3,NA,TRUE,j,j,NA,NA,NA,3,6,"13,8,3,6,12,15,9,1,14,5,11,2,7,4,10"
15142,commdev-image-keyboard-response,141,1174451,learnblock1,490.1999999284744,img/planet7_right.png,7,Community 3,NA,TRUE,j,j,NA,NA,NA,3,6,"13,8,3,6,12,15,9,1,14,5,11,2,7,4,10"
15142,commdev-image-keyboard-response,142,1175702,learnblock1,457,img/planet10_left.png,10,Community 3,NA,TRUE,f,f,NA,NA,NA,3,6,"13,8,3,6,12,15,9,1,14,5,11,2,7,4,10"
15142,commdev-image-keyboard-response,143,1176954,learnblock1,462.5,img/planet11_right.png,11,Community 3,NA,TRUE,j,j,NA,NA,NA,3,6,"13,8,3,6,12,15,9,1,14,5,11,2,7,4,10"
15142,commdev-image-keyboard-response,144,1178207,learnblock1,420.89999997615814,img/planet7_left.png,7,Community 3,NA,TRUE,f,f,NA,NA,NA,3,6,"13,8,3,6,12,15,9,1,14,5,11,2,7,4,10"
15142,commdev-image-keyboard-response,145,1179471,learnblock1,389,img/planet10_left.png,10,Community 3,NA,TRUE,f,f,NA,NA,NA,3,6,"13,8,3,6,12,15,9,1,14,5,11,2,7,4,10"
15142,commdev-image-keyboard-response,146,1180723,learnblock1,481.2000000476837,img/planet4_left.png,4,Community 3,NA,TRUE,f,f,NA,NA,NA,3,6,"13,8,3,6,12,15,9,1,14,5,11,2,7,4,10"
15142,commdev-image-keyboard-response,147,1181974,learnblock1,466.6999999284744,img/planet7_left.png,7,Community 3,NA,TRUE,f,f,NA,NA,NA,3,6,"13,8,3,6,12,15,9,1,14,5,11,2,7,4,10"
15142,commdev-image-keyboard-response,148,1183229,learnblock1,396.2999999523163,img/planet10_left.png,10,Community 3,NA,TRUE,f,f,NA,NA,NA,3,6,"13,8,3,6,12,15,9,1,14,5,11,2,7,4,10"
15142,commdev-image-keyboard-response,149,1184482,learnblock1,430.89999997615814,img/planet2_left.png,2,Community 3,NA,TRUE,f,f,NA,NA,NA,3,6,"13,8,3,6,12,15,9,1,14,5,11,2,7,4,10"
15142,commdev-image-keyboard-response,150,1185734,learnblock1,406.89999997615814,img/planet1_right.png,1,Community 2,NA,TRUE,j,j,NA,NA,NA,3,6,"13,8,3,6,12,15,9,1,14,5,11,2,7,4,10"
15142,commdev-image-keyboard-response,151,1186985,learnblock1,417.3000000715256,img/planet5_right.png,5,Community 2,NA,TRUE,j,j,NA,NA,NA,3,6,"13,8,3,6,12,15,9,1,14,5,11,2,7,4,10"
15142,commdev-image-keyboard-response,152,1188244,learnblock1,442.6999999284744,img/planet1_right.png,1,Community 2,NA,TRUE,j,j,NA,NA,NA,3,6,"13,8,3,6,12,15,9,1,14,5,11,2,7,4,10"
15142,commdev-image-keyboard-response,153,1189495,learnblock1,420.5,img/planet5_right.png,5,Community 2,NA,TRUE,j,j,NA,NA,NA,3,6,"13,8,3,6,12,15,9,1,14,5,11,2,7,4,10"
15142,commdev-image-keyboard-response,154,1190747,learnblock1,709.1000000238419,img/planet15_right.png,15,Community 2,NA,TRUE,j,j,NA,NA,NA,3,6,"13,8,3,6,12,15,9,1,14,5,11,2,7,4,10"
15142,commdev-image-keyboard-response,155,1192000,learnblock1,482.5,img/planet9_right.png,9,Community 2,NA,TRUE,j,j,NA,NA,NA,3,6,"13,8,3,6,12,15,9,1,14,5,11,2,7,4,10"
15142,commdev-image-keyboard-response,156,1193253,learnblock1,458.89999997615814,img/planet1_right.png,1,Community 2,NA,TRUE,j,j,NA,NA,NA,3,6,"13,8,3,6,12,15,9,1,14,5,11,2,7,4,10"
15142,commdev-image-keyboard-response,157,1194504,learnblock1,487.89999997615814,img/planet2_left.png,2,Community 3,NA,TRUE,f,f,NA,NA,NA,3,6,"13,8,3,6,12,15,9,1,14,5,11,2,7,4,10"
15142,commdev-image-keyboard-response,158,1195760,learnblock1,501.2999999523163,img/planet4_left.png,4,Community 3,NA,TRUE,f,f,NA,NA,NA,3,6,"13,8,3,6,12,15,9,1,14,5,11,2,7,4,10"
15142,commdev-image-keyboard-response,159,1197012,learnblock1,474,img/planet2_right.png,2,Community 3,NA,TRUE,j,j,NA,NA,NA,3,6,"13,8,3,6,12,15,9,1,14,5,11,2,7,4,10"
15142,commdev-image-keyboard-response,160,1198263,learnblock1,452.40000009536743,img/planet7_right.png,7,Community 3,NA,TRUE,j,j,NA,NA,NA,3,6,"13,8,3,6,12,15,9,1,14,5,11,2,7,4,10"
15142,commdev-image-keyboard-response,161,1199514,learnblock1,417.09999990463257,img/planet2_left.png,2,Community 3,NA,TRUE,f,f,NA,NA,NA,3,6,"13,8,3,6,12,15,9,1,14,5,11,2,7,4,10"
15142,commdev-image-keyboard-response,162,1200765,learnblock1,373.7000000476837,img/planet1_left.png,1,Community 2,NA,TRUE,f,f,NA,NA,NA,3,6,"13,8,3,6,12,15,9,1,14,5,11,2,7,4,10"
15142,commdev-image-keyboard-response,163,1202018,learnblock1,449.6999999284744,img/planet9_left.png,9,Community 2,NA,TRUE,f,f,NA,NA,NA,3,6,"13,8,3,6,12,15,9,1,14,5,11,2,7,4,10"
15142,commdev-image-keyboard-response,164,1203271,learnblock1,486.09999990463257,img/planet14_left.png,14,Community 2,NA,TRUE,f,f,NA,NA,NA,3,6,"13,8,3,6,12,15,9,1,14,5,11,2,7,4,10"
15142,commdev-image-keyboard-response,165,1204523,learnblock1,428.8000000715256,img/planet1_left.png,1,Community 2,NA,TRUE,f,f,NA,NA,NA,3,6,"13,8,3,6,12,15,9,1,14,5,11,2,7,4,10"
15142,commdev-image-keyboard-response,166,1205775,learnblock1,434.90000009536743,img/planet5_right.png,5,Community 2,NA,TRUE,j,j,NA,NA,NA,3,6,"13,8,3,6,12,15,9,1,14,5,11,2,7,4,10"
15142,commdev-image-keyboard-response,167,1207034,learnblock1,453.89999997615814,img/planet15_left.png,15,Community 2,NA,TRUE,f,f,NA,NA,NA,3,6,"13,8,3,6,12,15,9,1,14,5,11,2,7,4,10"
15142,commdev-image-keyboard-response,168,1208286,learnblock1,471.5,img/planet5_right.png,5,Community 2,NA,TRUE,j,j,NA,NA,NA,3,6,"13,8,3,6,12,15,9,1,14,5,11,2,7,4,10"
15142,commdev-image-keyboard-response,169,1209538,learnblock1,448.7000000476837,img/planet9_left.png,9,Community 2,NA,TRUE,f,f,NA,NA,NA,3,6,"13,8,3,6,12,15,9,1,14,5,11,2,7,4,10"
15142,commdev-image-keyboard-response,170,1210791,learnblock1,485.8000000715256,img/planet5_right.png,5,Community 2,NA,TRUE,j,j,NA,NA,NA,3,6,"13,8,3,6,12,15,9,1,14,5,11,2,7,4,10"
15142,commdev-image-keyboard-response,171,1212041,learnblock1,432.2000000476837,img/planet14_left.png,14,Community 2,NA,TRUE,f,f,NA,NA,NA,3,6,"13,8,3,6,12,15,9,1,14,5,11,2,7,4,10"
15142,commdev-image-keyboard-response,172,1213307,learnblock1,584.4000000953674,img/planet1_right.png,1,Community 2,NA,TRUE,j,j,NA,NA,NA,3,6,"13,8,3,6,12,15,9,1,14,5,11,2,7,4,10"
15142,commdev-image-keyboard-response,173,1214559,learnblock1,493.5,img/planet2_right.png,2,Community 3,NA,TRUE,j,j,NA,NA,NA,3,6,"13,8,3,6,12,15,9,1,14,5,11,2,7,4,10"
15142,commdev-image-keyboard-response,174,1215810,learnblock1,441.3000000715256,img/planet1_left.png,1,Community 2,NA,TRUE,f,f,NA,NA,NA,3,6,"13,8,3,6,12,15,9,1,14,5,11,2,7,4,10"
15142,commdev-image-keyboard-response,175,1217061,learnblock1,434.60000002384186,img/planet9_right.png,9,Community 2,NA,TRUE,j,j,NA,NA,NA,3,6,"13,8,3,6,12,15,9,1,14,5,11,2,7,4,10"
15142,commdev-image-keyboard-response,176,1218313,learnblock1,467.90000009536743,img/planet5_right.png,5,Community 2,NA,TRUE,j,j,NA,NA,NA,3,6,"13,8,3,6,12,15,9,1,14,5,11,2,7,4,10"
15142,commdev-image-keyboard-response,177,1219564,learnblock1,470.5,img/planet14_right.png,14,Community 2,NA,TRUE,j,j,NA,NA,NA,3,6,"13,8,3,6,12,15,9,1,14,5,11,2,7,4,10"
15142,commdev-image-keyboard-response,178,1220815,learnblock1,414.40000009536743,img/planet15_left.png,15,Community 2,NA,TRUE,f,f,NA,NA,NA,3,6,"13,8,3,6,12,15,9,1,14,5,11,2,7,4,10"
15142,commdev-image-keyboard-response,179,1222066,learnblock1,488.60000002384186,img/planet14_left.png,14,Community 2,NA,TRUE,f,f,NA,NA,NA,3,6,"13,8,3,6,12,15,9,1,14,5,11,2,7,4,10"
15142,commdev-image-keyboard-response,180,1223317,learnblock1,535,img/planet5_left.png,5,Community 2,NA,TRUE,f,f,NA,NA,NA,3,6,"13,8,3,6,12,15,9,1,14,5,11,2,7,4,10"
15142,commdev-image-keyboard-response,181,1224569,learnblock1,464.10000002384186,img/planet15_right.png,15,Community 2,NA,TRUE,j,j,NA,NA,NA,3,6,"13,8,3,6,12,15,9,1,14,5,11,2,7,4,10"
15142,commdev-image-keyboard-response,182,1225821,learnblock1,448.40000009536743,img/planet14_right.png,14,Community 2,NA,TRUE,j,j,NA,NA,NA,3,6,"13,8,3,6,12,15,9,1,14,5,11,2,7,4,10"
15142,commdev-image-keyboard-response,183,1227073,learnblock1,420.7000000476837,img/planet5_left.png,5,Community 2,NA,TRUE,f,f,NA,NA,NA,3,6,"13,8,3,6,12,15,9,1,14,5,11,2,7,4,10"
15142,commdev-image-keyboard-response,184,1228325,learnblock1,467.2000000476837,img/planet1_right.png,1,Community 2,NA,TRUE,j,j,NA,NA,NA,3,6,"13,8,3,6,12,15,9,1,14,5,11,2,7,4,10"
15142,commdev-image-keyboard-response,185,1229577,learnblock1,418.1999999284744,img/planet2_right.png,2,Community 3,NA,TRUE,j,j,NA,NA,NA,3,6,"13,8,3,6,12,15,9,1,14,5,11,2,7,4,10"
15142,commdev-image-keyboard-response,186,1230828,learnblock1,405,img/planet10_right.png,10,Community 3,NA,TRUE,j,j,NA,NA,NA,3,6,"13,8,3,6,12,15,9,1,14,5,11,2,7,4,10"
15142,commdev-image-keyboard-response,187,1232080,learnblock1,517.8000000715256,img/planet7_left.png,7,Community 3,NA,TRUE,f,f,NA,NA,NA,3,6,"13,8,3,6,12,15,9,1,14,5,11,2,7,4,10"
15142,commdev-image-keyboard-response,188,1233332,learnblock1,431,img/planet10_right.png,10,Community 3,NA,TRUE,j,j,NA,NA,NA,3,6,"13,8,3,6,12,15,9,1,14,5,11,2,7,4,10"
15142,commdev-image-keyboard-response,189,1234583,learnblock1,464.2000000476837,img/planet7_left.png,7,Community 3,NA,TRUE,f,f,NA,NA,NA,3,6,"13,8,3,6,12,15,9,1,14,5,11,2,7,4,10"
15142,commdev-image-keyboard-response,190,1235836,learnblock1,385.7999999523163,img/planet10_right.png,10,Community 3,NA,TRUE,j,j,NA,NA,NA,3,6,"13,8,3,6,12,15,9,1,14,5,11,2,7,4,10"
15142,commdev-image-keyboard-response,191,1237100,learnblock1,485,img/planet4_right.png,4,Community 3,NA,TRUE,j,j,NA,NA,NA,3,6,"13,8,3,6,12,15,9,1,14,5,11,2,7,4,10"
15142,commdev-image-keyboard-response,192,1238352,learnblock1,486.1999999284744,img/planet7_right.png,7,Community 3,NA,TRUE,j,j,NA,NA,NA,3,6,"13,8,3,6,12,15,9,1,14,5,11,2,7,4,10"
15142,commdev-image-keyboard-response,193,1239616,learnblock1,404.5,img/planet2_right.png,2,Community 3,NA,TRUE,j,j,NA,NA,NA,3,6,"13,8,3,6,12,15,9,1,14,5,11,2,7,4,10"
15142,commdev-image-keyboard-response,194,1240868,learnblock1,530.6000000238419,img/planet7_left.png,7,Community 3,NA,TRUE,f,f,NA,NA,NA,3,6,"13,8,3,6,12,15,9,1,14,5,11,2,7,4,10"
15142,commdev-image-keyboard-response,195,1242120,learnblock1,369.3000000715256,img/planet2_right.png,2,Community 3,NA,TRUE,j,j,NA,NA,NA,3,6,"13,8,3,6,12,15,9,1,14,5,11,2,7,4,10"
15142,commdev-image-keyboard-response,196,1243371,learnblock1,381.7000000476837,img/planet1_left.png,1,Community 2,NA,TRUE,f,f,NA,NA,NA,3,6,"13,8,3,6,12,15,9,1,14,5,11,2,7,4,10"
15142,commdev-image-keyboard-response,197,1244624,learnblock1,425.40000009536743,img/planet5_right.png,5,Community 2,NA,TRUE,j,j,NA,NA,NA,3,6,"13,8,3,6,12,15,9,1,14,5,11,2,7,4,10"
15142,commdev-image-keyboard-response,198,1245876,learnblock1,414.09999990463257,img/planet1_right.png,1,Community 2,NA,TRUE,j,j,NA,NA,NA,3,6,"13,8,3,6,12,15,9,1,14,5,11,2,7,4,10"
15142,commdev-image-keyboard-response,199,1247128,learnblock1,448.5,img/planet14_left.png,14,Community 2,NA,TRUE,f,f,NA,NA,NA,3,6,"13,8,3,6,12,15,9,1,14,5,11,2,7,4,10"
15142,commdev-image-keyboard-response,200,1248380,learnblock1,425.89999997615814,img/planet5_left.png,5,Community 2,NA,TRUE,f,f,NA,NA,NA,3,6,"13,8,3,6,12,15,9,1,14,5,11,2,7,4,10"
15142,commdev-image-keyboard-response,201,1249632,learnblock1,452.3000000715256,img/planet1_left.png,1,Community 2,NA,TRUE,f,f,NA,NA,NA,3,6,"13,8,3,6,12,15,9,1,14,5,11,2,7,4,10"
15142,commdev-image-keyboard-response,202,1250884,learnblock1,428.7999999523163,img/planet5_right.png,5,Community 2,NA,TRUE,j,j,NA,NA,NA,3,6,"13,8,3,6,12,15,9,1,14,5,11,2,7,4,10"
15142,commdev-image-keyboard-response,203,1252135,learnblock1,533.1000000238419,img/planet14_left.png,14,Community 2,NA,TRUE,f,f,NA,NA,NA,3,6,"13,8,3,6,12,15,9,1,14,5,11,2,7,4,10"
15142,commdev-image-keyboard-response,204,1253386,learnblock1,452,img/planet1_left.png,1,Community 2,NA,TRUE,f,f,NA,NA,NA,3,6,"13,8,3,6,12,15,9,1,14,5,11,2,7,4,10"
15142,commdev-image-keyboard-response,205,1254639,learnblock1,457.1999999284744,img/planet14_right.png,14,Community 2,NA,TRUE,j,j,NA,NA,NA,3,6,"13,8,3,6,12,15,9,1,14,5,11,2,7,4,10"
15142,commdev-image-keyboard-response,206,1255890,learnblock1,455,img/planet15_left.png,15,Community 2,NA,TRUE,f,f,NA,NA,NA,3,6,"13,8,3,6,12,15,9,1,14,5,11,2,7,4,10"
15142,commdev-image-keyboard-response,207,1257142,learnblock1,407.5,img/planet14_right.png,14,Community 2,NA,TRUE,j,j,NA,NA,NA,3,6,"13,8,3,6,12,15,9,1,14,5,11,2,7,4,10"
15142,commdev-image-keyboard-response,208,1258394,learnblock1,341.89999997615814,img/planet15_left.png,15,Community 2,NA,TRUE,f,f,NA,NA,NA,3,6,"13,8,3,6,12,15,9,1,14,5,11,2,7,4,10"
15142,commdev-image-keyboard-response,209,1259645,learnblock1,487,img/planet9_left.png,9,Community 2,NA,TRUE,f,f,NA,NA,NA,3,6,"13,8,3,6,12,15,9,1,14,5,11,2,7,4,10"
15142,commdev-image-keyboard-response,210,1260896,learnblock1,448.09999990463257,img/planet5_right.png,5,Community 2,NA,TRUE,j,j,NA,NA,NA,3,6,"13,8,3,6,12,15,9,1,14,5,11,2,7,4,10"
15142,commdev-image-keyboard-response,211,1262148,learnblock1,423.89999997615814,img/planet1_right.png,1,Community 2,NA,TRUE,j,j,NA,NA,NA,3,6,"13,8,3,6,12,15,9,1,14,5,11,2,7,4,10"
15142,commdev-image-keyboard-response,212,1263400,learnblock1,388.89999997615814,img/planet2_left.png,2,Community 3,NA,TRUE,f,f,NA,NA,NA,3,6,"13,8,3,6,12,15,9,1,14,5,11,2,7,4,10"
15142,commdev-image-keyboard-response,213,1264652,learnblock1,425.2999999523163,img/planet10_right.png,10,Community 3,NA,TRUE,j,j,NA,NA,NA,3,6,"13,8,3,6,12,15,9,1,14,5,11,2,7,4,10"
15142,commdev-image-keyboard-response,214,1265903,learnblock1,471.8000000715256,img/planet11_right.png,11,Community 3,NA,TRUE,j,j,NA,NA,NA,3,6,"13,8,3,6,12,15,9,1,14,5,11,2,7,4,10"
15142,commdev-image-keyboard-response,215,1267154,learnblock1,464.89999997615814,img/planet4_right.png,4,Community 3,NA,TRUE,j,j,NA,NA,NA,3,6,"13,8,3,6,12,15,9,1,14,5,11,2,7,4,10"
15142,commdev-image-keyboard-response,216,1268407,learnblock1,518,img/planet7_left.png,7,Community 3,NA,TRUE,f,f,NA,NA,NA,3,6,"13,8,3,6,12,15,9,1,14,5,11,2,7,4,10"
15142,commdev-image-keyboard-response,217,1269660,learnblock1,449.90000009536743,img/planet4_right.png,4,Community 3,NA,TRUE,j,j,NA,NA,NA,3,6,"13,8,3,6,12,15,9,1,14,5,11,2,7,4,10"
15142,commdev-image-keyboard-response,218,1270912,learnblock1,421.8000000715256,img/planet10_left.png,10,Community 3,NA,TRUE,f,f,NA,NA,NA,3,6,"13,8,3,6,12,15,9,1,14,5,11,2,7,4,10"
15142,commdev-image-keyboard-response,219,1272163,learnblock1,457.7999999523163,img/planet7_left.png,7,Community 3,NA,TRUE,f,f,NA,NA,NA,3,6,"13,8,3,6,12,15,9,1,14,5,11,2,7,4,10"
15142,commdev-image-keyboard-response,220,1273418,learnblock1,432.3000000715256,img/planet2_right.png,2,Community 3,NA,TRUE,j,j,NA,NA,NA,3,6,"13,8,3,6,12,15,9,1,14,5,11,2,7,4,10"
15142,commdev-image-keyboard-response,221,1274670,learnblock1,474.2999999523163,img/planet10_right.png,10,Community 3,NA,TRUE,j,j,NA,NA,NA,3,6,"13,8,3,6,12,15,9,1,14,5,11,2,7,4,10"
15142,commdev-image-keyboard-response,222,1275921,learnblock1,458.7000000476837,img/planet7_right.png,7,Community 3,NA,TRUE,j,j,NA,NA,NA,3,6,"13,8,3,6,12,15,9,1,14,5,11,2,7,4,10"
15142,commdev-image-keyboard-response,223,1277180,learnblock1,451,img/planet10_right.png,10,Community 3,NA,TRUE,j,j,NA,NA,NA,3,6,"13,8,3,6,12,15,9,1,14,5,11,2,7,4,10"
15142,commdev-image-keyboard-response,224,1278433,learnblock1,421.7000000476837,img/planet2_right.png,2,Community 3,NA,TRUE,j,j,NA,NA,NA,3,6,"13,8,3,6,12,15,9,1,14,5,11,2,7,4,10"
15142,commdev-image-keyboard-response,225,1279684,learnblock1,441.10000002384186,img/planet7_left.png,7,Community 3,NA,TRUE,f,f,NA,NA,NA,3,6,"13,8,3,6,12,15,9,1,14,5,11,2,7,4,10"
15142,commdev-image-keyboard-response,226,1280936,learnblock1,612,img/planet11_left.png,11,Community 3,NA,TRUE,f,f,NA,NA,NA,3,6,"13,8,3,6,12,15,9,1,14,5,11,2,7,4,10"
15142,commdev-image-keyboard-response,227,1282188,learnblock1,444.2999999523163,img/planet10_left.png,10,Community 3,NA,TRUE,f,f,NA,NA,NA,3,6,"13,8,3,6,12,15,9,1,14,5,11,2,7,4,10"
15142,commdev-image-keyboard-response,228,1283439,learnblock1,414.2000000476837,img/planet11_left.png,11,Community 3,NA,TRUE,f,f,NA,NA,NA,3,6,"13,8,3,6,12,15,9,1,14,5,11,2,7,4,10"
15142,commdev-image-keyboard-response,229,1284691,learnblock1,430.5,img/planet10_left.png,10,Community 3,NA,TRUE,f,f,NA,NA,NA,3,6,"13,8,3,6,12,15,9,1,14,5,11,2,7,4,10"
15142,commdev-image-keyboard-response,230,1285943,learnblock1,395.60000002384186,img/planet11_right.png,11,Community 3,NA,TRUE,j,j,NA,NA,NA,3,6,"13,8,3,6,12,15,9,1,14,5,11,2,7,4,10"
15142,commdev-image-keyboard-response,231,1287195,learnblock1,427.39999997615814,img/planet4_right.png,4,Community 3,NA,TRUE,j,j,NA,NA,NA,3,6,"13,8,3,6,12,15,9,1,14,5,11,2,7,4,10"
15142,commdev-image-keyboard-response,232,1288446,learnblock1,421.7000000476837,img/planet10_left.png,10,Community 3,NA,TRUE,f,f,NA,NA,NA,3,6,"13,8,3,6,12,15,9,1,14,5,11,2,7,4,10"
15142,commdev-image-keyboard-response,233,1289709,learnblock1,450.89999997615814,img/planet2_left.png,2,Community 3,NA,TRUE,f,f,NA,NA,NA,3,6,"13,8,3,6,12,15,9,1,14,5,11,2,7,4,10"
15142,commdev-image-keyboard-response,234,1290960,learnblock1,428.2000000476837,img/planet7_left.png,7,Community 3,NA,TRUE,f,f,NA,NA,NA,3,6,"13,8,3,6,12,15,9,1,14,5,11,2,7,4,10"
15142,commdev-image-keyboard-response,235,1292211,learnblock1,481.40000009536743,img/planet10_right.png,10,Community 3,NA,TRUE,j,j,NA,NA,NA,3,6,"13,8,3,6,12,15,9,1,14,5,11,2,7,4,10"
15142,commdev-image-keyboard-response,236,1293462,learnblock1,541.1000000238419,img/planet11_left.png,11,Community 3,NA,TRUE,f,f,NA,NA,NA,3,6,"13,8,3,6,12,15,9,1,14,5,11,2,7,4,10"
15142,commdev-image-keyboard-response,237,1294714,learnblock1,446.7999999523163,img/planet7_right.png,7,Community 3,NA,TRUE,j,j,NA,NA,NA,3,6,"13,8,3,6,12,15,9,1,14,5,11,2,7,4,10"
15142,commdev-image-keyboard-response,238,1295967,learnblock1,544.1000000238419,img/planet11_left.png,11,Community 3,NA,TRUE,f,f,NA,NA,NA,3,6,"13,8,3,6,12,15,9,1,14,5,11,2,7,4,10"
15142,commdev-image-keyboard-response,239,1297217,learnblock1,398.59999990463257,img/planet10_left.png,10,Community 3,NA,TRUE,f,f,NA,NA,NA,3,6,"13,8,3,6,12,15,9,1,14,5,11,2,7,4,10"
15142,commdev-image-keyboard-response,240,1298470,learnblock1,381.2999999523163,img/planet11_left.png,11,Community 3,NA,TRUE,f,f,NA,NA,NA,3,6,"13,8,3,6,12,15,9,1,14,5,11,2,7,4,10"
15142,commdev-image-keyboard-response,241,1299722,learnblock1,520.5,img/planet10_right.png,10,Community 3,NA,TRUE,j,j,NA,NA,NA,3,6,"13,8,3,6,12,15,9,1,14,5,11,2,7,4,10"
15142,commdev-image-keyboard-response,242,1300985,learnblock1,493.6999999284744,img/planet11_right.png,11,Community 3,NA,TRUE,j,j,NA,NA,NA,3,6,"13,8,3,6,12,15,9,1,14,5,11,2,7,4,10"
15142,commdev-image-keyboard-response,243,1302237,learnblock1,448.5,img/planet7_right.png,7,Community 3,NA,TRUE,j,j,NA,NA,NA,3,6,"13,8,3,6,12,15,9,1,14,5,11,2,7,4,10"
15142,commdev-image-keyboard-response,244,1303488,learnblock1,398.7000000476837,img/planet10_left.png,10,Community 3,NA,TRUE,f,f,NA,NA,NA,3,6,"13,8,3,6,12,15,9,1,14,5,11,2,7,4,10"
15142,commdev-image-keyboard-response,245,1304738,learnblock1,502.1999999284744,img/planet4_right.png,4,Community 3,NA,TRUE,j,j,NA,NA,NA,3,6,"13,8,3,6,12,15,9,1,14,5,11,2,7,4,10"
15142,commdev-image-keyboard-response,246,1305991,learnblock1,425.39999997615814,img/planet2_left.png,2,Community 3,NA,TRUE,f,f,NA,NA,NA,3,6,"13,8,3,6,12,15,9,1,14,5,11,2,7,4,10"
15142,commdev-image-keyboard-response,247,1307242,learnblock1,385.39999997615814,img/planet7_right.png,7,Community 3,NA,TRUE,j,j,NA,NA,NA,3,6,"13,8,3,6,12,15,9,1,14,5,11,2,7,4,10"
15142,commdev-image-keyboard-response,248,1308493,learnblock1,483.7000000476837,img/planet11_right.png,11,Community 3,NA,TRUE,j,j,NA,NA,NA,3,6,"13,8,3,6,12,15,9,1,14,5,11,2,7,4,10"
15142,commdev-image-keyboard-response,249,1309744,learnblock1,408.89999997615814,img/planet7_left.png,7,Community 3,NA,TRUE,f,f,NA,NA,NA,3,6,"13,8,3,6,12,15,9,1,14,5,11,2,7,4,10"
15142,commdev-image-keyboard-response,250,1310995,learnblock1,474.7000000476837,img/planet10_left.png,10,Community 3,NA,TRUE,f,f,NA,NA,NA,3,6,"13,8,3,6,12,15,9,1,14,5,11,2,7,4,10"
15142,commdev-image-keyboard-response,251,1312247,learnblock1,432.6999999284744,img/planet2_left.png,2,Community 3,NA,TRUE,f,f,NA,NA,NA,3,6,"13,8,3,6,12,15,9,1,14,5,11,2,7,4,10"
15142,commdev-image-keyboard-response,252,1313500,learnblock1,410.89999997615814,img/planet10_left.png,10,Community 3,NA,TRUE,f,f,NA,NA,NA,3,6,"13,8,3,6,12,15,9,1,14,5,11,2,7,4,10"
15142,commdev-image-keyboard-response,253,1314752,learnblock1,418.7000000476837,img/planet11_left.png,11,Community 3,NA,TRUE,f,f,NA,NA,NA,3,6,"13,8,3,6,12,15,9,1,14,5,11,2,7,4,10"
15142,commdev-image-keyboard-response,254,1316003,learnblock1,449.7999999523163,img/planet12_right.png,12,Community 1,NA,TRUE,j,j,NA,NA,NA,3,6,"13,8,3,6,12,15,9,1,14,5,11,2,7,4,10"
15142,commdev-image-keyboard-response,255,1317259,learnblock1,573.7999999523163,img/planet13_left.png,13,Community 1,NA,TRUE,f,f,NA,NA,NA,3,6,"13,8,3,6,12,15,9,1,14,5,11,2,7,4,10"
15142,commdev-image-keyboard-response,256,1318509,learnblock1,483.1999999284744,img/planet3_right.png,3,Community 1,NA,TRUE,j,j,NA,NA,NA,3,6,"13,8,3,6,12,15,9,1,14,5,11,2,7,4,10"
15142,commdev-image-keyboard-response,257,1319761,learnblock1,448.8000000715256,img/planet13_left.png,13,Community 1,NA,TRUE,f,f,NA,NA,NA,3,6,"13,8,3,6,12,15,9,1,14,5,11,2,7,4,10"
15142,commdev-image-keyboard-response,258,1321013,learnblock1,465.7999999523163,img/planet8_right.png,8,Community 1,NA,TRUE,j,j,NA,NA,NA,3,6,"13,8,3,6,12,15,9,1,14,5,11,2,7,4,10"
15142,commdev-image-keyboard-response,259,1322265,learnblock1,542.5,img/planet12_right.png,12,Community 1,NA,TRUE,j,j,NA,NA,NA,3,6,"13,8,3,6,12,15,9,1,14,5,11,2,7,4,10"
15142,commdev-image-keyboard-response,260,1323517,learnblock1,531.2000000476837,img/planet8_right.png,8,Community 1,NA,TRUE,j,j,NA,NA,NA,3,6,"13,8,3,6,12,15,9,1,14,5,11,2,7,4,10"
15142,commdev-image-keyboard-response,261,1324768,learnblock1,534,img/planet13_right.png,13,Community 1,NA,TRUE,j,j,NA,NA,NA,3,6,"13,8,3,6,12,15,9,1,14,5,11,2,7,4,10"
15142,commdev-image-keyboard-response,262,1326019,learnblock1,760,img/planet3_left.png,3,Community 1,NA,TRUE,f,f,NA,NA,NA,3,6,"13,8,3,6,12,15,9,1,14,5,11,2,7,4,10"
15142,commdev-image-keyboard-response,263,1327271,learnblock1,558.8999999761581,img/planet13_right.png,13,Community 1,NA,TRUE,j,j,NA,NA,NA,3,6,"13,8,3,6,12,15,9,1,14,5,11,2,7,4,10"
15142,commdev-image-keyboard-response,264,1328523,learnblock1,582.7999999523163,img/planet6_right.png,6,Community 1,NA,TRUE,j,j,NA,NA,NA,3,6,"13,8,3,6,12,15,9,1,14,5,11,2,7,4,10"
15142,commdev-image-keyboard-response,265,1329776,learnblock1,501.5,img/planet15_left.png,15,Community 2,NA,TRUE,f,f,NA,NA,NA,3,6,"13,8,3,6,12,15,9,1,14,5,11,2,7,4,10"
15142,commdev-image-keyboard-response,266,1331027,learnblock1,556.2000000476837,img/planet14_left.png,14,Community 2,NA,TRUE,f,f,NA,NA,NA,3,6,"13,8,3,6,12,15,9,1,14,5,11,2,7,4,10"
15142,commdev-image-keyboard-response,267,1332278,learnblock1,447.2999999523163,img/planet9_left.png,9,Community 2,NA,TRUE,f,f,NA,NA,NA,3,6,"13,8,3,6,12,15,9,1,14,5,11,2,7,4,10"
15142,commdev-image-keyboard-response,268,1333530,learnblock1,494.90000009536743,img/planet14_left.png,14,Community 2,NA,TRUE,f,f,NA,NA,NA,3,6,"13,8,3,6,12,15,9,1,14,5,11,2,7,4,10"
15142,commdev-image-keyboard-response,269,1334795,learnblock1,476.2999999523163,img/planet5_right.png,5,Community 2,NA,TRUE,j,j,NA,NA,NA,3,6,"13,8,3,6,12,15,9,1,14,5,11,2,7,4,10"
15142,commdev-image-keyboard-response,270,1336047,learnblock1,512,img/planet14_right.png,14,Community 2,NA,TRUE,j,j,NA,NA,NA,3,6,"13,8,3,6,12,15,9,1,14,5,11,2,7,4,10"
15142,commdev-image-keyboard-response,271,1337300,learnblock1,494.39999997615814,img/planet5_left.png,5,Community 2,NA,TRUE,f,f,NA,NA,NA,3,6,"13,8,3,6,12,15,9,1,14,5,11,2,7,4,10"
15142,commdev-image-keyboard-response,272,1338551,learnblock1,453.59999990463257,img/planet15_right.png,15,Community 2,NA,TRUE,j,j,NA,NA,NA,3,6,"13,8,3,6,12,15,9,1,14,5,11,2,7,4,10"
15142,commdev-image-keyboard-response,273,1339802,learnblock1,502.8000000715256,img/planet14_left.png,14,Community 2,NA,TRUE,f,f,NA,NA,NA,3,6,"13,8,3,6,12,15,9,1,14,5,11,2,7,4,10"
15142,commdev-image-keyboard-response,274,1341053,learnblock1,436.7000000476837,img/planet1_right.png,1,Community 2,NA,TRUE,j,j,NA,NA,NA,3,6,"13,8,3,6,12,15,9,1,14,5,11,2,7,4,10"
15142,commdev-image-keyboard-response,275,1342305,learnblock1,414.60000002384186,img/planet2_right.png,2,Community 3,NA,TRUE,j,j,NA,NA,NA,3,6,"13,8,3,6,12,15,9,1,14,5,11,2,7,4,10"
15142,commdev-image-keyboard-response,276,1343555,learnblock1,459.2000000476837,img/planet7_left.png,7,Community 3,NA,TRUE,f,f,NA,NA,NA,3,6,"13,8,3,6,12,15,9,1,14,5,11,2,7,4,10"
15142,commdev-image-keyboard-response,277,1344808,learnblock1,410.1999999284744,img/planet11_right.png,11,Community 3,NA,TRUE,j,j,NA,NA,NA,3,6,"13,8,3,6,12,15,9,1,14,5,11,2,7,4,10"
15142,commdev-image-keyboard-response,278,1346059,learnblock1,384.5,img/planet7_left.png,7,Community 3,NA,TRUE,f,f,NA,NA,NA,3,6,"13,8,3,6,12,15,9,1,14,5,11,2,7,4,10"
15142,commdev-image-keyboard-response,279,1347310,learnblock1,528.7000000476837,img/planet4_left.png,4,Community 3,NA,TRUE,f,f,NA,NA,NA,3,6,"13,8,3,6,12,15,9,1,14,5,11,2,7,4,10"
15142,commdev-image-keyboard-response,280,1348563,learnblock1,407.89999997615814,img/planet7_right.png,7,Community 3,NA,TRUE,j,j,NA,NA,NA,3,6,"13,8,3,6,12,15,9,1,14,5,11,2,7,4,10"
15142,commdev-image-keyboard-response,281,1349814,learnblock1,460.3000000715256,img/planet2_right.png,2,Community 3,NA,TRUE,j,j,NA,NA,NA,3,6,"13,8,3,6,12,15,9,1,14,5,11,2,7,4,10"
15142,commdev-image-keyboard-response,282,1351065,learnblock1,442.39999997615814,img/planet4_left.png,4,Community 3,NA,TRUE,f,f,NA,NA,NA,3,6,"13,8,3,6,12,15,9,1,14,5,11,2,7,4,10"
15142,commdev-image-keyboard-response,283,1352316,learnblock1,387.1999999284744,img/planet2_right.png,2,Community 3,NA,TRUE,j,j,NA,NA,NA,3,6,"13,8,3,6,12,15,9,1,14,5,11,2,7,4,10"
15142,commdev-image-keyboard-response,284,1353568,learnblock1,453.10000002384186,img/planet7_right.png,7,Community 3,NA,TRUE,j,j,NA,NA,NA,3,6,"13,8,3,6,12,15,9,1,14,5,11,2,7,4,10"
15142,commdev-image-keyboard-response,285,1354820,learnblock1,481.89999997615814,img/planet11_left.png,11,Community 3,NA,TRUE,f,f,NA,NA,NA,3,6,"13,8,3,6,12,15,9,1,14,5,11,2,7,4,10"
15142,commdev-image-keyboard-response,286,1356076,learnblock1,587.1999999284744,img/planet4_left.png,4,Community 3,NA,TRUE,f,f,NA,NA,NA,3,6,"13,8,3,6,12,15,9,1,14,5,11,2,7,4,10"
15142,commdev-image-keyboard-response,287,1357329,learnblock1,441,img/planet7_left.png,7,Community 3,NA,TRUE,f,f,NA,NA,NA,3,6,"13,8,3,6,12,15,9,1,14,5,11,2,7,4,10"
15142,commdev-image-keyboard-response,288,1358581,learnblock1,363.60000002384186,img/planet10_left.png,10,Community 3,NA,TRUE,f,f,NA,NA,NA,3,6,"13,8,3,6,12,15,9,1,14,5,11,2,7,4,10"
15142,commdev-image-keyboard-response,289,1359833,learnblock1,515.8000000715256,img/planet4_left.png,4,Community 3,NA,TRUE,f,f,NA,NA,NA,3,6,"13,8,3,6,12,15,9,1,14,5,11,2,7,4,10"
15142,commdev-image-keyboard-response,290,1361087,learnblock1,426.60000002384186,img/planet11_right.png,11,Community 3,NA,TRUE,j,j,NA,NA,NA,3,6,"13,8,3,6,12,15,9,1,14,5,11,2,7,4,10"
15142,commdev-image-keyboard-response,291,1362338,learnblock1,506.40000009536743,img/planet7_left.png,7,Community 3,NA,TRUE,f,f,NA,NA,NA,3,6,"13,8,3,6,12,15,9,1,14,5,11,2,7,4,10"
15142,commdev-image-keyboard-response,292,1363590,learnblock1,372.2000000476837,img/planet2_right.png,2,Community 3,NA,TRUE,j,j,NA,NA,NA,3,6,"13,8,3,6,12,15,9,1,14,5,11,2,7,4,10"
15142,commdev-image-keyboard-response,293,1364844,learnblock1,435.8000000715256,img/planet4_right.png,4,Community 3,NA,TRUE,j,j,NA,NA,NA,3,6,"13,8,3,6,12,15,9,1,14,5,11,2,7,4,10"
15142,commdev-image-keyboard-response,294,1366095,learnblock1,405.2000000476837,img/planet11_right.png,11,Community 3,NA,TRUE,j,j,NA,NA,NA,3,6,"13,8,3,6,12,15,9,1,14,5,11,2,7,4,10"
15142,commdev-image-keyboard-response,295,1367346,learnblock1,371.3000000715256,img/planet10_left.png,10,Community 3,NA,TRUE,f,f,NA,NA,NA,3,6,"13,8,3,6,12,15,9,1,14,5,11,2,7,4,10"
15142,commdev-image-keyboard-response,296,1368608,learnblock1,410.10000002384186,img/planet2_left.png,2,Community 3,NA,TRUE,f,f,NA,NA,NA,3,6,"13,8,3,6,12,15,9,1,14,5,11,2,7,4,10"
15142,commdev-image-keyboard-response,297,1369859,learnblock1,439.10000002384186,img/planet10_right.png,10,Community 3,NA,TRUE,j,j,NA,NA,NA,3,6,"13,8,3,6,12,15,9,1,14,5,11,2,7,4,10"
15142,commdev-image-keyboard-response,298,1371110,learnblock1,428,img/planet2_right.png,2,Community 3,NA,TRUE,j,j,NA,NA,NA,3,6,"13,8,3,6,12,15,9,1,14,5,11,2,7,4,10"
15142,commdev-image-keyboard-response,299,1372363,learnblock1,462.5,img/planet1_right.png,1,Community 2,NA,TRUE,j,j,NA,NA,NA,3,6,"13,8,3,6,12,15,9,1,14,5,11,2,7,4,10"
15142,commdev-image-keyboard-response,300,1373615,learnblock1,447.39999997615814,img/planet9_left.png,9,Community 2,NA,TRUE,f,f,NA,NA,NA,3,6,"13,8,3,6,12,15,9,1,14,5,11,2,7,4,10"
15142,commdev-image-keyboard-response,301,1374867,learnblock1,356.89999997615814,img/planet1_right.png,1,Community 2,NA,TRUE,j,j,NA,NA,NA,3,6,"13,8,3,6,12,15,9,1,14,5,11,2,7,4,10"
15142,commdev-image-keyboard-response,302,1376119,learnblock1,406.10000002384186,img/planet2_right.png,2,Community 3,NA,TRUE,j,j,NA,NA,NA,3,6,"13,8,3,6,12,15,9,1,14,5,11,2,7,4,10"
15142,commdev-image-keyboard-response,303,1377373,learnblock1,367.8000000715256,img/planet1_left.png,1,Community 2,NA,TRUE,f,f,NA,NA,NA,3,6,"13,8,3,6,12,15,9,1,14,5,11,2,7,4,10"
15142,commdev-image-keyboard-response,304,1378638,learnblock1,413.39999997615814,img/planet9_left.png,9,Community 2,NA,TRUE,f,f,NA,NA,NA,3,6,"13,8,3,6,12,15,9,1,14,5,11,2,7,4,10"
15142,commdev-image-keyboard-response,305,1379889,learnblock1,501.5,img/planet1_right.png,1,Community 2,NA,TRUE,j,j,NA,NA,NA,3,6,"13,8,3,6,12,15,9,1,14,5,11,2,7,4,10"
15142,commdev-image-keyboard-response,306,1381143,learnblock1,399.7999999523163,img/planet14_left.png,14,Community 2,NA,TRUE,f,f,NA,NA,NA,3,6,"13,8,3,6,12,15,9,1,14,5,11,2,7,4,10"
15142,commdev-image-keyboard-response,307,1382401,learnblock1,497.2999999523163,img/planet9_right.png,9,Community 2,NA,TRUE,j,j,NA,NA,NA,3,6,"13,8,3,6,12,15,9,1,14,5,11,2,7,4,10"
15142,commdev-image-keyboard-response,308,1383667,learnblock1,425.2999999523163,img/planet15_left.png,15,Community 2,NA,TRUE,f,f,NA,NA,NA,3,6,"13,8,3,6,12,15,9,1,14,5,11,2,7,4,10"
15142,commdev-image-keyboard-response,309,1384919,learnblock1,528.6000000238419,img/planet6_left.png,6,Community 1,NA,TRUE,f,f,NA,NA,NA,3,6,"13,8,3,6,12,15,9,1,14,5,11,2,7,4,10"
15142,commdev-image-keyboard-response,310,1386170,learnblock1,487.60000002384186,img/planet13_left.png,13,Community 1,NA,TRUE,f,f,NA,NA,NA,3,6,"13,8,3,6,12,15,9,1,14,5,11,2,7,4,10"
15142,commdev-image-keyboard-response,311,1387422,learnblock1,544.8999999761581,img/planet8_left.png,8,Community 1,NA,TRUE,f,f,NA,NA,NA,3,6,"13,8,3,6,12,15,9,1,14,5,11,2,7,4,10"
15142,commdev-image-keyboard-response,312,1388673,learnblock1,542.6000000238419,img/planet12_left.png,12,Community 1,NA,TRUE,f,f,NA,NA,NA,3,6,"13,8,3,6,12,15,9,1,14,5,11,2,7,4,10"
15142,commdev-image-keyboard-response,313,1389924,learnblock1,492,img/planet8_right.png,8,Community 1,NA,TRUE,j,j,NA,NA,NA,3,6,"13,8,3,6,12,15,9,1,14,5,11,2,7,4,10"
15142,commdev-image-keyboard-response,314,1391176,learnblock1,478.10000002384186,img/planet13_left.png,13,Community 1,NA,TRUE,f,f,NA,NA,NA,3,6,"13,8,3,6,12,15,9,1,14,5,11,2,7,4,10"
15142,commdev-image-keyboard-response,315,1392427,learnblock1,463.5,img/planet12_left.png,12,Community 1,NA,TRUE,f,f,NA,NA,NA,3,6,"13,8,3,6,12,15,9,1,14,5,11,2,7,4,10"
15142,commdev-image-keyboard-response,316,1393678,learnblock1,442.10000002384186,img/planet11_right.png,11,Community 3,NA,TRUE,j,j,NA,NA,NA,3,6,"13,8,3,6,12,15,9,1,14,5,11,2,7,4,10"
15142,commdev-image-keyboard-response,317,1394930,learnblock1,442,img/planet4_right.png,4,Community 3,NA,TRUE,j,j,NA,NA,NA,3,6,"13,8,3,6,12,15,9,1,14,5,11,2,7,4,10"
15142,commdev-image-keyboard-response,318,1396181,learnblock1,411.7999999523163,img/planet11_left.png,11,Community 3,NA,TRUE,f,f,NA,NA,NA,3,6,"13,8,3,6,12,15,9,1,14,5,11,2,7,4,10"
15142,commdev-image-keyboard-response,319,1397433,learnblock1,344.5,img/planet10_left.png,10,Community 3,NA,TRUE,f,f,NA,NA,NA,3,6,"13,8,3,6,12,15,9,1,14,5,11,2,7,4,10"
15142,commdev-image-keyboard-response,320,1398684,learnblock1,427.6999999284744,img/planet7_left.png,7,Community 3,NA,TRUE,f,f,NA,NA,NA,3,6,"13,8,3,6,12,15,9,1,14,5,11,2,7,4,10"
15142,commdev-image-keyboard-response,321,1399936,learnblock1,396.89999997615814,img/planet10_left.png,10,Community 3,NA,TRUE,f,f,NA,NA,NA,3,6,"13,8,3,6,12,15,9,1,14,5,11,2,7,4,10"
15142,commdev-image-keyboard-response,322,1401188,learnblock1,441.7000000476837,img/planet11_right.png,11,Community 3,NA,TRUE,j,j,NA,NA,NA,3,6,"13,8,3,6,12,15,9,1,14,5,11,2,7,4,10"
15142,commdev-image-keyboard-response,323,1402440,learnblock1,415,img/planet4_left.png,4,Community 3,NA,TRUE,f,f,NA,NA,NA,3,6,"13,8,3,6,12,15,9,1,14,5,11,2,7,4,10"
15142,commdev-image-keyboard-response,324,1403691,learnblock1,368.3000000715256,img/planet2_right.png,2,Community 3,NA,TRUE,j,j,NA,NA,NA,3,6,"13,8,3,6,12,15,9,1,14,5,11,2,7,4,10"
15142,commdev-image-keyboard-response,325,1404943,learnblock1,391,img/planet4_left.png,4,Community 3,NA,TRUE,f,f,NA,NA,NA,3,6,"13,8,3,6,12,15,9,1,14,5,11,2,7,4,10"
15142,commdev-image-keyboard-response,326,1406194,learnblock1,372.3000000715256,img/planet7_right.png,7,Community 3,NA,TRUE,j,j,NA,NA,NA,3,6,"13,8,3,6,12,15,9,1,14,5,11,2,7,4,10"
15142,commdev-image-keyboard-response,327,1407447,learnblock1,445.8000000715256,img/planet11_right.png,11,Community 3,NA,TRUE,j,j,NA,NA,NA,3,6,"13,8,3,6,12,15,9,1,14,5,11,2,7,4,10"
15142,commdev-image-keyboard-response,328,1408698,learnblock1,368.5,img/planet7_left.png,7,Community 3,NA,TRUE,f,f,NA,NA,NA,3,6,"13,8,3,6,12,15,9,1,14,5,11,2,7,4,10"
15142,commdev-image-keyboard-response,329,1409951,learnblock1,546.3999999761581,img/planet10_left.png,10,Community 3,NA,TRUE,f,f,NA,NA,NA,3,6,"13,8,3,6,12,15,9,1,14,5,11,2,7,4,10"
15142,commdev-image-keyboard-response,330,1411211,learnblock1,452.89999997615814,img/planet7_right.png,7,Community 3,NA,TRUE,j,j,NA,NA,NA,3,6,"13,8,3,6,12,15,9,1,14,5,11,2,7,4,10"
15142,commdev-image-keyboard-response,331,1412464,learnblock1,431.2000000476837,img/planet10_right.png,10,Community 3,NA,TRUE,j,j,NA,NA,NA,3,6,"13,8,3,6,12,15,9,1,14,5,11,2,7,4,10"
15142,commdev-image-keyboard-response,332,1413716,learnblock1,415.2999999523163,img/planet4_left.png,4,Community 3,NA,TRUE,f,f,NA,NA,NA,3,6,"13,8,3,6,12,15,9,1,14,5,11,2,7,4,10"
15142,commdev-image-keyboard-response,333,1414982,learnblock1,399.39999997615814,img/planet7_left.png,7,Community 3,NA,TRUE,f,f,NA,NA,NA,3,6,"13,8,3,6,12,15,9,1,14,5,11,2,7,4,10"
15142,commdev-image-keyboard-response,334,1416233,learnblock1,387.3000000715256,img/planet11_right.png,11,Community 3,NA,TRUE,j,j,NA,NA,NA,3,6,"13,8,3,6,12,15,9,1,14,5,11,2,7,4,10"
15142,commdev-image-keyboard-response,335,1417490,learnblock1,443.89999997615814,img/planet12_left.png,12,Community 1,NA,TRUE,f,f,NA,NA,NA,3,6,"13,8,3,6,12,15,9,1,14,5,11,2,7,4,10"
15142,commdev-image-keyboard-response,336,1418743,learnblock1,433.7999999523163,img/planet3_right.png,3,Community 1,NA,TRUE,j,j,NA,NA,NA,3,6,"13,8,3,6,12,15,9,1,14,5,11,2,7,4,10"
15142,commdev-image-keyboard-response,337,1419995,learnblock1,382.39999997615814,img/planet13_left.png,13,Community 1,NA,TRUE,f,f,NA,NA,NA,3,6,"13,8,3,6,12,15,9,1,14,5,11,2,7,4,10"
15142,commdev-image-keyboard-response,338,1421248,learnblock1,348.8000000715256,img/planet8_right.png,8,Community 1,NA,TRUE,j,j,NA,NA,NA,3,6,"13,8,3,6,12,15,9,1,14,5,11,2,7,4,10"
15142,commdev-image-keyboard-response,339,1422500,learnblock1,406.7999999523163,img/planet3_left.png,3,Community 1,NA,TRUE,f,f,NA,NA,NA,3,6,"13,8,3,6,12,15,9,1,14,5,11,2,7,4,10"
15142,commdev-image-keyboard-response,340,1423752,learnblock1,388,img/planet12_right.png,12,Community 1,NA,FALSE,f,j,NA,NA,NA,3,6,"13,8,3,6,12,15,9,1,14,5,11,2,7,4,10"
15142,commdev-image-keyboard-response,341,1425003,learnblock1,446.10000002384186,img/planet13_left.png,13,Community 1,NA,TRUE,f,f,NA,NA,NA,3,6,"13,8,3,6,12,15,9,1,14,5,11,2,7,4,10"
15142,commdev-image-keyboard-response,342,1426255,learnblock1,456,img/planet3_right.png,3,Community 1,NA,TRUE,j,j,NA,NA,NA,3,6,"13,8,3,6,12,15,9,1,14,5,11,2,7,4,10"
15142,commdev-image-keyboard-response,343,1427507,learnblock1,415.2999999523163,img/planet12_left.png,12,Community 1,NA,TRUE,f,f,NA,NA,NA,3,6,"13,8,3,6,12,15,9,1,14,5,11,2,7,4,10"
15142,commdev-image-keyboard-response,344,1428760,learnblock1,445.2999999523163,img/planet13_right.png,13,Community 1,NA,TRUE,j,j,NA,NA,NA,3,6,"13,8,3,6,12,15,9,1,14,5,11,2,7,4,10"
15142,commdev-image-keyboard-response,345,1430011,learnblock1,422.39999997615814,img/planet12_right.png,12,Community 1,NA,TRUE,j,j,NA,NA,NA,3,6,"13,8,3,6,12,15,9,1,14,5,11,2,7,4,10"
15142,commdev-image-keyboard-response,346,1431266,learnblock1,458.7000000476837,img/planet11_left.png,11,Community 3,NA,TRUE,f,f,NA,NA,NA,3,6,"13,8,3,6,12,15,9,1,14,5,11,2,7,4,10"
15142,commdev-image-keyboard-response,347,1432518,learnblock1,381.2000000476837,img/planet10_right.png,10,Community 3,NA,TRUE,j,j,NA,NA,NA,3,6,"13,8,3,6,12,15,9,1,14,5,11,2,7,4,10"
15142,commdev-image-keyboard-response,351,1571486,learnblock2,547.6999999284744,img/planet15_right.png,15,Community 2,NA,TRUE,j,j,NA,NA,NA,3,6,"13,8,3,6,12,15,9,1,14,5,11,2,7,4,10"
15142,commdev-image-keyboard-response,352,1572739,learnblock2,477.2999999523163,img/planet14_left.png,14,Community 2,NA,TRUE,f,f,NA,NA,NA,3,6,"13,8,3,6,12,15,9,1,14,5,11,2,7,4,10"
15142,commdev-image-keyboard-response,353,1573991,learnblock2,474.89999997615814,img/planet1_left.png,1,Community 2,NA,TRUE,f,f,NA,NA,NA,3,6,"13,8,3,6,12,15,9,1,14,5,11,2,7,4,10"
15142,commdev-image-keyboard-response,354,1575243,learnblock2,438.90000009536743,img/planet14_left.png,14,Community 2,NA,TRUE,f,f,NA,NA,NA,3,6,"13,8,3,6,12,15,9,1,14,5,11,2,7,4,10"
15142,commdev-image-keyboard-response,355,1576494,learnblock2,473.59999990463257,img/planet5_left.png,5,Community 2,NA,TRUE,f,f,NA,NA,NA,3,6,"13,8,3,6,12,15,9,1,14,5,11,2,7,4,10"
15142,commdev-image-keyboard-response,356,1577747,learnblock2,443.40000009536743,img/planet1_right.png,1,Community 2,NA,TRUE,j,j,NA,NA,NA,3,6,"13,8,3,6,12,15,9,1,14,5,11,2,7,4,10"
15142,commdev-image-keyboard-response,357,1579000,learnblock2,473.59999990463257,img/planet5_right.png,5,Community 2,NA,TRUE,j,j,NA,NA,NA,3,6,"13,8,3,6,12,15,9,1,14,5,11,2,7,4,10"
15142,commdev-image-keyboard-response,358,1580251,learnblock2,438.1999999284744,img/planet14_left.png,14,Community 2,NA,TRUE,f,f,NA,NA,NA,3,6,"13,8,3,6,12,15,9,1,14,5,11,2,7,4,10"
15142,commdev-image-keyboard-response,359,1581502,learnblock2,424.7999999523163,img/planet9_right.png,9,Community 2,NA,TRUE,j,j,NA,NA,NA,3,6,"13,8,3,6,12,15,9,1,14,5,11,2,7,4,10"
15142,commdev-image-keyboard-response,360,1582754,learnblock2,460.7000000476837,img/planet5_left.png,5,Community 2,NA,TRUE,f,f,NA,NA,NA,3,6,"13,8,3,6,12,15,9,1,14,5,11,2,7,4,10"
15142,commdev-image-keyboard-response,361,1584008,learnblock2,487.2999999523163,img/planet9_left.png,9,Community 2,NA,FALSE,j,f,NA,NA,NA,3,6,"13,8,3,6,12,15,9,1,14,5,11,2,7,4,10"
15142,commdev-image-keyboard-response,362,1585260,learnblock2,460.8000000715256,img/planet15_right.png,15,Community 2,NA,TRUE,j,j,NA,NA,NA,3,6,"13,8,3,6,12,15,9,1,14,5,11,2,7,4,10"
15142,commdev-image-keyboard-response,363,1586515,learnblock2,406.3000000715256,img/planet14_right.png,14,Community 2,NA,TRUE,j,j,NA,NA,NA,3,6,"13,8,3,6,12,15,9,1,14,5,11,2,7,4,10"
15142,commdev-image-keyboard-response,364,1587777,learnblock2,392.39999997615814,img/planet5_left.png,5,Community 2,NA,TRUE,f,f,NA,NA,NA,3,6,"13,8,3,6,12,15,9,1,14,5,11,2,7,4,10"
15142,commdev-image-keyboard-response,365,1589034,learnblock2,399,img/planet1_left.png,1,Community 2,NA,TRUE,f,f,NA,NA,NA,3,6,"13,8,3,6,12,15,9,1,14,5,11,2,7,4,10"
15142,commdev-image-keyboard-response,366,1590286,learnblock2,409.7999999523163,img/planet5_left.png,5,Community 2,NA,TRUE,f,f,NA,NA,NA,3,6,"13,8,3,6,12,15,9,1,14,5,11,2,7,4,10"
15142,commdev-image-keyboard-response,367,1591537,learnblock2,384.2999999523163,img/planet15_left.png,15,Community 2,NA,TRUE,f,f,NA,NA,NA,3,6,"13,8,3,6,12,15,9,1,14,5,11,2,7,4,10"
15142,commdev-image-keyboard-response,368,1592787,learnblock2,471,img/planet6_left.png,6,Community 1,NA,TRUE,f,f,NA,NA,NA,3,6,"13,8,3,6,12,15,9,1,14,5,11,2,7,4,10"
15142,commdev-image-keyboard-response,369,1594039,learnblock2,513.8999999761581,img/planet13_right.png,13,Community 1,NA,TRUE,j,j,NA,NA,NA,3,6,"13,8,3,6,12,15,9,1,14,5,11,2,7,4,10"
15142,commdev-image-keyboard-response,370,1595290,learnblock2,604,img/planet3_left.png,3,Community 1,NA,TRUE,f,f,NA,NA,NA,3,6,"13,8,3,6,12,15,9,1,14,5,11,2,7,4,10"
15142,commdev-image-keyboard-response,371,1596541,learnblock2,473.2999999523163,img/planet12_right.png,12,Community 1,NA,TRUE,j,j,NA,NA,NA,3,6,"13,8,3,6,12,15,9,1,14,5,11,2,7,4,10"
15142,commdev-image-keyboard-response,372,1597793,learnblock2,633.7000000476837,img/planet13_right.png,13,Community 1,NA,TRUE,j,j,NA,NA,NA,3,6,"13,8,3,6,12,15,9,1,14,5,11,2,7,4,10"
15142,commdev-image-keyboard-response,373,1599043,learnblock2,467.09999990463257,img/planet6_right.png,6,Community 1,NA,TRUE,j,j,NA,NA,NA,3,6,"13,8,3,6,12,15,9,1,14,5,11,2,7,4,10"
15142,commdev-image-keyboard-response,374,1600307,learnblock2,394.89999997615814,img/planet15_left.png,15,Community 2,NA,TRUE,f,f,NA,NA,NA,3,6,"13,8,3,6,12,15,9,1,14,5,11,2,7,4,10"
15142,commdev-image-keyboard-response,375,1601560,learnblock2,410.60000002384186,img/planet14_left.png,14,Community 2,NA,TRUE,f,f,NA,NA,NA,3,6,"13,8,3,6,12,15,9,1,14,5,11,2,7,4,10"
15142,commdev-image-keyboard-response,376,1602811,learnblock2,439.5,img/planet5_right.png,5,Community 2,NA,TRUE,j,j,NA,NA,NA,3,6,"13,8,3,6,12,15,9,1,14,5,11,2,7,4,10"
15142,commdev-image-keyboard-response,377,1604062,learnblock2,484.7000000476837,img/planet9_right.png,9,Community 2,NA,TRUE,j,j,NA,NA,NA,3,6,"13,8,3,6,12,15,9,1,14,5,11,2,7,4,10"
15142,commdev-image-keyboard-response,378,1605314,learnblock2,407.59999990463257,img/planet5_left.png,5,Community 2,NA,TRUE,f,f,NA,NA,NA,3,6,"13,8,3,6,12,15,9,1,14,5,11,2,7,4,10"
15142,commdev-image-keyboard-response,379,1606566,learnblock2,382,img/planet1_left.png,1,Community 2,NA,TRUE,f,f,NA,NA,NA,3,6,"13,8,3,6,12,15,9,1,14,5,11,2,7,4,10"
15142,commdev-image-keyboard-response,380,1607819,learnblock2,410.1999999284744,img/planet9_left.png,9,Community 2,NA,TRUE,f,f,NA,NA,NA,3,6,"13,8,3,6,12,15,9,1,14,5,11,2,7,4,10"
15142,commdev-image-keyboard-response,381,1609071,learnblock2,448.89999997615814,img/planet14_right.png,14,Community 2,NA,TRUE,j,j,NA,NA,NA,3,6,"13,8,3,6,12,15,9,1,14,5,11,2,7,4,10"
15142,commdev-image-keyboard-response,382,1610332,learnblock2,377.89999997615814,img/planet1_right.png,1,Community 2,NA,TRUE,j,j,NA,NA,NA,3,6,"13,8,3,6,12,15,9,1,14,5,11,2,7,4,10"
15142,commdev-image-keyboard-response,383,1611583,learnblock2,388.6999999284744,img/planet5_left.png,5,Community 2,NA,TRUE,f,f,NA,NA,NA,3,6,"13,8,3,6,12,15,9,1,14,5,11,2,7,4,10"
15142,commdev-image-keyboard-response,384,1612834,learnblock2,472.10000002384186,img/planet1_right.png,1,Community 2,NA,TRUE,j,j,NA,NA,NA,3,6,"13,8,3,6,12,15,9,1,14,5,11,2,7,4,10"
15142,commdev-image-keyboard-response,385,1614086,learnblock2,379,img/planet9_right.png,9,Community 2,NA,TRUE,j,j,NA,NA,NA,3,6,"13,8,3,6,12,15,9,1,14,5,11,2,7,4,10"
15142,commdev-image-keyboard-response,386,1615337,learnblock2,529.2999999523163,img/planet15_right.png,15,Community 2,NA,TRUE,j,j,NA,NA,NA,3,6,"13,8,3,6,12,15,9,1,14,5,11,2,7,4,10"
15142,commdev-image-keyboard-response,387,1616589,learnblock2,459.6999999284744,img/planet9_left.png,9,Community 2,NA,TRUE,f,f,NA,NA,NA,3,6,"13,8,3,6,12,15,9,1,14,5,11,2,7,4,10"
15142,commdev-image-keyboard-response,388,1617841,learnblock2,413.89999997615814,img/planet14_left.png,14,Community 2,NA,TRUE,f,f,NA,NA,NA,3,6,"13,8,3,6,12,15,9,1,14,5,11,2,7,4,10"
15142,commdev-image-keyboard-response,389,1619091,learnblock2,426.7000000476837,img/planet9_right.png,9,Community 2,NA,TRUE,j,j,NA,NA,NA,3,6,"13,8,3,6,12,15,9,1,14,5,11,2,7,4,10"
15142,commdev-image-keyboard-response,390,1620343,learnblock2,434.5,img/planet5_right.png,5,Community 2,NA,TRUE,j,j,NA,NA,NA,3,6,"13,8,3,6,12,15,9,1,14,5,11,2,7,4,10"
15142,commdev-image-keyboard-response,391,1621594,learnblock2,481.2000000476837,img/planet14_right.png,14,Community 2,NA,TRUE,j,j,NA,NA,NA,3,6,"13,8,3,6,12,15,9,1,14,5,11,2,7,4,10"
15142,commdev-image-keyboard-response,392,1622845,learnblock2,426.1999999284744,img/planet9_left.png,9,Community 2,NA,TRUE,f,f,NA,NA,NA,3,6,"13,8,3,6,12,15,9,1,14,5,11,2,7,4,10"
15142,commdev-image-keyboard-response,393,1624097,learnblock2,382.8000000715256,img/planet14_left.png,14,Community 2,NA,TRUE,f,f,NA,NA,NA,3,6,"13,8,3,6,12,15,9,1,14,5,11,2,7,4,10"
15142,commdev-image-keyboard-response,394,1625348,learnblock2,390.7999999523163,img/planet5_left.png,5,Community 2,NA,TRUE,f,f,NA,NA,NA,3,6,"13,8,3,6,12,15,9,1,14,5,11,2,7,4,10"
15142,commdev-image-keyboard-response,395,1626601,learnblock2,341.7000000476837,img/planet9_left.png,9,Community 2,NA,TRUE,f,f,NA,NA,NA,3,6,"13,8,3,6,12,15,9,1,14,5,11,2,7,4,10"
15142,commdev-image-keyboard-response,396,1627852,learnblock2,402.1999999284744,img/planet15_right.png,15,Community 2,NA,TRUE,j,j,NA,NA,NA,3,6,"13,8,3,6,12,15,9,1,14,5,11,2,7,4,10"
15142,commdev-image-keyboard-response,397,1629110,learnblock2,514.1000000238419,img/planet6_left.png,6,Community 1,NA,TRUE,f,f,NA,NA,NA,3,6,"13,8,3,6,12,15,9,1,14,5,11,2,7,4,10"
15142,commdev-image-keyboard-response,398,1630370,learnblock2,537.7999999523163,img/planet8_left.png,8,Community 1,NA,TRUE,f,f,NA,NA,NA,3,6,"13,8,3,6,12,15,9,1,14,5,11,2,7,4,10"
15142,commdev-image-keyboard-response,399,1631622,learnblock2,438.7999999523163,img/planet12_right.png,12,Community 1,NA,TRUE,j,j,NA,NA,NA,3,6,"13,8,3,6,12,15,9,1,14,5,11,2,7,4,10"
15142,commdev-image-keyboard-response,400,1632874,learnblock2,424.2000000476837,img/planet13_right.png,13,Community 1,NA,TRUE,j,j,NA,NA,NA,3,6,"13,8,3,6,12,15,9,1,14,5,11,2,7,4,10"
15142,commdev-image-keyboard-response,401,1634130,learnblock2,463.10000002384186,img/planet3_left.png,3,Community 1,NA,TRUE,f,f,NA,NA,NA,3,6,"13,8,3,6,12,15,9,1,14,5,11,2,7,4,10"
15142,commdev-image-keyboard-response,402,1635382,learnblock2,513.3000000715256,img/planet8_right.png,8,Community 1,NA,TRUE,j,j,NA,NA,NA,3,6,"13,8,3,6,12,15,9,1,14,5,11,2,7,4,10"
15142,commdev-image-keyboard-response,403,1636634,learnblock2,517.1999999284744,img/planet12_left.png,12,Community 1,NA,TRUE,f,f,NA,NA,NA,3,6,"13,8,3,6,12,15,9,1,14,5,11,2,7,4,10"
15142,commdev-image-keyboard-response,404,1637898,learnblock2,467,img/planet11_right.png,11,Community 3,NA,TRUE,j,j,NA,NA,NA,3,6,"13,8,3,6,12,15,9,1,14,5,11,2,7,4,10"
15142,commdev-image-keyboard-response,405,1639150,learnblock2,455.2000000476837,img/planet10_left.png,10,Community 3,NA,TRUE,f,f,NA,NA,NA,3,6,"13,8,3,6,12,15,9,1,14,5,11,2,7,4,10"
15142,commdev-image-keyboard-response,406,1640401,learnblock2,489.5,img/planet11_right.png,11,Community 3,NA,TRUE,j,j,NA,NA,NA,3,6,"13,8,3,6,12,15,9,1,14,5,11,2,7,4,10"
15142,commdev-image-keyboard-response,407,1641652,learnblock2,469.7999999523163,img/planet4_right.png,4,Community 3,NA,TRUE,j,j,NA,NA,NA,3,6,"13,8,3,6,12,15,9,1,14,5,11,2,7,4,10"
15142,commdev-image-keyboard-response,408,1642903,learnblock2,462.1999999284744,img/planet10_left.png,10,Community 3,NA,TRUE,f,f,NA,NA,NA,3,6,"13,8,3,6,12,15,9,1,14,5,11,2,7,4,10"
15142,commdev-image-keyboard-response,409,1644168,learnblock2,417.7000000476837,img/planet7_right.png,7,Community 3,NA,TRUE,j,j,NA,NA,NA,3,6,"13,8,3,6,12,15,9,1,14,5,11,2,7,4,10"
15142,commdev-image-keyboard-response,410,1645421,learnblock2,472.89999997615814,img/planet11_left.png,11,Community 3,NA,FALSE,j,f,NA,NA,NA,3,6,"13,8,3,6,12,15,9,1,14,5,11,2,7,4,10"
15142,commdev-image-keyboard-response,411,1646673,learnblock2,455.40000009536743,img/planet7_right.png,7,Community 3,NA,TRUE,j,j,NA,NA,NA,3,6,"13,8,3,6,12,15,9,1,14,5,11,2,7,4,10"
15142,commdev-image-keyboard-response,412,1647925,learnblock2,418.10000002384186,img/planet4_left.png,4,Community 3,NA,TRUE,f,f,NA,NA,NA,3,6,"13,8,3,6,12,15,9,1,14,5,11,2,7,4,10"
15142,commdev-image-keyboard-response,413,1649177,learnblock2,466.39999997615814,img/planet7_left.png,7,Community 3,NA,TRUE,f,f,NA,NA,NA,3,6,"13,8,3,6,12,15,9,1,14,5,11,2,7,4,10"
15142,commdev-image-keyboard-response,414,1650428,learnblock2,394.39999997615814,img/planet4_right.png,4,Community 3,NA,TRUE,j,j,NA,NA,NA,3,6,"13,8,3,6,12,15,9,1,14,5,11,2,7,4,10"
15142,commdev-image-keyboard-response,415,1651680,learnblock2,374.7000000476837,img/planet7_left.png,7,Community 3,NA,TRUE,f,f,NA,NA,NA,3,6,"13,8,3,6,12,15,9,1,14,5,11,2,7,4,10"
15142,commdev-image-keyboard-response,416,1652931,learnblock2,411.10000002384186,img/planet2_left.png,2,Community 3,NA,TRUE,f,f,NA,NA,NA,3,6,"13,8,3,6,12,15,9,1,14,5,11,2,7,4,10"
15142,commdev-image-keyboard-response,417,1654183,learnblock2,384,img/planet4_right.png,4,Community 3,NA,TRUE,j,j,NA,NA,NA,3,6,"13,8,3,6,12,15,9,1,14,5,11,2,7,4,10"
15142,commdev-image-keyboard-response,418,1655435,learnblock2,409.2999999523163,img/planet7_left.png,7,Community 3,NA,TRUE,f,f,NA,NA,NA,3,6,"13,8,3,6,12,15,9,1,14,5,11,2,7,4,10"
15142,commdev-image-keyboard-response,419,1656686,learnblock2,384.89999997615814,img/planet4_right.png,4,Community 3,NA,TRUE,j,j,NA,NA,NA,3,6,"13,8,3,6,12,15,9,1,14,5,11,2,7,4,10"
15142,commdev-image-keyboard-response,420,1657938,learnblock2,508.89999997615814,img/planet10_right.png,10,Community 3,NA,TRUE,j,j,NA,NA,NA,3,6,"13,8,3,6,12,15,9,1,14,5,11,2,7,4,10"
15142,commdev-image-keyboard-response,421,1659190,learnblock2,379.3000000715256,img/planet2_right.png,2,Community 3,NA,TRUE,j,j,NA,NA,NA,3,6,"13,8,3,6,12,15,9,1,14,5,11,2,7,4,10"
15142,commdev-image-keyboard-response,422,1660441,learnblock2,378.89999997615814,img/planet4_left.png,4,Community 3,NA,TRUE,f,f,NA,NA,NA,3,6,"13,8,3,6,12,15,9,1,14,5,11,2,7,4,10"
15142,commdev-image-keyboard-response,423,1661693,learnblock2,407.3000000715256,img/planet11_right.png,11,Community 3,NA,TRUE,j,j,NA,NA,NA,3,6,"13,8,3,6,12,15,9,1,14,5,11,2,7,4,10"
15142,commdev-image-keyboard-response,424,1662944,learnblock2,315.90000009536743,img/planet10_right.png,10,Community 3,NA,FALSE,f,j,NA,NA,NA,3,6,"13,8,3,6,12,15,9,1,14,5,11,2,7,4,10"
15142,commdev-image-keyboard-response,425,1664195,learnblock2,436.8000000715256,img/planet4_left.png,4,Community 3,NA,TRUE,f,f,NA,NA,NA,3,6,"13,8,3,6,12,15,9,1,14,5,11,2,7,4,10"
15142,commdev-image-keyboard-response,426,1665459,learnblock2,462.60000002384186,img/planet11_left.png,11,Community 3,NA,TRUE,f,f,NA,NA,NA,3,6,"13,8,3,6,12,15,9,1,14,5,11,2,7,4,10"
15142,commdev-image-keyboard-response,427,1666711,learnblock2,427.60000002384186,img/planet7_left.png,7,Community 3,NA,TRUE,f,f,NA,NA,NA,3,6,"13,8,3,6,12,15,9,1,14,5,11,2,7,4,10"
15142,commdev-image-keyboard-response,428,1667963,learnblock2,410.7000000476837,img/planet10_left.png,10,Community 3,NA,TRUE,f,f,NA,NA,NA,3,6,"13,8,3,6,12,15,9,1,14,5,11,2,7,4,10"
15142,commdev-image-keyboard-response,429,1669215,learnblock2,445.5,img/planet4_right.png,4,Community 3,NA,TRUE,j,j,NA,NA,NA,3,6,"13,8,3,6,12,15,9,1,14,5,11,2,7,4,10"
15142,commdev-image-keyboard-response,430,1670467,learnblock2,451.89999997615814,img/planet7_right.png,7,Community 3,NA,TRUE,j,j,NA,NA,NA,3,6,"13,8,3,6,12,15,9,1,14,5,11,2,7,4,10"
15142,commdev-image-keyboard-response,431,1671719,learnblock2,381.5,img/planet10_right.png,10,Community 3,NA,TRUE,j,j,NA,NA,NA,3,6,"13,8,3,6,12,15,9,1,14,5,11,2,7,4,10"
15142,commdev-image-keyboard-response,432,1672971,learnblock2,399.40000009536743,img/planet2_left.png,2,Community 3,NA,TRUE,f,f,NA,NA,NA,3,6,"13,8,3,6,12,15,9,1,14,5,11,2,7,4,10"
15142,commdev-image-keyboard-response,433,1674222,learnblock2,425.40000009536743,img/planet7_left.png,7,Community 3,NA,TRUE,f,f,NA,NA,NA,3,6,"13,8,3,6,12,15,9,1,14,5,11,2,7,4,10"
15142,commdev-image-keyboard-response,434,1675474,learnblock2,440.5,img/planet10_right.png,10,Community 3,NA,TRUE,j,j,NA,NA,NA,3,6,"13,8,3,6,12,15,9,1,14,5,11,2,7,4,10"
15142,commdev-image-keyboard-response,435,1676725,learnblock2,448.6999999284744,img/planet4_left.png,4,Community 3,NA,TRUE,f,f,NA,NA,NA,3,6,"13,8,3,6,12,15,9,1,14,5,11,2,7,4,10"
15142,commdev-image-keyboard-response,436,1677976,learnblock2,424.89999997615814,img/planet2_left.png,2,Community 3,NA,TRUE,f,f,NA,NA,NA,3,6,"13,8,3,6,12,15,9,1,14,5,11,2,7,4,10"
15142,commdev-image-keyboard-response,437,1679230,learnblock2,413.10000002384186,img/planet4_right.png,4,Community 3,NA,TRUE,j,j,NA,NA,NA,3,6,"13,8,3,6,12,15,9,1,14,5,11,2,7,4,10"
15142,commdev-image-keyboard-response,438,1680481,learnblock2,480,img/planet2_right.png,2,Community 3,NA,TRUE,j,j,NA,NA,NA,3,6,"13,8,3,6,12,15,9,1,14,5,11,2,7,4,10"
15142,commdev-image-keyboard-response,439,1681732,learnblock2,422.10000002384186,img/planet10_left.png,10,Community 3,NA,TRUE,f,f,NA,NA,NA,3,6,"13,8,3,6,12,15,9,1,14,5,11,2,7,4,10"
15142,commdev-image-keyboard-response,440,1682984,learnblock2,402.1999999284744,img/planet2_right.png,2,Community 3,NA,TRUE,j,j,NA,NA,NA,3,6,"13,8,3,6,12,15,9,1,14,5,11,2,7,4,10"
15142,commdev-image-keyboard-response,441,1684238,learnblock2,460.89999997615814,img/planet10_right.png,10,Community 3,NA,TRUE,j,j,NA,NA,NA,3,6,"13,8,3,6,12,15,9,1,14,5,11,2,7,4,10"
15142,commdev-image-keyboard-response,442,1685489,learnblock2,428.2999999523163,img/planet2_left.png,2,Community 3,NA,TRUE,f,f,NA,NA,NA,3,6,"13,8,3,6,12,15,9,1,14,5,11,2,7,4,10"
15142,commdev-image-keyboard-response,443,1686741,learnblock2,428.1999999284744,img/planet4_right.png,4,Community 3,NA,TRUE,j,j,NA,NA,NA,3,6,"13,8,3,6,12,15,9,1,14,5,11,2,7,4,10"
15142,commdev-image-keyboard-response,444,1687992,learnblock2,402.5,img/planet2_right.png,2,Community 3,NA,TRUE,j,j,NA,NA,NA,3,6,"13,8,3,6,12,15,9,1,14,5,11,2,7,4,10"
15142,commdev-image-keyboard-response,445,1689248,learnblock2,472.39999997615814,img/planet4_left.png,4,Community 3,NA,TRUE,f,f,NA,NA,NA,3,6,"13,8,3,6,12,15,9,1,14,5,11,2,7,4,10"
15142,commdev-image-keyboard-response,446,1690499,learnblock2,405.60000002384186,img/planet2_left.png,2,Community 3,NA,TRUE,f,f,NA,NA,NA,3,6,"13,8,3,6,12,15,9,1,14,5,11,2,7,4,10"
15142,commdev-image-keyboard-response,447,1691761,learnblock2,416.8000000715256,img/planet7_left.png,7,Community 3,NA,TRUE,f,f,NA,NA,NA,3,6,"13,8,3,6,12,15,9,1,14,5,11,2,7,4,10"
15142,commdev-image-keyboard-response,448,1693013,learnblock2,455.8000000715256,img/planet11_right.png,11,Community 3,NA,TRUE,j,j,NA,NA,NA,3,6,"13,8,3,6,12,15,9,1,14,5,11,2,7,4,10"
15142,commdev-image-keyboard-response,449,1694264,learnblock2,449.7000000476837,img/planet10_right.png,10,Community 3,NA,TRUE,j,j,NA,NA,NA,3,6,"13,8,3,6,12,15,9,1,14,5,11,2,7,4,10"
15142,commdev-image-keyboard-response,450,1695515,learnblock2,426.60000002384186,img/planet4_right.png,4,Community 3,NA,TRUE,j,j,NA,NA,NA,3,6,"13,8,3,6,12,15,9,1,14,5,11,2,7,4,10"
15142,commdev-image-keyboard-response,451,1696769,learnblock2,422.5,img/planet10_left.png,10,Community 3,NA,TRUE,f,f,NA,NA,NA,3,6,"13,8,3,6,12,15,9,1,14,5,11,2,7,4,10"
15142,commdev-image-keyboard-response,452,1698021,learnblock2,389,img/planet11_right.png,11,Community 3,NA,TRUE,j,j,NA,NA,NA,3,6,"13,8,3,6,12,15,9,1,14,5,11,2,7,4,10"
15142,commdev-image-keyboard-response,453,1699272,learnblock2,431.7999999523163,img/planet12_left.png,12,Community 1,NA,TRUE,f,f,NA,NA,NA,3,6,"13,8,3,6,12,15,9,1,14,5,11,2,7,4,10"
15142,commdev-image-keyboard-response,454,1700523,learnblock2,453.7999999523163,img/planet3_right.png,3,Community 1,NA,TRUE,j,j,NA,NA,NA,3,6,"13,8,3,6,12,15,9,1,14,5,11,2,7,4,10"
15142,commdev-image-keyboard-response,455,1701775,learnblock2,422.7999999523163,img/planet6_right.png,6,Community 1,NA,TRUE,j,j,NA,NA,NA,3,6,"13,8,3,6,12,15,9,1,14,5,11,2,7,4,10"
15142,commdev-image-keyboard-response,456,1703026,learnblock2,405.5,img/planet15_right.png,15,Community 2,NA,FALSE,f,j,NA,NA,NA,3,6,"13,8,3,6,12,15,9,1,14,5,11,2,7,4,10"
15142,commdev-image-keyboard-response,457,1704278,learnblock2,540.8999999761581,img/planet5_right.png,5,Community 2,NA,TRUE,j,j,NA,NA,NA,3,6,"13,8,3,6,12,15,9,1,14,5,11,2,7,4,10"
15142,commdev-image-keyboard-response,458,1705530,learnblock2,436.10000002384186,img/planet1_right.png,1,Community 2,NA,TRUE,j,j,NA,NA,NA,3,6,"13,8,3,6,12,15,9,1,14,5,11,2,7,4,10"
15142,commdev-image-keyboard-response,459,1706782,learnblock2,472.39999997615814,img/planet14_right.png,14,Community 2,NA,TRUE,j,j,NA,NA,NA,3,6,"13,8,3,6,12,15,9,1,14,5,11,2,7,4,10"
15142,commdev-image-keyboard-response,460,1708033,learnblock2,468.6999999284744,img/planet5_left.png,5,Community 2,NA,TRUE,f,f,NA,NA,NA,3,6,"13,8,3,6,12,15,9,1,14,5,11,2,7,4,10"
15142,commdev-image-keyboard-response,461,1709294,learnblock2,542.6000000238419,img/planet14_left.png,14,Community 2,NA,TRUE,f,f,NA,NA,NA,3,6,"13,8,3,6,12,15,9,1,14,5,11,2,7,4,10"
15142,commdev-image-keyboard-response,462,1710545,learnblock2,471.2999999523163,img/planet9_right.png,9,Community 2,NA,TRUE,j,j,NA,NA,NA,3,6,"13,8,3,6,12,15,9,1,14,5,11,2,7,4,10"
15142,commdev-image-keyboard-response,463,1711797,learnblock2,492.7000000476837,img/planet5_left.png,5,Community 2,NA,TRUE,f,f,NA,NA,NA,3,6,"13,8,3,6,12,15,9,1,14,5,11,2,7,4,10"
15142,commdev-image-keyboard-response,464,1713050,learnblock2,534.6000000238419,img/planet15_right.png,15,Community 2,NA,TRUE,j,j,NA,NA,NA,3,6,"13,8,3,6,12,15,9,1,14,5,11,2,7,4,10"
15142,commdev-image-keyboard-response,465,1714302,learnblock2,427.3000000715256,img/planet9_right.png,9,Community 2,NA,TRUE,j,j,NA,NA,NA,3,6,"13,8,3,6,12,15,9,1,14,5,11,2,7,4,10"
15142,commdev-image-keyboard-response,466,1715553,learnblock2,400.7000000476837,img/planet1_right.png,1,Community 2,NA,TRUE,j,j,NA,NA,NA,3,6,"13,8,3,6,12,15,9,1,14,5,11,2,7,4,10"
15142,commdev-image-keyboard-response,467,1716817,learnblock2,442.8000000715256,img/planet9_left.png,9,Community 2,NA,TRUE,f,f,NA,NA,NA,3,6,"13,8,3,6,12,15,9,1,14,5,11,2,7,4,10"
15142,commdev-image-keyboard-response,468,1718068,learnblock2,401.2999999523163,img/planet1_left.png,1,Community 2,NA,TRUE,f,f,NA,NA,NA,3,6,"13,8,3,6,12,15,9,1,14,5,11,2,7,4,10"
15142,commdev-image-keyboard-response,469,1719320,learnblock2,441.39999997615814,img/planet5_left.png,5,Community 2,NA,TRUE,f,f,NA,NA,NA,3,6,"13,8,3,6,12,15,9,1,14,5,11,2,7,4,10"
15142,commdev-image-keyboard-response,470,1720572,learnblock2,395.1999999284744,img/planet9_right.png,9,Community 2,NA,TRUE,j,j,NA,NA,NA,3,6,"13,8,3,6,12,15,9,1,14,5,11,2,7,4,10"
15142,commdev-image-keyboard-response,471,1721823,learnblock2,457.2000000476837,img/planet15_right.png,15,Community 2,NA,FALSE,f,j,NA,NA,NA,3,6,"13,8,3,6,12,15,9,1,14,5,11,2,7,4,10"
15142,commdev-image-keyboard-response,472,1723074,learnblock2,560.3999999761581,img/planet14_left.png,14,Community 2,NA,TRUE,f,f,NA,NA,NA,3,6,"13,8,3,6,12,15,9,1,14,5,11,2,7,4,10"
15142,commdev-image-keyboard-response,473,1724326,learnblock2,554.5999999046326,img/planet9_left.png,9,Community 2,NA,TRUE,f,f,NA,NA,NA,3,6,"13,8,3,6,12,15,9,1,14,5,11,2,7,4,10"
15142,commdev-image-keyboard-response,474,1725581,learnblock2,519.5,img/planet15_left.png,15,Community 2,NA,TRUE,f,f,NA,NA,NA,3,6,"13,8,3,6,12,15,9,1,14,5,11,2,7,4,10"
15142,commdev-image-keyboard-response,475,1726833,learnblock2,473.2999999523163,img/planet6_right.png,6,Community 1,NA,TRUE,j,j,NA,NA,NA,3,6,"13,8,3,6,12,15,9,1,14,5,11,2,7,4,10"
15142,commdev-image-keyboard-response,476,1728085,learnblock2,529,img/planet8_left.png,8,Community 1,NA,TRUE,f,f,NA,NA,NA,3,6,"13,8,3,6,12,15,9,1,14,5,11,2,7,4,10"
15142,commdev-image-keyboard-response,477,1729338,learnblock2,513.8999999761581,img/planet13_left.png,13,Community 1,NA,TRUE,f,f,NA,NA,NA,3,6,"13,8,3,6,12,15,9,1,14,5,11,2,7,4,10"
15142,commdev-image-keyboard-response,478,1730590,learnblock2,480.7000000476837,img/planet8_left.png,8,Community 1,NA,TRUE,f,f,NA,NA,NA,3,6,"13,8,3,6,12,15,9,1,14,5,11,2,7,4,10"
15142,commdev-image-keyboard-response,479,1731842,learnblock2,456.60000002384186,img/planet13_right.png,13,Community 1,NA,TRUE,j,j,NA,NA,NA,3,6,"13,8,3,6,12,15,9,1,14,5,11,2,7,4,10"
15142,commdev-image-keyboard-response,480,1733093,learnblock2,559.1000000238419,img/planet8_left.png,8,Community 1,NA,TRUE,f,f,NA,NA,NA,3,6,"13,8,3,6,12,15,9,1,14,5,11,2,7,4,10"
15142,commdev-image-keyboard-response,481,1734344,learnblock2,578.1000000238419,img/planet3_left.png,3,Community 1,NA,TRUE,f,f,NA,NA,NA,3,6,"13,8,3,6,12,15,9,1,14,5,11,2,7,4,10"
15142,commdev-image-keyboard-response,482,1735596,learnblock2,467.2999999523163,img/planet12_right.png,12,Community 1,NA,TRUE,j,j,NA,NA,NA,3,6,"13,8,3,6,12,15,9,1,14,5,11,2,7,4,10"
15142,commdev-image-keyboard-response,483,1736848,learnblock2,464.10000002384186,img/planet13_right.png,13,Community 1,NA,TRUE,j,j,NA,NA,NA,3,6,"13,8,3,6,12,15,9,1,14,5,11,2,7,4,10"
15142,commdev-image-keyboard-response,484,1738101,learnblock2,426.6999999284744,img/planet3_right.png,3,Community 1,NA,TRUE,j,j,NA,NA,NA,3,6,"13,8,3,6,12,15,9,1,14,5,11,2,7,4,10"
15142,commdev-image-keyboard-response,485,1739353,learnblock2,372.5,img/planet6_right.png,6,Community 1,NA,TRUE,j,j,NA,NA,NA,3,6,"13,8,3,6,12,15,9,1,14,5,11,2,7,4,10"
15142,commdev-image-keyboard-response,486,1740605,learnblock2,576.2000000476837,img/planet8_right.png,8,Community 1,NA,TRUE,j,j,NA,NA,NA,3,6,"13,8,3,6,12,15,9,1,14,5,11,2,7,4,10"
15142,commdev-image-keyboard-response,487,1741856,learnblock2,550.7000000476837,img/planet3_left.png,3,Community 1,NA,TRUE,f,f,NA,NA,NA,3,6,"13,8,3,6,12,15,9,1,14,5,11,2,7,4,10"
15142,commdev-image-keyboard-response,488,1743108,learnblock2,495.39999997615814,img/planet8_left.png,8,Community 1,NA,TRUE,f,f,NA,NA,NA,3,6,"13,8,3,6,12,15,9,1,14,5,11,2,7,4,10"
15142,commdev-image-keyboard-response,489,1744360,learnblock2,420.89999997615814,img/planet13_right.png,13,Community 1,NA,TRUE,j,j,NA,NA,NA,3,6,"13,8,3,6,12,15,9,1,14,5,11,2,7,4,10"
15142,commdev-image-keyboard-response,490,1745611,learnblock2,514.3000000715256,img/planet6_left.png,6,Community 1,NA,TRUE,f,f,NA,NA,NA,3,6,"13,8,3,6,12,15,9,1,14,5,11,2,7,4,10"
15142,commdev-image-keyboard-response,491,1746863,learnblock2,419.5,img/planet15_left.png,15,Community 2,NA,TRUE,f,f,NA,NA,NA,3,6,"13,8,3,6,12,15,9,1,14,5,11,2,7,4,10"
15142,commdev-image-keyboard-response,492,1748115,learnblock2,453.1999999284744,img/planet5_left.png,5,Community 2,NA,TRUE,f,f,NA,NA,NA,3,6,"13,8,3,6,12,15,9,1,14,5,11,2,7,4,10"
15142,commdev-image-keyboard-response,493,1749366,learnblock2,431.89999997615814,img/planet14_left.png,14,Community 2,NA,TRUE,f,f,NA,NA,NA,3,6,"13,8,3,6,12,15,9,1,14,5,11,2,7,4,10"
15142,commdev-image-keyboard-response,494,1750626,learnblock2,422.39999997615814,img/planet9_left.png,9,Community 2,NA,TRUE,f,f,NA,NA,NA,3,6,"13,8,3,6,12,15,9,1,14,5,11,2,7,4,10"
15142,commdev-image-keyboard-response,495,1751879,learnblock2,461.8000000715256,img/planet14_right.png,14,Community 2,NA,TRUE,j,j,NA,NA,NA,3,6,"13,8,3,6,12,15,9,1,14,5,11,2,7,4,10"
15142,commdev-image-keyboard-response,496,1753131,learnblock2,449.39999997615814,img/planet15_right.png,15,Community 2,NA,TRUE,j,j,NA,NA,NA,3,6,"13,8,3,6,12,15,9,1,14,5,11,2,7,4,10"
15142,commdev-image-keyboard-response,497,1754382,learnblock2,389.5,img/planet5_right.png,5,Community 2,NA,TRUE,j,j,NA,NA,NA,3,6,"13,8,3,6,12,15,9,1,14,5,11,2,7,4,10"
15142,commdev-image-keyboard-response,498,1755634,learnblock2,370.60000002384186,img/planet9_right.png,9,Community 2,NA,TRUE,j,j,NA,NA,NA,3,6,"13,8,3,6,12,15,9,1,14,5,11,2,7,4,10"
15142,commdev-image-keyboard-response,499,1756896,learnblock2,472.2999999523163,img/planet5_left.png,5,Community 2,NA,TRUE,f,f,NA,NA,NA,3,6,"13,8,3,6,12,15,9,1,14,5,11,2,7,4,10"
15142,commdev-image-keyboard-response,500,1758148,learnblock2,447.5,img/planet9_left.png,9,Community 2,NA,TRUE,f,f,NA,NA,NA,3,6,"13,8,3,6,12,15,9,1,14,5,11,2,7,4,10"
15142,commdev-image-keyboard-response,501,1759399,learnblock2,396,img/planet14_left.png,14,Community 2,NA,TRUE,f,f,NA,NA,NA,3,6,"13,8,3,6,12,15,9,1,14,5,11,2,7,4,10"
15142,commdev-image-keyboard-response,502,1760651,learnblock2,420.09999990463257,img/planet15_right.png,15,Community 2,NA,FALSE,f,j,NA,NA,NA,3,6,"13,8,3,6,12,15,9,1,14,5,11,2,7,4,10"
15142,commdev-image-keyboard-response,503,1761902,learnblock2,448.5,img/planet5_right.png,5,Community 2,NA,TRUE,j,j,NA,NA,NA,3,6,"13,8,3,6,12,15,9,1,14,5,11,2,7,4,10"
15142,commdev-image-keyboard-response,504,1763154,learnblock2,409,img/planet15_left.png,15,Community 2,NA,TRUE,f,f,NA,NA,NA,3,6,"13,8,3,6,12,15,9,1,14,5,11,2,7,4,10"
15142,commdev-image-keyboard-response,505,1764406,learnblock2,458.2000000476837,img/planet5_right.png,5,Community 2,NA,TRUE,j,j,NA,NA,NA,3,6,"13,8,3,6,12,15,9,1,14,5,11,2,7,4,10"
15142,commdev-image-keyboard-response,506,1765657,learnblock2,565.5999999046326,img/planet15_right.png,15,Community 2,NA,TRUE,j,j,NA,NA,NA,3,6,"13,8,3,6,12,15,9,1,14,5,11,2,7,4,10"
15142,commdev-image-keyboard-response,507,1766909,learnblock2,473.2000000476837,img/planet5_right.png,5,Community 2,NA,TRUE,j,j,NA,NA,NA,3,6,"13,8,3,6,12,15,9,1,14,5,11,2,7,4,10"
15142,commdev-image-keyboard-response,508,1768161,learnblock2,439.09999990463257,img/planet1_right.png,1,Community 2,NA,TRUE,j,j,NA,NA,NA,3,6,"13,8,3,6,12,15,9,1,14,5,11,2,7,4,10"
15142,commdev-image-keyboard-response,509,1769413,learnblock2,473.39999997615814,img/planet2_right.png,2,Community 3,NA,TRUE,j,j,NA,NA,NA,3,6,"13,8,3,6,12,15,9,1,14,5,11,2,7,4,10"
15142,commdev-image-keyboard-response,510,1770670,learnblock2,434.60000002384186,img/planet10_left.png,10,Community 3,NA,TRUE,f,f,NA,NA,NA,3,6,"13,8,3,6,12,15,9,1,14,5,11,2,7,4,10"
15142,commdev-image-keyboard-response,511,1771922,learnblock2,441,img/planet7_right.png,7,Community 3,NA,TRUE,j,j,NA,NA,NA,3,6,"13,8,3,6,12,15,9,1,14,5,11,2,7,4,10"
15142,commdev-image-keyboard-response,512,1773181,learnblock2,363.59999990463257,img/planet10_right.png,10,Community 3,NA,TRUE,j,j,NA,NA,NA,3,6,"13,8,3,6,12,15,9,1,14,5,11,2,7,4,10"
15142,commdev-image-keyboard-response,513,1774445,learnblock2,349.3000000715256,img/planet2_right.png,2,Community 3,NA,TRUE,j,j,NA,NA,NA,3,6,"13,8,3,6,12,15,9,1,14,5,11,2,7,4,10"
15142,commdev-image-keyboard-response,514,1775697,learnblock2,508.89999997615814,img/planet1_right.png,1,Community 2,NA,TRUE,j,j,NA,NA,NA,3,6,"13,8,3,6,12,15,9,1,14,5,11,2,7,4,10"
15142,commdev-image-keyboard-response,515,1776949,learnblock2,530.1999999284744,img/planet14_left.png,14,Community 2,NA,TRUE,f,f,NA,NA,NA,3,6,"13,8,3,6,12,15,9,1,14,5,11,2,7,4,10"
15142,commdev-image-keyboard-response,516,1778201,learnblock2,485.60000002384186,img/planet5_right.png,5,Community 2,NA,TRUE,j,j,NA,NA,NA,3,6,"13,8,3,6,12,15,9,1,14,5,11,2,7,4,10"
15142,commdev-image-keyboard-response,517,1779454,learnblock2,507.90000009536743,img/planet1_left.png,1,Community 2,NA,TRUE,f,f,NA,NA,NA,3,6,"13,8,3,6,12,15,9,1,14,5,11,2,7,4,10"
15142,commdev-image-keyboard-response,518,1780706,learnblock2,454.40000009536743,img/planet2_right.png,2,Community 3,NA,TRUE,j,j,NA,NA,NA,3,6,"13,8,3,6,12,15,9,1,14,5,11,2,7,4,10"
15142,commdev-image-keyboard-response,519,1781958,learnblock2,491.10000002384186,img/planet4_left.png,4,Community 3,NA,TRUE,f,f,NA,NA,NA,3,6,"13,8,3,6,12,15,9,1,14,5,11,2,7,4,10"
15142,commdev-image-keyboard-response,520,1783209,learnblock2,458.8000000715256,img/planet11_right.png,11,Community 3,NA,TRUE,j,j,NA,NA,NA,3,6,"13,8,3,6,12,15,9,1,14,5,11,2,7,4,10"
15142,commdev-image-keyboard-response,521,1784461,learnblock2,446.10000002384186,img/planet12_left.png,12,Community 1,NA,TRUE,f,f,NA,NA,NA,3,6,"13,8,3,6,12,15,9,1,14,5,11,2,7,4,10"
15142,commdev-image-keyboard-response,522,1785712,learnblock2,581.3999999761581,img/planet3_left.png,3,Community 1,NA,TRUE,f,f,NA,NA,NA,3,6,"13,8,3,6,12,15,9,1,14,5,11,2,7,4,10"
15142,commdev-image-keyboard-response,523,1786963,learnblock2,438.8000000715256,img/planet8_right.png,8,Community 1,NA,TRUE,j,j,NA,NA,NA,3,6,"13,8,3,6,12,15,9,1,14,5,11,2,7,4,10"
15142,commdev-image-keyboard-response,524,1788214,learnblock2,418.8000000715256,img/planet12_right.png,12,Community 1,NA,TRUE,j,j,NA,NA,NA,3,6,"13,8,3,6,12,15,9,1,14,5,11,2,7,4,10"
15142,commdev-image-keyboard-response,525,1789465,learnblock2,438.59999990463257,img/planet3_right.png,3,Community 1,NA,TRUE,j,j,NA,NA,NA,3,6,"13,8,3,6,12,15,9,1,14,5,11,2,7,4,10"
15142,commdev-image-keyboard-response,526,1790718,learnblock2,445.5,img/planet12_right.png,12,Community 1,NA,TRUE,j,j,NA,NA,NA,3,6,"13,8,3,6,12,15,9,1,14,5,11,2,7,4,10"
15142,commdev-image-keyboard-response,527,1791969,learnblock2,407.3000000715256,img/planet11_right.png,11,Community 3,NA,TRUE,j,j,NA,NA,NA,3,6,"13,8,3,6,12,15,9,1,14,5,11,2,7,4,10"
15142,commdev-image-keyboard-response,528,1793225,learnblock2,508.39999997615814,img/planet10_right.png,10,Community 3,NA,TRUE,j,j,NA,NA,NA,3,6,"13,8,3,6,12,15,9,1,14,5,11,2,7,4,10"
15142,commdev-image-keyboard-response,529,1794476,learnblock2,396.2000000476837,img/planet2_right.png,2,Community 3,NA,TRUE,j,j,NA,NA,NA,3,6,"13,8,3,6,12,15,9,1,14,5,11,2,7,4,10"
15142,commdev-image-keyboard-response,530,1795728,learnblock2,471.89999997615814,img/planet4_right.png,4,Community 3,NA,TRUE,j,j,NA,NA,NA,3,6,"13,8,3,6,12,15,9,1,14,5,11,2,7,4,10"
15142,commdev-image-keyboard-response,531,1796980,learnblock2,442.60000002384186,img/planet7_right.png,7,Community 3,NA,TRUE,j,j,NA,NA,NA,3,6,"13,8,3,6,12,15,9,1,14,5,11,2,7,4,10"
15142,commdev-image-keyboard-response,532,1798232,learnblock2,436.2000000476837,img/planet10_right.png,10,Community 3,NA,TRUE,j,j,NA,NA,NA,3,6,"13,8,3,6,12,15,9,1,14,5,11,2,7,4,10"
15142,commdev-image-keyboard-response,533,1799485,learnblock2,485.10000002384186,img/planet11_left.png,11,Community 3,NA,TRUE,f,f,NA,NA,NA,3,6,"13,8,3,6,12,15,9,1,14,5,11,2,7,4,10"
15142,commdev-image-keyboard-response,534,1800736,learnblock2,468.59999990463257,img/planet10_left.png,10,Community 3,NA,TRUE,f,f,NA,NA,NA,3,6,"13,8,3,6,12,15,9,1,14,5,11,2,7,4,10"
15142,commdev-image-keyboard-response,535,1802001,learnblock2,454.10000002384186,img/planet4_left.png,4,Community 3,NA,TRUE,f,f,NA,NA,NA,3,6,"13,8,3,6,12,15,9,1,14,5,11,2,7,4,10"
15142,commdev-image-keyboard-response,536,1803253,learnblock2,427.6999999284744,img/planet7_left.png,7,Community 3,NA,TRUE,f,f,NA,NA,NA,3,6,"13,8,3,6,12,15,9,1,14,5,11,2,7,4,10"
15142,commdev-image-keyboard-response,537,1804505,learnblock2,342.2999999523163,img/planet10_left.png,10,Community 3,NA,TRUE,f,f,NA,NA,NA,3,6,"13,8,3,6,12,15,9,1,14,5,11,2,7,4,10"
15142,commdev-image-keyboard-response,538,1805756,learnblock2,562.1000000238419,img/planet4_left.png,4,Community 3,NA,TRUE,f,f,NA,NA,NA,3,6,"13,8,3,6,12,15,9,1,14,5,11,2,7,4,10"
15142,commdev-image-keyboard-response,539,1807011,learnblock2,456.7999999523163,img/planet11_right.png,11,Community 3,NA,TRUE,j,j,NA,NA,NA,3,6,"13,8,3,6,12,15,9,1,14,5,11,2,7,4,10"
15142,commdev-image-keyboard-response,540,1808262,learnblock2,380.3000000715256,img/planet4_right.png,4,Community 3,NA,TRUE,j,j,NA,NA,NA,3,6,"13,8,3,6,12,15,9,1,14,5,11,2,7,4,10"
15142,commdev-image-keyboard-response,541,1809522,learnblock2,465.7000000476837,img/planet10_right.png,10,Community 3,NA,TRUE,j,j,NA,NA,NA,3,6,"13,8,3,6,12,15,9,1,14,5,11,2,7,4,10"
15142,commdev-image-keyboard-response,542,1810775,learnblock2,456.5,img/planet7_left.png,7,Community 3,NA,TRUE,f,f,NA,NA,NA,3,6,"13,8,3,6,12,15,9,1,14,5,11,2,7,4,10"
15142,commdev-image-keyboard-response,543,1812027,learnblock2,469.3000000715256,img/planet4_right.png,4,Community 3,NA,TRUE,j,j,NA,NA,NA,3,6,"13,8,3,6,12,15,9,1,14,5,11,2,7,4,10"
15142,commdev-image-keyboard-response,544,1813279,learnblock2,448.89999997615814,img/planet11_left.png,11,Community 3,NA,TRUE,f,f,NA,NA,NA,3,6,"13,8,3,6,12,15,9,1,14,5,11,2,7,4,10"
15142,commdev-image-keyboard-response,545,1814529,learnblock2,417.1999999284744,img/planet10_left.png,10,Community 3,NA,TRUE,f,f,NA,NA,NA,3,6,"13,8,3,6,12,15,9,1,14,5,11,2,7,4,10"
15142,commdev-image-keyboard-response,546,1815782,learnblock2,447.5,img/planet2_right.png,2,Community 3,NA,TRUE,j,j,NA,NA,NA,3,6,"13,8,3,6,12,15,9,1,14,5,11,2,7,4,10"
15142,commdev-image-keyboard-response,547,1817033,learnblock2,395.39999997615814,img/planet4_right.png,4,Community 3,NA,TRUE,j,j,NA,NA,NA,3,6,"13,8,3,6,12,15,9,1,14,5,11,2,7,4,10"
15142,commdev-image-keyboard-response,548,1818285,learnblock2,374.7000000476837,img/planet10_right.png,10,Community 3,NA,TRUE,j,j,NA,NA,NA,3,6,"13,8,3,6,12,15,9,1,14,5,11,2,7,4,10"
15142,commdev-image-keyboard-response,549,1819537,learnblock2,498.59999990463257,img/planet7_left.png,7,Community 3,NA,TRUE,f,f,NA,NA,NA,3,6,"13,8,3,6,12,15,9,1,14,5,11,2,7,4,10"
15142,commdev-image-keyboard-response,550,1820788,learnblock2,390.90000009536743,img/planet10_right.png,10,Community 3,NA,TRUE,j,j,NA,NA,NA,3,6,"13,8,3,6,12,15,9,1,14,5,11,2,7,4,10"
15142,commdev-image-keyboard-response,551,1822038,learnblock2,400.89999997615814,img/planet11_right.png,11,Community 3,NA,TRUE,j,j,NA,NA,NA,3,6,"13,8,3,6,12,15,9,1,14,5,11,2,7,4,10"
15142,commdev-image-keyboard-response,552,1823290,learnblock2,401.60000002384186,img/planet12_right.png,12,Community 1,NA,TRUE,j,j,NA,NA,NA,3,6,"13,8,3,6,12,15,9,1,14,5,11,2,7,4,10"
15142,commdev-image-keyboard-response,553,1824542,learnblock2,463.60000002384186,img/planet11_right.png,11,Community 3,NA,TRUE,j,j,NA,NA,NA,3,6,"13,8,3,6,12,15,9,1,14,5,11,2,7,4,10"
15142,commdev-image-keyboard-response,554,1825794,learnblock2,392.10000002384186,img/planet4_right.png,4,Community 3,NA,TRUE,j,j,NA,NA,NA,3,6,"13,8,3,6,12,15,9,1,14,5,11,2,7,4,10"
15142,commdev-image-keyboard-response,555,1827045,learnblock2,376.2000000476837,img/planet10_left.png,10,Community 3,NA,TRUE,f,f,NA,NA,NA,3,6,"13,8,3,6,12,15,9,1,14,5,11,2,7,4,10"
15142,commdev-image-keyboard-response,556,1828311,learnblock2,393.5,img/planet2_left.png,2,Community 3,NA,TRUE,f,f,NA,NA,NA,3,6,"13,8,3,6,12,15,9,1,14,5,11,2,7,4,10"
15142,commdev-image-keyboard-response,557,1829562,learnblock2,369.2999999523163,img/planet1_right.png,1,Community 2,NA,TRUE,j,j,NA,NA,NA,3,6,"13,8,3,6,12,15,9,1,14,5,11,2,7,4,10"
15142,commdev-image-keyboard-response,558,1830814,learnblock2,385.89999997615814,img/planet14_left.png,14,Community 2,NA,FALSE,j,f,NA,NA,NA,3,6,"13,8,3,6,12,15,9,1,14,5,11,2,7,4,10"
15142,commdev-image-keyboard-response,559,1832065,learnblock2,477.5,img/planet1_right.png,1,Community 2,NA,TRUE,j,j,NA,NA,NA,3,6,"13,8,3,6,12,15,9,1,14,5,11,2,7,4,10"
15142,commdev-image-keyboard-response,560,1833316,learnblock2,481.39999997615814,img/planet5_right.png,5,Community 2,NA,TRUE,j,j,NA,NA,NA,3,6,"13,8,3,6,12,15,9,1,14,5,11,2,7,4,10"
15142,commdev-image-keyboard-response,561,1834568,learnblock2,505.8000000715256,img/planet1_right.png,1,Community 2,NA,TRUE,j,j,NA,NA,NA,3,6,"13,8,3,6,12,15,9,1,14,5,11,2,7,4,10"
15142,commdev-image-keyboard-response,562,1835819,learnblock2,472.89999997615814,img/planet9_left.png,9,Community 2,NA,TRUE,f,f,NA,NA,NA,3,6,"13,8,3,6,12,15,9,1,14,5,11,2,7,4,10"
15142,commdev-image-keyboard-response,563,1837071,learnblock2,473.5,img/planet1_right.png,1,Community 2,NA,TRUE,j,j,NA,NA,NA,3,6,"13,8,3,6,12,15,9,1,14,5,11,2,7,4,10"
15142,commdev-image-keyboard-response,564,1838323,learnblock2,409.39999997615814,img/planet2_left.png,2,Community 3,NA,TRUE,f,f,NA,NA,NA,3,6,"13,8,3,6,12,15,9,1,14,5,11,2,7,4,10"
15142,commdev-image-keyboard-response,565,1839574,learnblock2,406.10000002384186,img/planet1_left.png,1,Community 2,NA,TRUE,f,f,NA,NA,NA,3,6,"13,8,3,6,12,15,9,1,14,5,11,2,7,4,10"
15142,commdev-image-keyboard-response,566,1840826,learnblock2,522.9000000953674,img/planet5_left.png,5,Community 2,NA,TRUE,f,f,NA,NA,NA,3,6,"13,8,3,6,12,15,9,1,14,5,11,2,7,4,10"
15142,commdev-image-keyboard-response,567,1842078,learnblock2,523.7000000476837,img/planet9_left.png,9,Community 2,NA,TRUE,f,f,NA,NA,NA,3,6,"13,8,3,6,12,15,9,1,14,5,11,2,7,4,10"
15142,commdev-image-keyboard-response,568,1843340,learnblock2,448.59999990463257,img/planet5_right.png,5,Community 2,NA,TRUE,j,j,NA,NA,NA,3,6,"13,8,3,6,12,15,9,1,14,5,11,2,7,4,10"
15142,commdev-image-keyboard-response,569,1844592,learnblock2,480.2999999523163,img/planet15_left.png,15,Community 2,NA,TRUE,f,f,NA,NA,NA,3,6,"13,8,3,6,12,15,9,1,14,5,11,2,7,4,10"
15142,commdev-image-keyboard-response,570,1845843,learnblock2,420.2000000476837,img/planet5_right.png,5,Community 2,NA,TRUE,j,j,NA,NA,NA,3,6,"13,8,3,6,12,15,9,1,14,5,11,2,7,4,10"
15142,commdev-image-keyboard-response,571,1847094,learnblock2,502.10000002384186,img/planet14_right.png,14,Community 2,NA,TRUE,j,j,NA,NA,NA,3,6,"13,8,3,6,12,15,9,1,14,5,11,2,7,4,10"
15142,commdev-image-keyboard-response,572,1848347,learnblock2,486.10000002384186,img/planet5_left.png,5,Community 2,NA,TRUE,f,f,NA,NA,NA,3,6,"13,8,3,6,12,15,9,1,14,5,11,2,7,4,10"
15142,commdev-image-keyboard-response,573,1849606,learnblock2,600.5,img/planet15_right.png,15,Community 2,NA,TRUE,j,j,NA,NA,NA,3,6,"13,8,3,6,12,15,9,1,14,5,11,2,7,4,10"
15142,commdev-image-keyboard-response,574,1850858,learnblock2,503.89999997615814,img/planet14_left.png,14,Community 2,NA,TRUE,f,f,NA,NA,NA,3,6,"13,8,3,6,12,15,9,1,14,5,11,2,7,4,10"
15142,commdev-image-keyboard-response,575,1852110,learnblock2,478.5,img/planet1_left.png,1,Community 2,NA,TRUE,f,f,NA,NA,NA,3,6,"13,8,3,6,12,15,9,1,14,5,11,2,7,4,10"
15142,commdev-image-keyboard-response,576,1853363,learnblock2,433.10000002384186,img/planet2_right.png,2,Community 3,NA,TRUE,j,j,NA,NA,NA,3,6,"13,8,3,6,12,15,9,1,14,5,11,2,7,4,10"
15142,commdev-image-keyboard-response,577,1854613,learnblock2,453.2999999523163,img/planet1_right.png,1,Community 2,NA,TRUE,j,j,NA,NA,NA,3,6,"13,8,3,6,12,15,9,1,14,5,11,2,7,4,10"
15142,commdev-image-keyboard-response,578,1855866,learnblock2,458.10000002384186,img/planet2_left.png,2,Community 3,NA,TRUE,f,f,NA,NA,NA,3,6,"13,8,3,6,12,15,9,1,14,5,11,2,7,4,10"
15142,commdev-image-keyboard-response,579,1857118,learnblock2,583.1000000238419,img/planet7_left.png,7,Community 3,NA,TRUE,f,f,NA,NA,NA,3,6,"13,8,3,6,12,15,9,1,14,5,11,2,7,4,10"
15142,commdev-image-keyboard-response,580,1858369,learnblock2,532.8999999761581,img/planet4_left.png,4,Community 3,NA,TRUE,f,f,NA,NA,NA,3,6,"13,8,3,6,12,15,9,1,14,5,11,2,7,4,10"
15142,commdev-image-keyboard-response,581,1859620,learnblock2,499.39999997615814,img/planet2_left.png,2,Community 3,NA,TRUE,f,f,NA,NA,NA,3,6,"13,8,3,6,12,15,9,1,14,5,11,2,7,4,10"
