subject_id,trial_type,trial_index,time_elapsed,block,rt,stimulus,planet,community,response,correct,key_press,learning_correct_response,parse,init_locations,final_locations,browser_interactions,num_comp,planet_map
14087,commdev-instructions,7,35515,NA,5233,"<p>In this game, you are a scientist on board a space shuttle. </p><p> On each mission, you will visit planets all across the universe.</p><img src=""img/controlroom.jpg"" width=300vw>",NA,NA,NA,NA,NA,NA,NA,NA,NA,NA,7,"1,15,10,13,6,3,4,2,14,12,5,11,8,7,9"
14087,commdev-instructions,8,38840,NA,1249,"<p>Here are a few planets you might see:</p><img src=""img/practice1.png"" width=200vw><img src=""img/practice2.png"" width=200vw><img src=""img/practice3.png"" width=200vw>",NA,NA,NA,NA,NA,NA,NA,NA,NA,NA,7,"1,15,10,13,6,3,4,2,14,12,5,11,8,7,9"
14087,commdev-instructions,9,49641,NA,3390,"<p>Your job as a scientist is to record which direction the winds are moving on each planet.</p><p>There are two types of wind directions:</p><img src=""img/practice1_left.png"" width=200vw><img src=""img/practice1_right.png"" width=200vw>",NA,NA,NA,NA,NA,NA,NA,NA,NA,NA,7,"1,15,10,13,6,3,4,2,14,12,5,11,8,7,9"
14087,commdev-instructions,10,58510,NA,3977,"<p>If the winds are moving this way, press the letter <strong>F</strong> on the keyboard as fast as you can.</p><img src=""img/leftwind.png"" width=250vw>",NA,NA,NA,NA,NA,NA,NA,NA,NA,NA,7,"1,15,10,13,6,3,4,2,14,12,5,11,8,7,9"
14087,commdev-instructions,11,66113,NA,3081,"<p>If the winds are moving this way, press the letter <strong>J</strong> on the keyboard as fast as you can.</p><img src=""img/rightwind.png"" width=350vw>",NA,NA,NA,NA,NA,NA,NA,NA,NA,NA,7,"1,15,10,13,6,3,4,2,14,12,5,11,8,7,9"
14087,commdev-instructions,12,72599,NA,2057,<p>You will have 1 second to respond. Try to respond before the time runs out!,NA,NA,NA,NA,NA,NA,NA,NA,NA,NA,7,"1,15,10,13,6,3,4,2,14,12,5,11,8,7,9"
14087,commdev-instructions,13,81402,NA,3350,<p>The planets you will visit will look different from each other.</p><p>You should respond <strong>only</strong> based on wind direction.,NA,NA,NA,NA,NA,NA,NA,NA,NA,NA,7,"1,15,10,13,6,3,4,2,14,12,5,11,8,7,9"
14087,commdev-instructions,14,87794,NA,1202,"<p> Ready to start the practice round? </p><p> Remember, press <strong>F</strong> or <strong>J</strong> depending on the wind direction.<br><img src=""img/categorize_planet_example.png""",NA,NA,NA,NA,NA,NA,NA,NA,NA,NA,7,"1,15,10,13,6,3,4,2,14,12,5,11,8,7,9"
14087,commdev-instructions,26,145537,NA,985,"<p>Great, now try a short practice mission. </p><p> This time, you will have 1 second to respond and you won't know whether you pressed the right or wrong key for each planet.</p>",NA,NA,NA,NA,NA,NA,NA,NA,NA,NA,7,"1,15,10,13,6,3,4,2,14,12,5,11,8,7,9"
14087,commdev-image-keyboard-response,27,146912,practice,939,img/practice2_right.png,NA,Number not found in mappings,NA,TRUE,j,j,NA,NA,NA,NA,7,"1,15,10,13,6,3,4,2,14,12,5,11,8,7,9"
14087,commdev-image-keyboard-response,28,148267,practice,853,img/practice3_right.png,NA,Number not found in mappings,NA,TRUE,j,j,NA,NA,NA,NA,7,"1,15,10,13,6,3,4,2,14,12,5,11,8,7,9"
14087,commdev-image-keyboard-response,29,149526,practice,797,img/practice2_left.png,NA,Number not found in mappings,NA,TRUE,f,f,NA,NA,NA,NA,7,"1,15,10,13,6,3,4,2,14,12,5,11,8,7,9"
14087,commdev-image-keyboard-response,30,150782,practice,585,img/practice1_left.png,NA,Number not found in mappings,NA,TRUE,f,f,NA,NA,NA,NA,7,"1,15,10,13,6,3,4,2,14,12,5,11,8,7,9"
14087,commdev-image-keyboard-response,31,152038,practice,null,img/practice3_right.png,NA,Number not found in mappings,NA,FALSE,null,j,NA,NA,NA,NA,7,"1,15,10,13,6,3,4,2,14,12,5,11,8,7,9"
14087,commdev-image-keyboard-response,32,153299,practice,561,img/practice4_right.png,NA,Number not found in mappings,NA,TRUE,j,j,NA,NA,NA,NA,7,"1,15,10,13,6,3,4,2,14,12,5,11,8,7,9"
14087,commdev-image-keyboard-response,33,154557,practice,null,img/practice1_right.png,NA,Number not found in mappings,NA,FALSE,null,j,NA,NA,NA,NA,7,"1,15,10,13,6,3,4,2,14,12,5,11,8,7,9"
14087,commdev-image-keyboard-response,34,155818,practice,516,img/practice4_right.png,NA,Number not found in mappings,NA,TRUE,j,j,NA,NA,NA,NA,7,"1,15,10,13,6,3,4,2,14,12,5,11,8,7,9"
14087,commdev-instructions,35,166998,NA,1616,"<p>Great job with the practice round.</p><p>During real missions, you won't know whether you pressed the right or wrong key for each planet.</p><p>But between missions, we will tell you how you did overall.</p>",NA,NA,NA,NA,NA,NA,NA,NA,NA,NA,7,"1,15,10,13,6,3,4,2,14,12,5,11,8,7,9"
14087,commdev-instructions,36,178269,NA,3018,<p>Try your best! You will be paid a bonus based on how many correct responses you make!</p><p>Responses that are too slow will not count toward your bonus.</p>,NA,NA,NA,NA,NA,NA,NA,NA,NA,NA,7,"1,15,10,13,6,3,4,2,14,12,5,11,8,7,9"
14087,commdev-instructions,37,186321,NA,1839,"<p>You are almost ready to start the real game.</p><p> First, we are going to ask you some questions about how the game works.</p>",NA,NA,NA,NA,NA,NA,NA,NA,NA,NA,7,"1,15,10,13,6,3,4,2,14,12,5,11,8,7,9"
14087,commdev-instructions,46,279703,NA,1091,"<p> Nice work! It is now time to start the real game.<p></p>You will go on two missions to record wind directions of different planets.<p></p>Each one will take about 5 minutes. You will get to take a break between missions.<p><p> Remember, press <strong>F</strong> or <strong>J</strong> depending on the wind direction. Good luck!<br><img src=""img/categorize_planet_example.png""",NA,NA,NA,NA,NA,NA,NA,NA,NA,NA,7,"1,15,10,13,6,3,4,2,14,12,5,11,8,7,9"
14087,commdev-image-keyboard-response,48,282511,learnblock1,1093,img/planet9_left.png,9,Community 3,NA,TRUE,f,f,NA,NA,NA,NA,7,"1,15,10,13,6,3,4,2,14,12,5,11,8,7,9"
14087,commdev-image-keyboard-response,49,283770,learnblock1,866,img/planet11_left.png,11,Community 3,NA,TRUE,f,f,NA,NA,NA,NA,7,"1,15,10,13,6,3,4,2,14,12,5,11,8,7,9"
14087,commdev-image-keyboard-response,50,285030,learnblock1,855,img/planet7_left.png,7,Community 3,NA,TRUE,f,f,NA,NA,NA,NA,7,"1,15,10,13,6,3,4,2,14,12,5,11,8,7,9"
14087,commdev-image-keyboard-response,51,286287,learnblock1,871,img/planet11_right.png,11,Community 3,NA,TRUE,j,j,NA,NA,NA,NA,7,"1,15,10,13,6,3,4,2,14,12,5,11,8,7,9"
14087,commdev-image-keyboard-response,52,287548,learnblock1,895,img/planet8_right.png,8,Community 3,NA,TRUE,j,j,NA,NA,NA,NA,7,"1,15,10,13,6,3,4,2,14,12,5,11,8,7,9"
14087,commdev-image-keyboard-response,53,288810,learnblock1,824,img/planet11_left.png,11,Community 3,NA,TRUE,f,f,NA,NA,NA,NA,7,"1,15,10,13,6,3,4,2,14,12,5,11,8,7,9"
14087,commdev-image-keyboard-response,54,290070,learnblock1,720,img/planet7_left.png,7,Community 3,NA,TRUE,f,f,NA,NA,NA,NA,7,"1,15,10,13,6,3,4,2,14,12,5,11,8,7,9"
14087,commdev-image-keyboard-response,55,291331,learnblock1,713,img/planet11_right.png,11,Community 3,NA,TRUE,j,j,NA,NA,NA,NA,7,"1,15,10,13,6,3,4,2,14,12,5,11,8,7,9"
14087,commdev-image-keyboard-response,56,292590,learnblock1,811,img/planet8_left.png,8,Community 3,NA,TRUE,f,f,NA,NA,NA,NA,7,"1,15,10,13,6,3,4,2,14,12,5,11,8,7,9"
14087,commdev-image-keyboard-response,57,293854,learnblock1,979,img/planet7_right.png,7,Community 3,NA,TRUE,j,j,NA,NA,NA,NA,7,"1,15,10,13,6,3,4,2,14,12,5,11,8,7,9"
14087,commdev-image-keyboard-response,58,295111,learnblock1,767,img/planet5_right.png,5,Community 3,NA,TRUE,j,j,NA,NA,NA,NA,7,"1,15,10,13,6,3,4,2,14,12,5,11,8,7,9"
14087,commdev-image-keyboard-response,59,296371,learnblock1,866,img/planet6_left.png,6,Community 1,NA,TRUE,f,f,NA,NA,NA,NA,7,"1,15,10,13,6,3,4,2,14,12,5,11,8,7,9"
14087,commdev-image-keyboard-response,60,297636,learnblock1,728,img/planet10_right.png,10,Community 1,NA,TRUE,j,j,NA,NA,NA,NA,7,"1,15,10,13,6,3,4,2,14,12,5,11,8,7,9"
14087,commdev-image-keyboard-response,61,298897,learnblock1,868,img/planet13_right.png,13,Community 1,NA,TRUE,j,j,NA,NA,NA,NA,7,"1,15,10,13,6,3,4,2,14,12,5,11,8,7,9"
14087,commdev-image-keyboard-response,62,300157,learnblock1,822,img/planet3_left.png,3,Community 2,NA,TRUE,f,f,NA,NA,NA,NA,7,"1,15,10,13,6,3,4,2,14,12,5,11,8,7,9"
14087,commdev-image-keyboard-response,63,301417,learnblock1,727,img/planet13_left.png,13,Community 1,NA,TRUE,f,f,NA,NA,NA,NA,7,"1,15,10,13,6,3,4,2,14,12,5,11,8,7,9"
14087,commdev-image-keyboard-response,64,302677,learnblock1,726,img/planet3_right.png,3,Community 2,NA,TRUE,j,j,NA,NA,NA,NA,7,"1,15,10,13,6,3,4,2,14,12,5,11,8,7,9"
14087,commdev-image-keyboard-response,65,303940,learnblock1,737,img/planet4_right.png,4,Community 2,NA,TRUE,j,j,NA,NA,NA,NA,7,"1,15,10,13,6,3,4,2,14,12,5,11,8,7,9"
14087,commdev-image-keyboard-response,66,305197,learnblock1,706,img/planet12_right.png,12,Community 2,NA,TRUE,j,j,NA,NA,NA,NA,7,"1,15,10,13,6,3,4,2,14,12,5,11,8,7,9"
14087,commdev-image-keyboard-response,67,306458,learnblock1,862,img/planet2_left.png,2,Community 2,NA,TRUE,f,f,NA,NA,NA,NA,7,"1,15,10,13,6,3,4,2,14,12,5,11,8,7,9"
14087,commdev-image-keyboard-response,68,307719,learnblock1,677,img/planet12_right.png,12,Community 2,NA,TRUE,j,j,NA,NA,NA,NA,7,"1,15,10,13,6,3,4,2,14,12,5,11,8,7,9"
14087,commdev-image-keyboard-response,69,308979,learnblock1,992,img/planet2_left.png,2,Community 2,NA,TRUE,f,f,NA,NA,NA,NA,7,"1,15,10,13,6,3,4,2,14,12,5,11,8,7,9"
14087,commdev-image-keyboard-response,70,310237,learnblock1,930,img/planet12_left.png,12,Community 2,NA,TRUE,f,f,NA,NA,NA,NA,7,"1,15,10,13,6,3,4,2,14,12,5,11,8,7,9"
14087,commdev-image-keyboard-response,71,311498,learnblock1,889,img/planet14_right.png,14,Community 2,NA,TRUE,j,j,NA,NA,NA,NA,7,"1,15,10,13,6,3,4,2,14,12,5,11,8,7,9"
14087,commdev-image-keyboard-response,72,312761,learnblock1,861,img/planet2_left.png,2,Community 2,NA,TRUE,f,f,NA,NA,NA,NA,7,"1,15,10,13,6,3,4,2,14,12,5,11,8,7,9"
14087,commdev-image-keyboard-response,73,314020,learnblock1,824,img/planet14_left.png,14,Community 2,NA,TRUE,f,f,NA,NA,NA,NA,7,"1,15,10,13,6,3,4,2,14,12,5,11,8,7,9"
14087,commdev-image-keyboard-response,74,315283,learnblock1,554,img/planet4_right.png,4,Community 2,NA,TRUE,j,j,NA,NA,NA,NA,7,"1,15,10,13,6,3,4,2,14,12,5,11,8,7,9"
14087,commdev-image-keyboard-response,75,316545,learnblock1,761,img/planet14_right.png,14,Community 2,NA,TRUE,j,j,NA,NA,NA,NA,7,"1,15,10,13,6,3,4,2,14,12,5,11,8,7,9"
14087,commdev-image-keyboard-response,76,317808,learnblock1,918,img/planet12_right.png,12,Community 2,NA,TRUE,j,j,NA,NA,NA,NA,7,"1,15,10,13,6,3,4,2,14,12,5,11,8,7,9"
14087,commdev-image-keyboard-response,77,319070,learnblock1,789,img/planet4_right.png,4,Community 2,NA,TRUE,j,j,NA,NA,NA,NA,7,"1,15,10,13,6,3,4,2,14,12,5,11,8,7,9"
14087,commdev-image-keyboard-response,78,320330,learnblock1,714,img/planet2_left.png,2,Community 2,NA,TRUE,f,f,NA,NA,NA,NA,7,"1,15,10,13,6,3,4,2,14,12,5,11,8,7,9"
14087,commdev-image-keyboard-response,79,321589,learnblock1,802,img/planet4_right.png,4,Community 2,NA,TRUE,j,j,NA,NA,NA,NA,7,"1,15,10,13,6,3,4,2,14,12,5,11,8,7,9"
14087,commdev-image-keyboard-response,80,322846,learnblock1,643,img/planet12_left.png,12,Community 2,NA,TRUE,f,f,NA,NA,NA,NA,7,"1,15,10,13,6,3,4,2,14,12,5,11,8,7,9"
14087,commdev-image-keyboard-response,81,324124,learnblock1,782,img/planet14_right.png,14,Community 2,NA,TRUE,j,j,NA,NA,NA,NA,7,"1,15,10,13,6,3,4,2,14,12,5,11,8,7,9"
14087,commdev-image-keyboard-response,82,325383,learnblock1,641,img/planet3_left.png,3,Community 2,NA,TRUE,f,f,NA,NA,NA,NA,7,"1,15,10,13,6,3,4,2,14,12,5,11,8,7,9"
14087,commdev-image-keyboard-response,83,326643,learnblock1,650,img/planet13_left.png,13,Community 1,NA,TRUE,f,f,NA,NA,NA,NA,7,"1,15,10,13,6,3,4,2,14,12,5,11,8,7,9"
14087,commdev-image-keyboard-response,84,327906,learnblock1,762,img/planet3_right.png,3,Community 2,NA,TRUE,j,j,NA,NA,NA,NA,7,"1,15,10,13,6,3,4,2,14,12,5,11,8,7,9"
14087,commdev-image-keyboard-response,85,329165,learnblock1,817,img/planet12_right.png,12,Community 2,NA,TRUE,j,j,NA,NA,NA,NA,7,"1,15,10,13,6,3,4,2,14,12,5,11,8,7,9"
14087,commdev-image-keyboard-response,86,330424,learnblock1,669,img/planet14_left.png,14,Community 2,NA,TRUE,f,f,NA,NA,NA,NA,7,"1,15,10,13,6,3,4,2,14,12,5,11,8,7,9"
14087,commdev-image-keyboard-response,87,331687,learnblock1,617,img/planet12_right.png,12,Community 2,NA,TRUE,j,j,NA,NA,NA,NA,7,"1,15,10,13,6,3,4,2,14,12,5,11,8,7,9"
14087,commdev-image-keyboard-response,88,333054,learnblock1,618,img/planet4_left.png,4,Community 2,NA,TRUE,f,f,NA,NA,NA,NA,7,"1,15,10,13,6,3,4,2,14,12,5,11,8,7,9"
14087,commdev-image-keyboard-response,89,334316,learnblock1,564,img/planet14_right.png,14,Community 2,NA,TRUE,j,j,NA,NA,NA,NA,7,"1,15,10,13,6,3,4,2,14,12,5,11,8,7,9"
14087,commdev-image-keyboard-response,90,335574,learnblock1,584,img/planet4_left.png,4,Community 2,NA,TRUE,f,f,NA,NA,NA,NA,7,"1,15,10,13,6,3,4,2,14,12,5,11,8,7,9"
14087,commdev-image-keyboard-response,91,336834,learnblock1,622,img/planet14_right.png,14,Community 2,NA,TRUE,j,j,NA,NA,NA,NA,7,"1,15,10,13,6,3,4,2,14,12,5,11,8,7,9"
14087,commdev-image-keyboard-response,92,338096,learnblock1,841,img/planet3_right.png,3,Community 2,NA,TRUE,j,j,NA,NA,NA,NA,7,"1,15,10,13,6,3,4,2,14,12,5,11,8,7,9"
14087,commdev-image-keyboard-response,93,339357,learnblock1,763,img/planet4_right.png,4,Community 2,NA,TRUE,j,j,NA,NA,NA,NA,7,"1,15,10,13,6,3,4,2,14,12,5,11,8,7,9"
14087,commdev-image-keyboard-response,94,340620,learnblock1,530,img/planet12_left.png,12,Community 2,NA,TRUE,f,f,NA,NA,NA,NA,7,"1,15,10,13,6,3,4,2,14,12,5,11,8,7,9"
14087,commdev-image-keyboard-response,95,341894,learnblock1,760,img/planet14_right.png,14,Community 2,NA,TRUE,j,j,NA,NA,NA,NA,7,"1,15,10,13,6,3,4,2,14,12,5,11,8,7,9"
14087,commdev-image-keyboard-response,96,343153,learnblock1,648,img/planet2_left.png,2,Community 2,NA,TRUE,f,f,NA,NA,NA,NA,7,"1,15,10,13,6,3,4,2,14,12,5,11,8,7,9"
14087,commdev-image-keyboard-response,97,344544,learnblock1,732,img/planet14_left.png,14,Community 2,NA,TRUE,f,f,NA,NA,NA,NA,7,"1,15,10,13,6,3,4,2,14,12,5,11,8,7,9"
14087,commdev-image-keyboard-response,98,345806,learnblock1,660,img/planet2_left.png,2,Community 2,NA,TRUE,f,f,NA,NA,NA,NA,7,"1,15,10,13,6,3,4,2,14,12,5,11,8,7,9"
14087,commdev-image-keyboard-response,99,347210,learnblock1,946,img/planet4_right.png,4,Community 2,NA,TRUE,j,j,NA,NA,NA,NA,7,"1,15,10,13,6,3,4,2,14,12,5,11,8,7,9"
14087,commdev-image-keyboard-response,100,348469,learnblock1,703,img/planet3_right.png,3,Community 2,NA,TRUE,j,j,NA,NA,NA,NA,7,"1,15,10,13,6,3,4,2,14,12,5,11,8,7,9"
14087,commdev-image-keyboard-response,101,349728,learnblock1,841,img/planet13_left.png,13,Community 1,NA,TRUE,f,f,NA,NA,NA,NA,7,"1,15,10,13,6,3,4,2,14,12,5,11,8,7,9"
14087,commdev-image-keyboard-response,102,350986,learnblock1,640,img/planet1_left.png,1,Community 1,NA,TRUE,f,f,NA,NA,NA,NA,7,"1,15,10,13,6,3,4,2,14,12,5,11,8,7,9"
14087,commdev-image-keyboard-response,103,352376,learnblock1,702,img/planet15_left.png,15,Community 1,NA,TRUE,f,f,NA,NA,NA,NA,7,"1,15,10,13,6,3,4,2,14,12,5,11,8,7,9"
14087,commdev-image-keyboard-response,104,353636,learnblock1,611,img/planet13_left.png,13,Community 1,NA,TRUE,f,f,NA,NA,NA,NA,7,"1,15,10,13,6,3,4,2,14,12,5,11,8,7,9"
14087,commdev-image-keyboard-response,105,354896,learnblock1,949,img/planet10_right.png,10,Community 1,NA,FALSE,f,j,NA,NA,NA,NA,7,"1,15,10,13,6,3,4,2,14,12,5,11,8,7,9"
14087,commdev-image-keyboard-response,106,356160,learnblock1,828,img/planet15_left.png,15,Community 1,NA,TRUE,f,f,NA,NA,NA,NA,7,"1,15,10,13,6,3,4,2,14,12,5,11,8,7,9"
14087,commdev-image-keyboard-response,107,357418,learnblock1,690,img/planet13_left.png,13,Community 1,NA,TRUE,f,f,NA,NA,NA,NA,7,"1,15,10,13,6,3,4,2,14,12,5,11,8,7,9"
14087,commdev-image-keyboard-response,108,358683,learnblock1,729,img/planet3_left.png,3,Community 2,NA,TRUE,f,f,NA,NA,NA,NA,7,"1,15,10,13,6,3,4,2,14,12,5,11,8,7,9"
14087,commdev-image-keyboard-response,109,359946,learnblock1,663,img/planet13_left.png,13,Community 1,NA,TRUE,f,f,NA,NA,NA,NA,7,"1,15,10,13,6,3,4,2,14,12,5,11,8,7,9"
14087,commdev-image-keyboard-response,110,361210,learnblock1,759,img/planet10_right.png,10,Community 1,NA,TRUE,j,j,NA,NA,NA,NA,7,"1,15,10,13,6,3,4,2,14,12,5,11,8,7,9"
14087,commdev-image-keyboard-response,111,362471,learnblock1,736,img/planet6_right.png,6,Community 1,NA,TRUE,j,j,NA,NA,NA,NA,7,"1,15,10,13,6,3,4,2,14,12,5,11,8,7,9"
14087,commdev-image-keyboard-response,112,363729,learnblock1,603,img/planet1_left.png,1,Community 1,NA,FALSE,j,f,NA,NA,NA,NA,7,"1,15,10,13,6,3,4,2,14,12,5,11,8,7,9"
14087,commdev-image-keyboard-response,113,364991,learnblock1,755,img/planet6_right.png,6,Community 1,NA,TRUE,j,j,NA,NA,NA,NA,7,"1,15,10,13,6,3,4,2,14,12,5,11,8,7,9"
14087,commdev-image-keyboard-response,114,366249,learnblock1,1149,img/planet15_right.png,15,Community 1,NA,TRUE,j,j,NA,NA,NA,NA,7,"1,15,10,13,6,3,4,2,14,12,5,11,8,7,9"
14087,commdev-image-keyboard-response,115,367511,learnblock1,804,img/planet1_right.png,1,Community 1,NA,TRUE,j,j,NA,NA,NA,NA,7,"1,15,10,13,6,3,4,2,14,12,5,11,8,7,9"
14087,commdev-image-keyboard-response,116,368774,learnblock1,615,img/planet13_left.png,13,Community 1,NA,TRUE,f,f,NA,NA,NA,NA,7,"1,15,10,13,6,3,4,2,14,12,5,11,8,7,9"
14087,commdev-image-keyboard-response,117,370031,learnblock1,751,img/planet15_right.png,15,Community 1,NA,TRUE,j,j,NA,NA,NA,NA,7,"1,15,10,13,6,3,4,2,14,12,5,11,8,7,9"
14087,commdev-image-keyboard-response,118,371293,learnblock1,589,img/planet10_right.png,10,Community 1,NA,TRUE,j,j,NA,NA,NA,NA,7,"1,15,10,13,6,3,4,2,14,12,5,11,8,7,9"
14087,commdev-image-keyboard-response,119,372554,learnblock1,668,img/planet15_left.png,15,Community 1,NA,TRUE,f,f,NA,NA,NA,NA,7,"1,15,10,13,6,3,4,2,14,12,5,11,8,7,9"
14087,commdev-image-keyboard-response,120,373817,learnblock1,691,img/planet13_right.png,13,Community 1,NA,TRUE,j,j,NA,NA,NA,NA,7,"1,15,10,13,6,3,4,2,14,12,5,11,8,7,9"
14087,commdev-image-keyboard-response,121,375078,learnblock1,883,img/planet10_left.png,10,Community 1,NA,TRUE,f,f,NA,NA,NA,NA,7,"1,15,10,13,6,3,4,2,14,12,5,11,8,7,9"
14087,commdev-image-keyboard-response,122,376340,learnblock1,851,img/planet1_right.png,1,Community 1,NA,TRUE,j,j,NA,NA,NA,NA,7,"1,15,10,13,6,3,4,2,14,12,5,11,8,7,9"
14087,commdev-image-keyboard-response,123,377600,learnblock1,852,img/planet13_left.png,13,Community 1,NA,TRUE,f,f,NA,NA,NA,NA,7,"1,15,10,13,6,3,4,2,14,12,5,11,8,7,9"
14087,commdev-image-keyboard-response,124,378861,learnblock1,848,img/planet1_left.png,1,Community 1,NA,TRUE,f,f,NA,NA,NA,NA,7,"1,15,10,13,6,3,4,2,14,12,5,11,8,7,9"
14087,commdev-image-keyboard-response,125,380124,learnblock1,922,img/planet10_left.png,10,Community 1,NA,TRUE,f,f,NA,NA,NA,NA,7,"1,15,10,13,6,3,4,2,14,12,5,11,8,7,9"
14087,commdev-image-keyboard-response,126,381386,learnblock1,861,img/planet13_left.png,13,Community 1,NA,TRUE,f,f,NA,NA,NA,NA,7,"1,15,10,13,6,3,4,2,14,12,5,11,8,7,9"
14087,commdev-image-keyboard-response,127,382650,learnblock1,698,img/planet1_left.png,1,Community 1,NA,TRUE,f,f,NA,NA,NA,NA,7,"1,15,10,13,6,3,4,2,14,12,5,11,8,7,9"
14087,commdev-image-keyboard-response,128,383913,learnblock1,671,img/planet6_left.png,6,Community 1,NA,TRUE,f,f,NA,NA,NA,NA,7,"1,15,10,13,6,3,4,2,14,12,5,11,8,7,9"
14087,commdev-image-keyboard-response,129,385176,learnblock1,863,img/planet15_right.png,15,Community 1,NA,TRUE,j,j,NA,NA,NA,NA,7,"1,15,10,13,6,3,4,2,14,12,5,11,8,7,9"
14087,commdev-image-keyboard-response,130,386438,learnblock1,1154,img/planet6_right.png,6,Community 1,NA,TRUE,j,j,NA,NA,NA,NA,7,"1,15,10,13,6,3,4,2,14,12,5,11,8,7,9"
14087,commdev-image-keyboard-response,131,387700,learnblock1,819,img/planet1_right.png,1,Community 1,NA,TRUE,j,j,NA,NA,NA,NA,7,"1,15,10,13,6,3,4,2,14,12,5,11,8,7,9"
14087,commdev-image-keyboard-response,132,388959,learnblock1,919,img/planet15_left.png,15,Community 1,NA,TRUE,f,f,NA,NA,NA,NA,7,"1,15,10,13,6,3,4,2,14,12,5,11,8,7,9"
14087,commdev-image-keyboard-response,133,390222,learnblock1,1010,img/planet6_right.png,6,Community 1,NA,TRUE,j,j,NA,NA,NA,NA,7,"1,15,10,13,6,3,4,2,14,12,5,11,8,7,9"
14087,commdev-image-keyboard-response,134,391482,learnblock1,724,img/planet10_left.png,10,Community 1,NA,TRUE,f,f,NA,NA,NA,NA,7,"1,15,10,13,6,3,4,2,14,12,5,11,8,7,9"
14087,commdev-image-keyboard-response,135,392741,learnblock1,988,img/planet15_left.png,15,Community 1,NA,TRUE,f,f,NA,NA,NA,NA,7,"1,15,10,13,6,3,4,2,14,12,5,11,8,7,9"
14087,commdev-image-keyboard-response,136,394002,learnblock1,728,img/planet10_right.png,10,Community 1,NA,TRUE,j,j,NA,NA,NA,NA,7,"1,15,10,13,6,3,4,2,14,12,5,11,8,7,9"
14087,commdev-image-keyboard-response,137,395260,learnblock1,967,img/planet6_left.png,6,Community 1,NA,TRUE,f,f,NA,NA,NA,NA,7,"1,15,10,13,6,3,4,2,14,12,5,11,8,7,9"
14087,commdev-image-keyboard-response,138,396521,learnblock1,777,img/planet1_left.png,1,Community 1,NA,TRUE,f,f,NA,NA,NA,NA,7,"1,15,10,13,6,3,4,2,14,12,5,11,8,7,9"
14087,commdev-image-keyboard-response,139,397781,learnblock1,875,img/planet15_right.png,15,Community 1,NA,TRUE,j,j,NA,NA,NA,NA,7,"1,15,10,13,6,3,4,2,14,12,5,11,8,7,9"
14087,commdev-image-keyboard-response,140,399040,learnblock1,641,img/planet13_left.png,13,Community 1,NA,TRUE,f,f,NA,NA,NA,NA,7,"1,15,10,13,6,3,4,2,14,12,5,11,8,7,9"
14087,commdev-image-keyboard-response,141,400427,learnblock1,979,img/planet3_left.png,3,Community 2,NA,TRUE,f,f,NA,NA,NA,NA,7,"1,15,10,13,6,3,4,2,14,12,5,11,8,7,9"
14087,commdev-image-keyboard-response,142,401689,learnblock1,1016,img/planet12_right.png,12,Community 2,NA,TRUE,j,j,NA,NA,NA,NA,7,"1,15,10,13,6,3,4,2,14,12,5,11,8,7,9"
14087,commdev-image-keyboard-response,143,402951,learnblock1,809,img/planet4_left.png,4,Community 2,NA,FALSE,j,f,NA,NA,NA,NA,7,"1,15,10,13,6,3,4,2,14,12,5,11,8,7,9"
14087,commdev-image-keyboard-response,144,404209,learnblock1,1073,img/planet3_right.png,3,Community 2,NA,TRUE,j,j,NA,NA,NA,NA,7,"1,15,10,13,6,3,4,2,14,12,5,11,8,7,9"
14087,commdev-image-keyboard-response,145,405460,learnblock1,695,img/planet12_left.png,12,Community 2,NA,TRUE,f,f,NA,NA,NA,NA,7,"1,15,10,13,6,3,4,2,14,12,5,11,8,7,9"
14087,commdev-image-keyboard-response,146,406721,learnblock1,1098,img/planet3_right.png,3,Community 2,NA,TRUE,j,j,NA,NA,NA,NA,7,"1,15,10,13,6,3,4,2,14,12,5,11,8,7,9"
14087,commdev-image-keyboard-response,147,407981,learnblock1,633,img/planet4_right.png,4,Community 2,NA,TRUE,j,j,NA,NA,NA,NA,7,"1,15,10,13,6,3,4,2,14,12,5,11,8,7,9"
14087,commdev-image-keyboard-response,148,409241,learnblock1,767,img/planet3_right.png,3,Community 2,NA,TRUE,j,j,NA,NA,NA,NA,7,"1,15,10,13,6,3,4,2,14,12,5,11,8,7,9"
14087,commdev-image-keyboard-response,149,410502,learnblock1,749,img/planet12_left.png,12,Community 2,NA,TRUE,f,f,NA,NA,NA,NA,7,"1,15,10,13,6,3,4,2,14,12,5,11,8,7,9"
14087,commdev-image-keyboard-response,150,411762,learnblock1,617,img/planet2_left.png,2,Community 2,NA,TRUE,f,f,NA,NA,NA,NA,7,"1,15,10,13,6,3,4,2,14,12,5,11,8,7,9"
14087,commdev-image-keyboard-response,151,413121,learnblock1,720,img/planet11_left.png,11,Community 3,NA,TRUE,f,f,NA,NA,NA,NA,7,"1,15,10,13,6,3,4,2,14,12,5,11,8,7,9"
14087,commdev-image-keyboard-response,152,414382,learnblock1,683,img/planet2_left.png,2,Community 2,NA,TRUE,f,f,NA,NA,NA,NA,7,"1,15,10,13,6,3,4,2,14,12,5,11,8,7,9"
14087,commdev-image-keyboard-response,153,415640,learnblock1,1115,img/planet14_right.png,14,Community 2,NA,TRUE,j,j,NA,NA,NA,NA,7,"1,15,10,13,6,3,4,2,14,12,5,11,8,7,9"
14087,commdev-image-keyboard-response,154,416900,learnblock1,761,img/planet3_right.png,3,Community 2,NA,TRUE,j,j,NA,NA,NA,NA,7,"1,15,10,13,6,3,4,2,14,12,5,11,8,7,9"
14087,commdev-image-keyboard-response,155,418163,learnblock1,967,img/planet12_right.png,12,Community 2,NA,TRUE,j,j,NA,NA,NA,NA,7,"1,15,10,13,6,3,4,2,14,12,5,11,8,7,9"
14087,commdev-image-keyboard-response,156,419427,learnblock1,1106,img/planet2_left.png,2,Community 2,NA,TRUE,f,f,NA,NA,NA,NA,7,"1,15,10,13,6,3,4,2,14,12,5,11,8,7,9"
14087,commdev-image-keyboard-response,157,420688,learnblock1,725,img/planet14_right.png,14,Community 2,NA,TRUE,j,j,NA,NA,NA,NA,7,"1,15,10,13,6,3,4,2,14,12,5,11,8,7,9"
14087,commdev-image-keyboard-response,158,421949,learnblock1,909,img/planet4_left.png,4,Community 2,NA,TRUE,f,f,NA,NA,NA,NA,7,"1,15,10,13,6,3,4,2,14,12,5,11,8,7,9"
14087,commdev-image-keyboard-response,159,423210,learnblock1,927,img/planet3_right.png,3,Community 2,NA,TRUE,j,j,NA,NA,NA,NA,7,"1,15,10,13,6,3,4,2,14,12,5,11,8,7,9"
14087,commdev-image-keyboard-response,160,424470,learnblock1,688,img/planet13_right.png,13,Community 1,NA,TRUE,j,j,NA,NA,NA,NA,7,"1,15,10,13,6,3,4,2,14,12,5,11,8,7,9"
14087,commdev-image-keyboard-response,161,425730,learnblock1,653,img/planet10_left.png,10,Community 1,NA,TRUE,f,f,NA,NA,NA,NA,7,"1,15,10,13,6,3,4,2,14,12,5,11,8,7,9"
14087,commdev-image-keyboard-response,162,426992,learnblock1,941,img/planet15_right.png,15,Community 1,NA,TRUE,j,j,NA,NA,NA,NA,7,"1,15,10,13,6,3,4,2,14,12,5,11,8,7,9"
14087,commdev-image-keyboard-response,163,428254,learnblock1,698,img/planet1_right.png,1,Community 1,NA,TRUE,j,j,NA,NA,NA,NA,7,"1,15,10,13,6,3,4,2,14,12,5,11,8,7,9"
14087,commdev-image-keyboard-response,164,429516,learnblock1,678,img/planet6_right.png,6,Community 1,NA,TRUE,j,j,NA,NA,NA,NA,7,"1,15,10,13,6,3,4,2,14,12,5,11,8,7,9"
14087,commdev-image-keyboard-response,165,430777,learnblock1,824,img/planet5_left.png,5,Community 3,NA,TRUE,f,f,NA,NA,NA,NA,7,"1,15,10,13,6,3,4,2,14,12,5,11,8,7,9"
14087,commdev-image-keyboard-response,166,432036,learnblock1,644,img/planet6_right.png,6,Community 1,NA,TRUE,j,j,NA,NA,NA,NA,7,"1,15,10,13,6,3,4,2,14,12,5,11,8,7,9"
14087,commdev-image-keyboard-response,167,433425,learnblock1,614,img/planet1_left.png,1,Community 1,NA,TRUE,f,f,NA,NA,NA,NA,7,"1,15,10,13,6,3,4,2,14,12,5,11,8,7,9"
14087,commdev-image-keyboard-response,168,434687,learnblock1,806,img/planet15_left.png,15,Community 1,NA,TRUE,f,f,NA,NA,NA,NA,7,"1,15,10,13,6,3,4,2,14,12,5,11,8,7,9"
14087,commdev-image-keyboard-response,169,435949,learnblock1,592,img/planet1_right.png,1,Community 1,NA,TRUE,j,j,NA,NA,NA,NA,7,"1,15,10,13,6,3,4,2,14,12,5,11,8,7,9"
14087,commdev-image-keyboard-response,170,437212,learnblock1,528,img/planet10_left.png,10,Community 1,NA,TRUE,f,f,NA,NA,NA,NA,7,"1,15,10,13,6,3,4,2,14,12,5,11,8,7,9"
14087,commdev-image-keyboard-response,171,438492,learnblock1,976,img/planet1_left.png,1,Community 1,NA,TRUE,f,f,NA,NA,NA,NA,7,"1,15,10,13,6,3,4,2,14,12,5,11,8,7,9"
14087,commdev-image-keyboard-response,172,439753,learnblock1,692,img/planet10_left.png,10,Community 1,NA,TRUE,f,f,NA,NA,NA,NA,7,"1,15,10,13,6,3,4,2,14,12,5,11,8,7,9"
14087,commdev-image-keyboard-response,173,441015,learnblock1,802,img/planet6_right.png,6,Community 1,NA,TRUE,j,j,NA,NA,NA,NA,7,"1,15,10,13,6,3,4,2,14,12,5,11,8,7,9"
14087,commdev-image-keyboard-response,174,442275,learnblock1,672,img/planet10_right.png,10,Community 1,NA,FALSE,f,j,NA,NA,NA,NA,7,"1,15,10,13,6,3,4,2,14,12,5,11,8,7,9"
14087,commdev-image-keyboard-response,175,443537,learnblock1,694,img/planet13_left.png,13,Community 1,NA,TRUE,f,f,NA,NA,NA,NA,7,"1,15,10,13,6,3,4,2,14,12,5,11,8,7,9"
14087,commdev-image-keyboard-response,176,444799,learnblock1,821,img/planet3_right.png,3,Community 2,NA,TRUE,j,j,NA,NA,NA,NA,7,"1,15,10,13,6,3,4,2,14,12,5,11,8,7,9"
14087,commdev-image-keyboard-response,177,446062,learnblock1,783,img/planet12_left.png,12,Community 2,NA,TRUE,f,f,NA,NA,NA,NA,7,"1,15,10,13,6,3,4,2,14,12,5,11,8,7,9"
14087,commdev-image-keyboard-response,178,447323,learnblock1,720,img/planet14_left.png,14,Community 2,NA,TRUE,f,f,NA,NA,NA,NA,7,"1,15,10,13,6,3,4,2,14,12,5,11,8,7,9"
14087,commdev-image-keyboard-response,179,448583,learnblock1,775,img/planet4_right.png,4,Community 2,NA,TRUE,j,j,NA,NA,NA,NA,7,"1,15,10,13,6,3,4,2,14,12,5,11,8,7,9"
14087,commdev-image-keyboard-response,180,449848,learnblock1,715,img/planet12_left.png,12,Community 2,NA,TRUE,f,f,NA,NA,NA,NA,7,"1,15,10,13,6,3,4,2,14,12,5,11,8,7,9"
14087,commdev-image-keyboard-response,181,451109,learnblock1,683,img/planet4_left.png,4,Community 2,NA,TRUE,f,f,NA,NA,NA,NA,7,"1,15,10,13,6,3,4,2,14,12,5,11,8,7,9"
14087,commdev-image-keyboard-response,182,452370,learnblock1,764,img/planet12_right.png,12,Community 2,NA,TRUE,j,j,NA,NA,NA,NA,7,"1,15,10,13,6,3,4,2,14,12,5,11,8,7,9"
14087,commdev-image-keyboard-response,183,453632,learnblock1,798,img/planet14_right.png,14,Community 2,NA,TRUE,j,j,NA,NA,NA,NA,7,"1,15,10,13,6,3,4,2,14,12,5,11,8,7,9"
14087,commdev-image-keyboard-response,184,454892,learnblock1,748,img/planet2_left.png,2,Community 2,NA,TRUE,f,f,NA,NA,NA,NA,7,"1,15,10,13,6,3,4,2,14,12,5,11,8,7,9"
14087,commdev-image-keyboard-response,185,456152,learnblock1,917,img/planet11_right.png,11,Community 3,NA,TRUE,j,j,NA,NA,NA,NA,7,"1,15,10,13,6,3,4,2,14,12,5,11,8,7,9"
14087,commdev-image-keyboard-response,186,457413,learnblock1,830,img/planet9_left.png,9,Community 3,NA,TRUE,f,f,NA,NA,NA,NA,7,"1,15,10,13,6,3,4,2,14,12,5,11,8,7,9"
14087,commdev-image-keyboard-response,187,458675,learnblock1,786,img/planet8_left.png,8,Community 3,NA,TRUE,f,f,NA,NA,NA,NA,7,"1,15,10,13,6,3,4,2,14,12,5,11,8,7,9"
14087,commdev-image-keyboard-response,188,459934,learnblock1,679,img/planet11_left.png,11,Community 3,NA,TRUE,f,f,NA,NA,NA,NA,7,"1,15,10,13,6,3,4,2,14,12,5,11,8,7,9"
14087,commdev-image-keyboard-response,189,461193,learnblock1,835,img/planet7_right.png,7,Community 3,NA,TRUE,j,j,NA,NA,NA,NA,7,"1,15,10,13,6,3,4,2,14,12,5,11,8,7,9"
14087,commdev-image-keyboard-response,190,462453,learnblock1,1051,img/planet8_right.png,8,Community 3,NA,TRUE,j,j,NA,NA,NA,NA,7,"1,15,10,13,6,3,4,2,14,12,5,11,8,7,9"
14087,commdev-image-keyboard-response,191,463711,learnblock1,666,img/planet11_right.png,11,Community 3,NA,TRUE,j,j,NA,NA,NA,NA,7,"1,15,10,13,6,3,4,2,14,12,5,11,8,7,9"
14087,commdev-image-keyboard-response,192,464972,learnblock1,706,img/planet7_right.png,7,Community 3,NA,TRUE,j,j,NA,NA,NA,NA,7,"1,15,10,13,6,3,4,2,14,12,5,11,8,7,9"
14087,commdev-image-keyboard-response,193,466231,learnblock1,779,img/planet8_left.png,8,Community 3,NA,TRUE,f,f,NA,NA,NA,NA,7,"1,15,10,13,6,3,4,2,14,12,5,11,8,7,9"
14087,commdev-image-keyboard-response,194,467492,learnblock1,854,img/planet11_right.png,11,Community 3,NA,TRUE,j,j,NA,NA,NA,NA,7,"1,15,10,13,6,3,4,2,14,12,5,11,8,7,9"
14087,commdev-image-keyboard-response,195,468753,learnblock1,815,img/planet8_left.png,8,Community 3,NA,TRUE,f,f,NA,NA,NA,NA,7,"1,15,10,13,6,3,4,2,14,12,5,11,8,7,9"
14087,commdev-image-keyboard-response,196,470013,learnblock1,749,img/planet5_right.png,5,Community 3,NA,TRUE,j,j,NA,NA,NA,NA,7,"1,15,10,13,6,3,4,2,14,12,5,11,8,7,9"
14087,commdev-image-keyboard-response,197,471273,learnblock1,863,img/planet8_right.png,8,Community 3,NA,TRUE,j,j,NA,NA,NA,NA,7,"1,15,10,13,6,3,4,2,14,12,5,11,8,7,9"
14087,commdev-image-keyboard-response,198,472533,learnblock1,704,img/planet11_right.png,11,Community 3,NA,TRUE,j,j,NA,NA,NA,NA,7,"1,15,10,13,6,3,4,2,14,12,5,11,8,7,9"
14087,commdev-image-keyboard-response,199,473796,learnblock1,617,img/planet9_left.png,9,Community 3,NA,TRUE,f,f,NA,NA,NA,NA,7,"1,15,10,13,6,3,4,2,14,12,5,11,8,7,9"
14087,commdev-image-keyboard-response,200,475154,learnblock1,722,img/planet7_left.png,7,Community 3,NA,TRUE,f,f,NA,NA,NA,NA,7,"1,15,10,13,6,3,4,2,14,12,5,11,8,7,9"
14087,commdev-image-keyboard-response,201,476415,learnblock1,824,img/planet8_left.png,8,Community 3,NA,TRUE,f,f,NA,NA,NA,NA,7,"1,15,10,13,6,3,4,2,14,12,5,11,8,7,9"
14087,commdev-image-keyboard-response,202,477679,learnblock1,775,img/planet7_left.png,7,Community 3,NA,TRUE,f,f,NA,NA,NA,NA,7,"1,15,10,13,6,3,4,2,14,12,5,11,8,7,9"
14087,commdev-image-keyboard-response,203,478944,learnblock1,734,img/planet11_left.png,11,Community 3,NA,TRUE,f,f,NA,NA,NA,NA,7,"1,15,10,13,6,3,4,2,14,12,5,11,8,7,9"
14087,commdev-image-keyboard-response,204,480207,learnblock1,703,img/planet7_left.png,7,Community 3,NA,TRUE,f,f,NA,NA,NA,NA,7,"1,15,10,13,6,3,4,2,14,12,5,11,8,7,9"
14087,commdev-image-keyboard-response,205,481465,learnblock1,608,img/planet5_left.png,5,Community 3,NA,TRUE,f,f,NA,NA,NA,NA,7,"1,15,10,13,6,3,4,2,14,12,5,11,8,7,9"
14087,commdev-image-keyboard-response,206,482826,learnblock1,688,img/planet7_left.png,7,Community 3,NA,TRUE,f,f,NA,NA,NA,NA,7,"1,15,10,13,6,3,4,2,14,12,5,11,8,7,9"
14087,commdev-image-keyboard-response,207,484088,learnblock1,698,img/planet8_right.png,8,Community 3,NA,TRUE,j,j,NA,NA,NA,NA,7,"1,15,10,13,6,3,4,2,14,12,5,11,8,7,9"
14087,commdev-image-keyboard-response,208,485347,learnblock1,669,img/planet9_left.png,9,Community 3,NA,TRUE,f,f,NA,NA,NA,NA,7,"1,15,10,13,6,3,4,2,14,12,5,11,8,7,9"
14087,commdev-image-keyboard-response,209,486606,learnblock1,566,img/planet5_right.png,5,Community 3,NA,TRUE,j,j,NA,NA,NA,NA,7,"1,15,10,13,6,3,4,2,14,12,5,11,8,7,9"
14087,commdev-image-keyboard-response,210,487913,learnblock1,717,img/planet8_left.png,8,Community 3,NA,TRUE,f,f,NA,NA,NA,NA,7,"1,15,10,13,6,3,4,2,14,12,5,11,8,7,9"
14087,commdev-image-keyboard-response,211,489176,learnblock1,751,img/planet5_left.png,5,Community 3,NA,TRUE,f,f,NA,NA,NA,NA,7,"1,15,10,13,6,3,4,2,14,12,5,11,8,7,9"
14087,commdev-image-keyboard-response,212,490437,learnblock1,847,img/planet8_right.png,8,Community 3,NA,TRUE,j,j,NA,NA,NA,NA,7,"1,15,10,13,6,3,4,2,14,12,5,11,8,7,9"
14087,commdev-image-keyboard-response,213,491697,learnblock1,659,img/planet5_left.png,5,Community 3,NA,TRUE,f,f,NA,NA,NA,NA,7,"1,15,10,13,6,3,4,2,14,12,5,11,8,7,9"
14087,commdev-image-keyboard-response,214,493102,learnblock1,857,img/planet7_right.png,7,Community 3,NA,TRUE,j,j,NA,NA,NA,NA,7,"1,15,10,13,6,3,4,2,14,12,5,11,8,7,9"
14087,commdev-image-keyboard-response,215,494366,learnblock1,651,img/planet8_left.png,8,Community 3,NA,TRUE,f,f,NA,NA,NA,NA,7,"1,15,10,13,6,3,4,2,14,12,5,11,8,7,9"
14087,commdev-image-keyboard-response,216,495757,learnblock1,671,img/planet5_right.png,5,Community 3,NA,TRUE,j,j,NA,NA,NA,NA,7,"1,15,10,13,6,3,4,2,14,12,5,11,8,7,9"
14087,commdev-image-keyboard-response,217,497020,learnblock1,778,img/planet8_right.png,8,Community 3,NA,TRUE,j,j,NA,NA,NA,NA,7,"1,15,10,13,6,3,4,2,14,12,5,11,8,7,9"
14087,commdev-image-keyboard-response,218,498281,learnblock1,604,img/planet5_right.png,5,Community 3,NA,TRUE,j,j,NA,NA,NA,NA,7,"1,15,10,13,6,3,4,2,14,12,5,11,8,7,9"
14087,commdev-image-keyboard-response,219,499541,learnblock1,808,img/planet6_right.png,6,Community 1,NA,TRUE,j,j,NA,NA,NA,NA,7,"1,15,10,13,6,3,4,2,14,12,5,11,8,7,9"
14087,commdev-image-keyboard-response,220,500803,learnblock1,778,img/planet5_left.png,5,Community 3,NA,TRUE,f,f,NA,NA,NA,NA,7,"1,15,10,13,6,3,4,2,14,12,5,11,8,7,9"
14087,commdev-image-keyboard-response,221,502064,learnblock1,801,img/planet6_left.png,6,Community 1,NA,FALSE,j,f,NA,NA,NA,NA,7,"1,15,10,13,6,3,4,2,14,12,5,11,8,7,9"
14087,commdev-image-keyboard-response,222,503324,learnblock1,961,img/planet1_left.png,1,Community 1,NA,FALSE,j,f,NA,NA,NA,NA,7,"1,15,10,13,6,3,4,2,14,12,5,11,8,7,9"
14087,commdev-image-keyboard-response,223,504585,learnblock1,1196,img/planet15_right.png,15,Community 1,NA,TRUE,j,j,NA,NA,NA,NA,7,"1,15,10,13,6,3,4,2,14,12,5,11,8,7,9"
14087,commdev-image-keyboard-response,224,505847,learnblock1,958,img/planet6_right.png,6,Community 1,NA,FALSE,f,j,NA,NA,NA,NA,7,"1,15,10,13,6,3,4,2,14,12,5,11,8,7,9"
14087,commdev-image-keyboard-response,225,507109,learnblock1,786,img/planet15_left.png,15,Community 1,NA,TRUE,f,f,NA,NA,NA,NA,7,"1,15,10,13,6,3,4,2,14,12,5,11,8,7,9"
14087,commdev-image-keyboard-response,226,508369,learnblock1,716,img/planet6_right.png,6,Community 1,NA,TRUE,j,j,NA,NA,NA,NA,7,"1,15,10,13,6,3,4,2,14,12,5,11,8,7,9"
14087,commdev-image-keyboard-response,227,509628,learnblock1,1032,img/planet1_right.png,1,Community 1,NA,TRUE,j,j,NA,NA,NA,NA,7,"1,15,10,13,6,3,4,2,14,12,5,11,8,7,9"
14087,commdev-image-keyboard-response,228,510886,learnblock1,644,img/planet13_left.png,13,Community 1,NA,TRUE,f,f,NA,NA,NA,NA,7,"1,15,10,13,6,3,4,2,14,12,5,11,8,7,9"
14087,commdev-image-keyboard-response,229,512148,learnblock1,1006,img/planet15_right.png,15,Community 1,NA,TRUE,j,j,NA,NA,NA,NA,7,"1,15,10,13,6,3,4,2,14,12,5,11,8,7,9"
14087,commdev-image-keyboard-response,230,513406,learnblock1,764,img/planet10_left.png,10,Community 1,NA,TRUE,f,f,NA,NA,NA,NA,7,"1,15,10,13,6,3,4,2,14,12,5,11,8,7,9"
14087,commdev-image-keyboard-response,231,514666,learnblock1,947,img/planet1_left.png,1,Community 1,NA,TRUE,f,f,NA,NA,NA,NA,7,"1,15,10,13,6,3,4,2,14,12,5,11,8,7,9"
14087,commdev-image-keyboard-response,232,515928,learnblock1,597,img/planet10_left.png,10,Community 1,NA,TRUE,f,f,NA,NA,NA,NA,7,"1,15,10,13,6,3,4,2,14,12,5,11,8,7,9"
14087,commdev-image-keyboard-response,233,517186,learnblock1,702,img/planet1_left.png,1,Community 1,NA,TRUE,f,f,NA,NA,NA,NA,7,"1,15,10,13,6,3,4,2,14,12,5,11,8,7,9"
14087,commdev-image-keyboard-response,234,518449,learnblock1,758,img/planet13_left.png,13,Community 1,NA,TRUE,f,f,NA,NA,NA,NA,7,"1,15,10,13,6,3,4,2,14,12,5,11,8,7,9"
14087,commdev-image-keyboard-response,235,519713,learnblock1,675,img/planet3_left.png,3,Community 2,NA,TRUE,f,f,NA,NA,NA,NA,7,"1,15,10,13,6,3,4,2,14,12,5,11,8,7,9"
14087,commdev-image-keyboard-response,236,520970,learnblock1,821,img/planet12_right.png,12,Community 2,NA,TRUE,j,j,NA,NA,NA,NA,7,"1,15,10,13,6,3,4,2,14,12,5,11,8,7,9"
14087,commdev-image-keyboard-response,237,522230,learnblock1,654,img/planet3_left.png,3,Community 2,NA,TRUE,f,f,NA,NA,NA,NA,7,"1,15,10,13,6,3,4,2,14,12,5,11,8,7,9"
14087,commdev-image-keyboard-response,238,523492,learnblock1,622,img/planet13_left.png,13,Community 1,NA,TRUE,f,f,NA,NA,NA,NA,7,"1,15,10,13,6,3,4,2,14,12,5,11,8,7,9"
14087,commdev-image-keyboard-response,239,524757,learnblock1,547,img/planet10_right.png,10,Community 1,NA,FALSE,f,j,NA,NA,NA,NA,7,"1,15,10,13,6,3,4,2,14,12,5,11,8,7,9"
14087,commdev-image-keyboard-response,240,526019,learnblock1,579,img/planet6_right.png,6,Community 1,NA,TRUE,j,j,NA,NA,NA,NA,7,"1,15,10,13,6,3,4,2,14,12,5,11,8,7,9"
14087,commdev-image-keyboard-response,241,527280,learnblock1,790,img/planet15_right.png,15,Community 1,NA,TRUE,j,j,NA,NA,NA,NA,7,"1,15,10,13,6,3,4,2,14,12,5,11,8,7,9"
14087,commdev-image-keyboard-response,242,528539,learnblock1,697,img/planet10_left.png,10,Community 1,NA,TRUE,f,f,NA,NA,NA,NA,7,"1,15,10,13,6,3,4,2,14,12,5,11,8,7,9"
14087,commdev-image-keyboard-response,243,529799,learnblock1,809,img/planet13_left.png,13,Community 1,NA,TRUE,f,f,NA,NA,NA,NA,7,"1,15,10,13,6,3,4,2,14,12,5,11,8,7,9"
14087,commdev-image-keyboard-response,244,531058,learnblock1,842,img/planet10_left.png,10,Community 1,NA,TRUE,f,f,NA,NA,NA,NA,7,"1,15,10,13,6,3,4,2,14,12,5,11,8,7,9"
14087,commdev-image-keyboard-response,245,532322,learnblock1,1220,img/planet15_left.png,15,Community 1,NA,TRUE,f,f,NA,NA,NA,NA,7,"1,15,10,13,6,3,4,2,14,12,5,11,8,7,9"
14087,commdev-image-keyboard-response,246,533584,learnblock1,882,img/planet6_left.png,6,Community 1,NA,FALSE,j,f,NA,NA,NA,NA,7,"1,15,10,13,6,3,4,2,14,12,5,11,8,7,9"
14087,commdev-image-keyboard-response,247,534841,learnblock1,651,img/planet1_left.png,1,Community 1,NA,TRUE,f,f,NA,NA,NA,NA,7,"1,15,10,13,6,3,4,2,14,12,5,11,8,7,9"
14087,commdev-image-keyboard-response,248,536099,learnblock1,753,img/planet13_right.png,13,Community 1,NA,TRUE,j,j,NA,NA,NA,NA,7,"1,15,10,13,6,3,4,2,14,12,5,11,8,7,9"
14087,commdev-image-keyboard-response,249,537359,learnblock1,1073,img/planet15_right.png,15,Community 1,NA,TRUE,j,j,NA,NA,NA,NA,7,"1,15,10,13,6,3,4,2,14,12,5,11,8,7,9"
14087,commdev-image-keyboard-response,250,538619,learnblock1,547,img/planet1_left.png,1,Community 1,NA,TRUE,f,f,NA,NA,NA,NA,7,"1,15,10,13,6,3,4,2,14,12,5,11,8,7,9"
14087,commdev-image-keyboard-response,251,539916,learnblock1,696,img/planet13_left.png,13,Community 1,NA,TRUE,f,f,NA,NA,NA,NA,7,"1,15,10,13,6,3,4,2,14,12,5,11,8,7,9"
14087,commdev-image-keyboard-response,252,541174,learnblock1,830,img/planet3_left.png,3,Community 2,NA,TRUE,f,f,NA,NA,NA,NA,7,"1,15,10,13,6,3,4,2,14,12,5,11,8,7,9"
14087,commdev-image-keyboard-response,253,542435,learnblock1,697,img/planet14_right.png,14,Community 2,NA,TRUE,j,j,NA,NA,NA,NA,7,"1,15,10,13,6,3,4,2,14,12,5,11,8,7,9"
14087,commdev-image-keyboard-response,254,543692,learnblock1,843,img/planet4_right.png,4,Community 2,NA,TRUE,j,j,NA,NA,NA,NA,7,"1,15,10,13,6,3,4,2,14,12,5,11,8,7,9"
14087,commdev-image-keyboard-response,255,544950,learnblock1,813,img/planet12_left.png,12,Community 2,NA,TRUE,f,f,NA,NA,NA,NA,7,"1,15,10,13,6,3,4,2,14,12,5,11,8,7,9"
14087,commdev-image-keyboard-response,256,546210,learnblock1,671,img/planet3_left.png,3,Community 2,NA,TRUE,f,f,NA,NA,NA,NA,7,"1,15,10,13,6,3,4,2,14,12,5,11,8,7,9"
14087,commdev-image-keyboard-response,257,547468,learnblock1,765,img/planet13_right.png,13,Community 1,NA,TRUE,j,j,NA,NA,NA,NA,7,"1,15,10,13,6,3,4,2,14,12,5,11,8,7,9"
14087,commdev-image-keyboard-response,258,548728,learnblock1,845,img/planet1_right.png,1,Community 1,NA,TRUE,j,j,NA,NA,NA,NA,7,"1,15,10,13,6,3,4,2,14,12,5,11,8,7,9"
14087,commdev-image-keyboard-response,259,549988,learnblock1,767,img/planet15_left.png,15,Community 1,NA,TRUE,f,f,NA,NA,NA,NA,7,"1,15,10,13,6,3,4,2,14,12,5,11,8,7,9"
14087,commdev-image-keyboard-response,260,551248,learnblock1,805,img/planet10_right.png,10,Community 1,NA,TRUE,j,j,NA,NA,NA,NA,7,"1,15,10,13,6,3,4,2,14,12,5,11,8,7,9"
14087,commdev-image-keyboard-response,261,552507,learnblock1,681,img/planet13_left.png,13,Community 1,NA,TRUE,f,f,NA,NA,NA,NA,7,"1,15,10,13,6,3,4,2,14,12,5,11,8,7,9"
14087,commdev-image-keyboard-response,262,553768,learnblock1,771,img/planet3_left.png,3,Community 2,NA,TRUE,f,f,NA,NA,NA,NA,7,"1,15,10,13,6,3,4,2,14,12,5,11,8,7,9"
14087,commdev-image-keyboard-response,263,555030,learnblock1,744,img/planet12_left.png,12,Community 2,NA,TRUE,f,f,NA,NA,NA,NA,7,"1,15,10,13,6,3,4,2,14,12,5,11,8,7,9"
14087,commdev-image-keyboard-response,264,556291,learnblock1,950,img/planet2_right.png,2,Community 2,NA,TRUE,j,j,NA,NA,NA,NA,7,"1,15,10,13,6,3,4,2,14,12,5,11,8,7,9"
14087,commdev-image-keyboard-response,265,557552,learnblock1,673,img/planet4_right.png,4,Community 2,NA,TRUE,j,j,NA,NA,NA,NA,7,"1,15,10,13,6,3,4,2,14,12,5,11,8,7,9"
14087,commdev-image-keyboard-response,266,558814,learnblock1,664,img/planet3_right.png,3,Community 2,NA,TRUE,j,j,NA,NA,NA,NA,7,"1,15,10,13,6,3,4,2,14,12,5,11,8,7,9"
14087,commdev-image-keyboard-response,267,560219,learnblock1,674,img/planet14_right.png,14,Community 2,NA,TRUE,j,j,NA,NA,NA,NA,7,"1,15,10,13,6,3,4,2,14,12,5,11,8,7,9"
14087,commdev-image-keyboard-response,268,561479,learnblock1,766,img/planet2_left.png,2,Community 2,NA,TRUE,f,f,NA,NA,NA,NA,7,"1,15,10,13,6,3,4,2,14,12,5,11,8,7,9"
14087,commdev-image-keyboard-response,269,562739,learnblock1,969,img/planet4_right.png,4,Community 2,NA,TRUE,j,j,NA,NA,NA,NA,7,"1,15,10,13,6,3,4,2,14,12,5,11,8,7,9"
14087,commdev-image-keyboard-response,270,564002,learnblock1,1014,img/planet12_right.png,12,Community 2,NA,TRUE,j,j,NA,NA,NA,NA,7,"1,15,10,13,6,3,4,2,14,12,5,11,8,7,9"
14087,commdev-image-keyboard-response,271,565264,learnblock1,852,img/planet14_left.png,14,Community 2,NA,TRUE,f,f,NA,NA,NA,NA,7,"1,15,10,13,6,3,4,2,14,12,5,11,8,7,9"
14087,commdev-image-keyboard-response,272,566525,learnblock1,755,img/planet2_left.png,2,Community 2,NA,TRUE,f,f,NA,NA,NA,NA,7,"1,15,10,13,6,3,4,2,14,12,5,11,8,7,9"
14087,commdev-image-keyboard-response,273,567783,learnblock1,944,img/planet12_left.png,12,Community 2,NA,TRUE,f,f,NA,NA,NA,NA,7,"1,15,10,13,6,3,4,2,14,12,5,11,8,7,9"
14087,commdev-image-keyboard-response,274,569046,learnblock1,606,img/planet2_left.png,2,Community 2,NA,TRUE,f,f,NA,NA,NA,NA,7,"1,15,10,13,6,3,4,2,14,12,5,11,8,7,9"
14087,commdev-image-keyboard-response,275,570307,learnblock1,777,img/planet11_right.png,11,Community 3,NA,TRUE,j,j,NA,NA,NA,NA,7,"1,15,10,13,6,3,4,2,14,12,5,11,8,7,9"
14087,commdev-image-keyboard-response,276,571567,learnblock1,1113,img/planet9_left.png,9,Community 3,NA,TRUE,f,f,NA,NA,NA,NA,7,"1,15,10,13,6,3,4,2,14,12,5,11,8,7,9"
14087,commdev-image-keyboard-response,277,572830,learnblock1,952,img/planet7_left.png,7,Community 3,NA,TRUE,f,f,NA,NA,NA,NA,7,"1,15,10,13,6,3,4,2,14,12,5,11,8,7,9"
14087,commdev-image-keyboard-response,278,574089,learnblock1,732,img/planet11_left.png,11,Community 3,NA,TRUE,f,f,NA,NA,NA,NA,7,"1,15,10,13,6,3,4,2,14,12,5,11,8,7,9"
14087,commdev-image-keyboard-response,279,575353,learnblock1,729,img/planet7_left.png,7,Community 3,NA,TRUE,f,f,NA,NA,NA,NA,7,"1,15,10,13,6,3,4,2,14,12,5,11,8,7,9"
14087,commdev-image-keyboard-response,280,576613,learnblock1,779,img/planet9_right.png,9,Community 3,NA,TRUE,j,j,NA,NA,NA,NA,7,"1,15,10,13,6,3,4,2,14,12,5,11,8,7,9"
14087,commdev-image-keyboard-response,281,577875,learnblock1,926,img/planet8_left.png,8,Community 3,NA,TRUE,f,f,NA,NA,NA,NA,7,"1,15,10,13,6,3,4,2,14,12,5,11,8,7,9"
14087,commdev-image-keyboard-response,282,579133,learnblock1,759,img/planet9_right.png,9,Community 3,NA,TRUE,j,j,NA,NA,NA,NA,7,"1,15,10,13,6,3,4,2,14,12,5,11,8,7,9"
14087,commdev-image-keyboard-response,283,580395,learnblock1,683,img/planet8_left.png,8,Community 3,NA,TRUE,f,f,NA,NA,NA,NA,7,"1,15,10,13,6,3,4,2,14,12,5,11,8,7,9"
14087,commdev-image-keyboard-response,284,581657,learnblock1,1216,img/planet5_left.png,5,Community 3,NA,TRUE,f,f,NA,NA,NA,NA,7,"1,15,10,13,6,3,4,2,14,12,5,11,8,7,9"
14087,commdev-image-keyboard-response,285,582918,learnblock1,730,img/planet9_left.png,9,Community 3,NA,FALSE,j,f,NA,NA,NA,NA,7,"1,15,10,13,6,3,4,2,14,12,5,11,8,7,9"
14087,commdev-image-keyboard-response,286,584175,learnblock1,603,img/planet11_left.png,11,Community 3,NA,TRUE,f,f,NA,NA,NA,NA,7,"1,15,10,13,6,3,4,2,14,12,5,11,8,7,9"
14087,commdev-image-keyboard-response,287,585440,learnblock1,638,img/planet7_left.png,7,Community 3,NA,TRUE,f,f,NA,NA,NA,NA,7,"1,15,10,13,6,3,4,2,14,12,5,11,8,7,9"
14087,commdev-image-keyboard-response,288,586699,learnblock1,660,img/planet5_right.png,5,Community 3,NA,TRUE,j,j,NA,NA,NA,NA,7,"1,15,10,13,6,3,4,2,14,12,5,11,8,7,9"
14087,commdev-image-keyboard-response,289,587960,learnblock1,null,img/planet7_right.png,7,Community 3,NA,FALSE,null,j,NA,NA,NA,NA,7,"1,15,10,13,6,3,4,2,14,12,5,11,8,7,9"
14087,commdev-image-keyboard-response,290,589221,learnblock1,219,img/planet11_right.png,11,Community 3,NA,TRUE,j,j,NA,NA,NA,NA,7,"1,15,10,13,6,3,4,2,14,12,5,11,8,7,9"
14087,commdev-image-keyboard-response,291,590482,learnblock1,140,img/planet9_left.png,9,Community 3,NA,FALSE,j,f,NA,NA,NA,NA,7,"1,15,10,13,6,3,4,2,14,12,5,11,8,7,9"
14087,commdev-image-keyboard-response,292,591745,learnblock1,769,img/planet11_left.png,11,Community 3,NA,TRUE,f,f,NA,NA,NA,NA,7,"1,15,10,13,6,3,4,2,14,12,5,11,8,7,9"
14087,commdev-image-keyboard-response,293,593003,learnblock1,678,img/planet2_left.png,2,Community 2,NA,TRUE,f,f,NA,NA,NA,NA,7,"1,15,10,13,6,3,4,2,14,12,5,11,8,7,9"
14087,commdev-image-keyboard-response,294,594262,learnblock1,736,img/planet4_right.png,4,Community 2,NA,TRUE,j,j,NA,NA,NA,NA,7,"1,15,10,13,6,3,4,2,14,12,5,11,8,7,9"
14087,commdev-image-keyboard-response,295,595522,learnblock1,1104,img/planet12_right.png,12,Community 2,NA,TRUE,j,j,NA,NA,NA,NA,7,"1,15,10,13,6,3,4,2,14,12,5,11,8,7,9"
14087,commdev-image-keyboard-response,296,596783,learnblock1,732,img/planet4_right.png,4,Community 2,NA,TRUE,j,j,NA,NA,NA,NA,7,"1,15,10,13,6,3,4,2,14,12,5,11,8,7,9"
14087,commdev-image-keyboard-response,297,598041,learnblock1,684,img/planet2_left.png,2,Community 2,NA,TRUE,f,f,NA,NA,NA,NA,7,"1,15,10,13,6,3,4,2,14,12,5,11,8,7,9"
14087,commdev-image-keyboard-response,298,599300,learnblock1,711,img/planet4_left.png,4,Community 2,NA,TRUE,f,f,NA,NA,NA,NA,7,"1,15,10,13,6,3,4,2,14,12,5,11,8,7,9"
14087,commdev-image-keyboard-response,299,600559,learnblock1,678,img/planet3_right.png,3,Community 2,NA,FALSE,f,j,NA,NA,NA,NA,7,"1,15,10,13,6,3,4,2,14,12,5,11,8,7,9"
14087,commdev-image-keyboard-response,300,601818,learnblock1,623,img/planet13_right.png,13,Community 1,NA,TRUE,j,j,NA,NA,NA,NA,7,"1,15,10,13,6,3,4,2,14,12,5,11,8,7,9"
14087,commdev-image-keyboard-response,301,603188,learnblock1,724,img/planet1_left.png,1,Community 1,NA,TRUE,f,f,NA,NA,NA,NA,7,"1,15,10,13,6,3,4,2,14,12,5,11,8,7,9"
14087,commdev-image-keyboard-response,302,604447,learnblock1,1090,img/planet6_left.png,6,Community 1,NA,FALSE,j,f,NA,NA,NA,NA,7,"1,15,10,13,6,3,4,2,14,12,5,11,8,7,9"
14087,commdev-image-keyboard-response,303,605708,learnblock1,719,img/planet5_right.png,5,Community 3,NA,TRUE,j,j,NA,NA,NA,NA,7,"1,15,10,13,6,3,4,2,14,12,5,11,8,7,9"
14087,commdev-image-keyboard-response,304,606965,learnblock1,615,img/planet8_left.png,8,Community 3,NA,TRUE,f,f,NA,NA,NA,NA,7,"1,15,10,13,6,3,4,2,14,12,5,11,8,7,9"
14087,commdev-image-keyboard-response,305,608224,learnblock1,1224,img/planet5_left.png,5,Community 3,NA,TRUE,f,f,NA,NA,NA,NA,7,"1,15,10,13,6,3,4,2,14,12,5,11,8,7,9"
14087,commdev-image-keyboard-response,306,609485,learnblock1,880,img/planet8_right.png,8,Community 3,NA,TRUE,j,j,NA,NA,NA,NA,7,"1,15,10,13,6,3,4,2,14,12,5,11,8,7,9"
14087,commdev-image-keyboard-response,307,610747,learnblock1,832,img/planet11_left.png,11,Community 3,NA,TRUE,f,f,NA,NA,NA,NA,7,"1,15,10,13,6,3,4,2,14,12,5,11,8,7,9"
14087,commdev-image-keyboard-response,308,612004,learnblock1,972,img/planet8_left.png,8,Community 3,NA,TRUE,f,f,NA,NA,NA,NA,7,"1,15,10,13,6,3,4,2,14,12,5,11,8,7,9"
14087,commdev-image-keyboard-response,309,613259,learnblock1,631,img/planet11_left.png,11,Community 3,NA,TRUE,f,f,NA,NA,NA,NA,7,"1,15,10,13,6,3,4,2,14,12,5,11,8,7,9"
14087,commdev-image-keyboard-response,310,614640,learnblock1,696,img/planet2_left.png,2,Community 2,NA,TRUE,f,f,NA,NA,NA,NA,7,"1,15,10,13,6,3,4,2,14,12,5,11,8,7,9"
14087,commdev-image-keyboard-response,311,615901,learnblock1,774,img/planet12_right.png,12,Community 2,NA,TRUE,j,j,NA,NA,NA,NA,7,"1,15,10,13,6,3,4,2,14,12,5,11,8,7,9"
14087,commdev-image-keyboard-response,312,617159,learnblock1,714,img/planet2_left.png,2,Community 2,NA,TRUE,f,f,NA,NA,NA,NA,7,"1,15,10,13,6,3,4,2,14,12,5,11,8,7,9"
14087,commdev-image-keyboard-response,313,618420,learnblock1,677,img/planet14_left.png,14,Community 2,NA,TRUE,f,f,NA,NA,NA,NA,7,"1,15,10,13,6,3,4,2,14,12,5,11,8,7,9"
14087,commdev-image-keyboard-response,314,619680,learnblock1,641,img/planet4_left.png,4,Community 2,NA,TRUE,f,f,NA,NA,NA,NA,7,"1,15,10,13,6,3,4,2,14,12,5,11,8,7,9"
14087,commdev-image-keyboard-response,315,620942,learnblock1,615,img/planet12_left.png,12,Community 2,NA,TRUE,f,f,NA,NA,NA,NA,7,"1,15,10,13,6,3,4,2,14,12,5,11,8,7,9"
14087,commdev-image-keyboard-response,316,622300,learnblock1,653,img/planet2_left.png,2,Community 2,NA,TRUE,f,f,NA,NA,NA,NA,7,"1,15,10,13,6,3,4,2,14,12,5,11,8,7,9"
14087,commdev-image-keyboard-response,317,623561,learnblock1,697,img/planet12_left.png,12,Community 2,NA,TRUE,f,f,NA,NA,NA,NA,7,"1,15,10,13,6,3,4,2,14,12,5,11,8,7,9"
14087,commdev-image-keyboard-response,318,624823,learnblock1,738,img/planet14_left.png,14,Community 2,NA,TRUE,f,f,NA,NA,NA,NA,7,"1,15,10,13,6,3,4,2,14,12,5,11,8,7,9"
14087,commdev-image-keyboard-response,319,626086,learnblock1,610,img/planet3_left.png,3,Community 2,NA,TRUE,f,f,NA,NA,NA,NA,7,"1,15,10,13,6,3,4,2,14,12,5,11,8,7,9"
14087,commdev-image-keyboard-response,320,627442,learnblock1,608,img/planet4_left.png,4,Community 2,NA,TRUE,f,f,NA,NA,NA,NA,7,"1,15,10,13,6,3,4,2,14,12,5,11,8,7,9"
14087,commdev-image-keyboard-response,321,628698,learnblock1,630,img/planet14_right.png,14,Community 2,NA,TRUE,j,j,NA,NA,NA,NA,7,"1,15,10,13,6,3,4,2,14,12,5,11,8,7,9"
14087,commdev-image-keyboard-response,322,629959,learnblock1,844,img/planet3_left.png,3,Community 2,NA,TRUE,f,f,NA,NA,NA,NA,7,"1,15,10,13,6,3,4,2,14,12,5,11,8,7,9"
14087,commdev-image-keyboard-response,323,631221,learnblock1,661,img/planet13_right.png,13,Community 1,NA,TRUE,j,j,NA,NA,NA,NA,7,"1,15,10,13,6,3,4,2,14,12,5,11,8,7,9"
14087,commdev-image-keyboard-response,324,632482,learnblock1,858,img/planet1_right.png,1,Community 1,NA,FALSE,f,j,NA,NA,NA,NA,7,"1,15,10,13,6,3,4,2,14,12,5,11,8,7,9"
14087,commdev-image-keyboard-response,325,633745,learnblock1,810,img/planet6_left.png,6,Community 1,NA,TRUE,f,f,NA,NA,NA,NA,7,"1,15,10,13,6,3,4,2,14,12,5,11,8,7,9"
14087,commdev-image-keyboard-response,326,635004,learnblock1,744,img/planet1_left.png,1,Community 1,NA,TRUE,f,f,NA,NA,NA,NA,7,"1,15,10,13,6,3,4,2,14,12,5,11,8,7,9"
14087,commdev-image-keyboard-response,327,636264,learnblock1,658,img/planet6_right.png,6,Community 1,NA,TRUE,j,j,NA,NA,NA,NA,7,"1,15,10,13,6,3,4,2,14,12,5,11,8,7,9"
14087,commdev-image-keyboard-response,328,637522,learnblock1,646,img/planet1_left.png,1,Community 1,NA,TRUE,f,f,NA,NA,NA,NA,7,"1,15,10,13,6,3,4,2,14,12,5,11,8,7,9"
14087,commdev-image-keyboard-response,329,638912,learnblock1,851,img/planet6_right.png,6,Community 1,NA,TRUE,j,j,NA,NA,NA,NA,7,"1,15,10,13,6,3,4,2,14,12,5,11,8,7,9"
14087,commdev-image-keyboard-response,330,640172,learnblock1,608,img/planet15_left.png,15,Community 1,NA,TRUE,f,f,NA,NA,NA,NA,7,"1,15,10,13,6,3,4,2,14,12,5,11,8,7,9"
14087,commdev-image-keyboard-response,331,641431,learnblock1,683,img/planet6_left.png,6,Community 1,NA,TRUE,f,f,NA,NA,NA,NA,7,"1,15,10,13,6,3,4,2,14,12,5,11,8,7,9"
14087,commdev-image-keyboard-response,332,642691,learnblock1,688,img/planet10_left.png,10,Community 1,NA,TRUE,f,f,NA,NA,NA,NA,7,"1,15,10,13,6,3,4,2,14,12,5,11,8,7,9"
14087,commdev-image-keyboard-response,333,643954,learnblock1,683,img/planet6_right.png,6,Community 1,NA,TRUE,j,j,NA,NA,NA,NA,7,"1,15,10,13,6,3,4,2,14,12,5,11,8,7,9"
14087,commdev-image-keyboard-response,334,645217,learnblock1,563,img/planet1_left.png,1,Community 1,NA,TRUE,f,f,NA,NA,NA,NA,7,"1,15,10,13,6,3,4,2,14,12,5,11,8,7,9"
14087,commdev-image-keyboard-response,335,646476,learnblock1,798,img/planet15_right.png,15,Community 1,NA,TRUE,j,j,NA,NA,NA,NA,7,"1,15,10,13,6,3,4,2,14,12,5,11,8,7,9"
14087,commdev-image-keyboard-response,336,647738,learnblock1,616,img/planet13_left.png,13,Community 1,NA,TRUE,f,f,NA,NA,NA,NA,7,"1,15,10,13,6,3,4,2,14,12,5,11,8,7,9"
14087,commdev-image-keyboard-response,337,648998,learnblock1,641,img/planet3_right.png,3,Community 2,NA,TRUE,j,j,NA,NA,NA,NA,7,"1,15,10,13,6,3,4,2,14,12,5,11,8,7,9"
14087,commdev-image-keyboard-response,338,650385,learnblock1,472,img/planet4_left.png,4,Community 2,NA,TRUE,f,f,NA,NA,NA,NA,7,"1,15,10,13,6,3,4,2,14,12,5,11,8,7,9"
14087,commdev-image-keyboard-response,339,651645,learnblock1,568,img/planet3_right.png,3,Community 2,NA,TRUE,j,j,NA,NA,NA,NA,7,"1,15,10,13,6,3,4,2,14,12,5,11,8,7,9"
14087,commdev-image-keyboard-response,340,652954,learnblock1,692,img/planet12_right.png,12,Community 2,NA,TRUE,j,j,NA,NA,NA,NA,7,"1,15,10,13,6,3,4,2,14,12,5,11,8,7,9"
14087,commdev-image-keyboard-response,341,654216,learnblock1,712,img/planet14_left.png,14,Community 2,NA,TRUE,f,f,NA,NA,NA,NA,7,"1,15,10,13,6,3,4,2,14,12,5,11,8,7,9"
14087,commdev-image-keyboard-response,342,655479,learnblock1,701,img/planet4_left.png,4,Community 2,NA,TRUE,f,f,NA,NA,NA,NA,7,"1,15,10,13,6,3,4,2,14,12,5,11,8,7,9"
14087,commdev-image-keyboard-response,343,656740,learnblock1,571,img/planet3_left.png,3,Community 2,NA,TRUE,f,f,NA,NA,NA,NA,7,"1,15,10,13,6,3,4,2,14,12,5,11,8,7,9"
14087,commdev-image-keyboard-response,344,658050,learnblock1,680,img/planet14_left.png,14,Community 2,NA,TRUE,f,f,NA,NA,NA,NA,7,"1,15,10,13,6,3,4,2,14,12,5,11,8,7,9"
14087,commdev-image-keyboard-response,345,659307,learnblock1,762,img/planet4_right.png,4,Community 2,NA,TRUE,j,j,NA,NA,NA,NA,7,"1,15,10,13,6,3,4,2,14,12,5,11,8,7,9"
14087,commdev-image-keyboard-response,346,660567,learnblock1,651,img/planet12_left.png,12,Community 2,NA,TRUE,f,f,NA,NA,NA,NA,7,"1,15,10,13,6,3,4,2,14,12,5,11,8,7,9"
14087,commdev-image-keyboard-response,347,661831,learnblock1,643,img/planet14_right.png,14,Community 2,NA,TRUE,j,j,NA,NA,NA,NA,7,"1,15,10,13,6,3,4,2,14,12,5,11,8,7,9"
14087,commdev-image-keyboard-response,351,963412,learnblock2,26,img/planet10_left.png,10,Community 1,NA,FALSE,j,f,NA,NA,NA,NA,7,"1,15,10,13,6,3,4,2,14,12,5,11,8,7,9"
14087,commdev-image-keyboard-response,352,964674,learnblock2,655,img/planet13_left.png,13,Community 1,NA,TRUE,f,f,NA,NA,NA,NA,7,"1,15,10,13,6,3,4,2,14,12,5,11,8,7,9"
14087,commdev-image-keyboard-response,353,965935,learnblock2,618,img/planet15_right.png,15,Community 1,NA,TRUE,j,j,NA,NA,NA,NA,7,"1,15,10,13,6,3,4,2,14,12,5,11,8,7,9"
14087,commdev-image-keyboard-response,354,967197,learnblock2,714,img/planet13_left.png,13,Community 1,NA,TRUE,f,f,NA,NA,NA,NA,7,"1,15,10,13,6,3,4,2,14,12,5,11,8,7,9"
14087,commdev-image-keyboard-response,355,968457,learnblock2,642,img/planet10_right.png,10,Community 1,NA,TRUE,j,j,NA,NA,NA,NA,7,"1,15,10,13,6,3,4,2,14,12,5,11,8,7,9"
14087,commdev-image-keyboard-response,356,969719,learnblock2,492,img/planet13_left.png,13,Community 1,NA,TRUE,f,f,NA,NA,NA,NA,7,"1,15,10,13,6,3,4,2,14,12,5,11,8,7,9"
14087,commdev-image-keyboard-response,357,970979,learnblock2,776,img/planet3_right.png,3,Community 2,NA,TRUE,j,j,NA,NA,NA,NA,7,"1,15,10,13,6,3,4,2,14,12,5,11,8,7,9"
14087,commdev-image-keyboard-response,358,972240,learnblock2,861,img/planet14_right.png,14,Community 2,NA,TRUE,j,j,NA,NA,NA,NA,7,"1,15,10,13,6,3,4,2,14,12,5,11,8,7,9"
14087,commdev-image-keyboard-response,359,973502,learnblock2,778,img/planet4_right.png,4,Community 2,NA,TRUE,j,j,NA,NA,NA,NA,7,"1,15,10,13,6,3,4,2,14,12,5,11,8,7,9"
14087,commdev-image-keyboard-response,360,974764,learnblock2,763,img/planet3_right.png,3,Community 2,NA,TRUE,j,j,NA,NA,NA,NA,7,"1,15,10,13,6,3,4,2,14,12,5,11,8,7,9"
14087,commdev-image-keyboard-response,361,976024,learnblock2,716,img/planet12_right.png,12,Community 2,NA,TRUE,j,j,NA,NA,NA,NA,7,"1,15,10,13,6,3,4,2,14,12,5,11,8,7,9"
14087,commdev-image-keyboard-response,362,977283,learnblock2,806,img/planet4_right.png,4,Community 2,NA,TRUE,j,j,NA,NA,NA,NA,7,"1,15,10,13,6,3,4,2,14,12,5,11,8,7,9"
14087,commdev-image-keyboard-response,363,978546,learnblock2,698,img/planet12_right.png,12,Community 2,NA,TRUE,j,j,NA,NA,NA,NA,7,"1,15,10,13,6,3,4,2,14,12,5,11,8,7,9"
14087,commdev-image-keyboard-response,364,979805,learnblock2,752,img/planet14_right.png,14,Community 2,NA,TRUE,j,j,NA,NA,NA,NA,7,"1,15,10,13,6,3,4,2,14,12,5,11,8,7,9"
14087,commdev-image-keyboard-response,365,981068,learnblock2,758,img/planet4_left.png,4,Community 2,NA,TRUE,f,f,NA,NA,NA,NA,7,"1,15,10,13,6,3,4,2,14,12,5,11,8,7,9"
14087,commdev-image-keyboard-response,366,982326,learnblock2,619,img/planet3_left.png,3,Community 2,NA,TRUE,f,f,NA,NA,NA,NA,7,"1,15,10,13,6,3,4,2,14,12,5,11,8,7,9"
14087,commdev-image-keyboard-response,367,983585,learnblock2,723,img/planet14_left.png,14,Community 2,NA,TRUE,f,f,NA,NA,NA,NA,7,"1,15,10,13,6,3,4,2,14,12,5,11,8,7,9"
14087,commdev-image-keyboard-response,368,984846,learnblock2,789,img/planet12_left.png,12,Community 2,NA,TRUE,f,f,NA,NA,NA,NA,7,"1,15,10,13,6,3,4,2,14,12,5,11,8,7,9"
14087,commdev-image-keyboard-response,369,986108,learnblock2,653,img/planet4_right.png,4,Community 2,NA,TRUE,j,j,NA,NA,NA,NA,7,"1,15,10,13,6,3,4,2,14,12,5,11,8,7,9"
14087,commdev-image-keyboard-response,370,987511,learnblock2,719,img/planet12_right.png,12,Community 2,NA,FALSE,f,j,NA,NA,NA,NA,7,"1,15,10,13,6,3,4,2,14,12,5,11,8,7,9"
14087,commdev-image-keyboard-response,371,988773,learnblock2,1124,img/planet14_left.png,14,Community 2,NA,TRUE,f,f,NA,NA,NA,NA,7,"1,15,10,13,6,3,4,2,14,12,5,11,8,7,9"
14087,commdev-image-keyboard-response,372,990038,learnblock2,724,img/planet4_left.png,4,Community 2,NA,FALSE,j,f,NA,NA,NA,NA,7,"1,15,10,13,6,3,4,2,14,12,5,11,8,7,9"
14087,commdev-image-keyboard-response,373,991302,learnblock2,884,img/planet2_right.png,2,Community 2,NA,TRUE,j,j,NA,NA,NA,NA,7,"1,15,10,13,6,3,4,2,14,12,5,11,8,7,9"
14087,commdev-image-keyboard-response,374,992561,learnblock2,746,img/planet12_left.png,12,Community 2,NA,TRUE,f,f,NA,NA,NA,NA,7,"1,15,10,13,6,3,4,2,14,12,5,11,8,7,9"
14087,commdev-image-keyboard-response,375,993824,learnblock2,675,img/planet14_right.png,14,Community 2,NA,TRUE,j,j,NA,NA,NA,NA,7,"1,15,10,13,6,3,4,2,14,12,5,11,8,7,9"
14087,commdev-image-keyboard-response,376,995081,learnblock2,691,img/planet4_left.png,4,Community 2,NA,TRUE,f,f,NA,NA,NA,NA,7,"1,15,10,13,6,3,4,2,14,12,5,11,8,7,9"
14087,commdev-image-keyboard-response,377,996342,learnblock2,678,img/planet3_left.png,3,Community 2,NA,TRUE,f,f,NA,NA,NA,NA,7,"1,15,10,13,6,3,4,2,14,12,5,11,8,7,9"
14087,commdev-image-keyboard-response,378,997598,learnblock2,757,img/planet13_left.png,13,Community 1,NA,TRUE,f,f,NA,NA,NA,NA,7,"1,15,10,13,6,3,4,2,14,12,5,11,8,7,9"
14087,commdev-image-keyboard-response,379,998859,learnblock2,652,img/planet3_right.png,3,Community 2,NA,TRUE,j,j,NA,NA,NA,NA,7,"1,15,10,13,6,3,4,2,14,12,5,11,8,7,9"
14087,commdev-image-keyboard-response,380,1000264,learnblock2,679,img/planet13_right.png,13,Community 1,NA,TRUE,j,j,NA,NA,NA,NA,7,"1,15,10,13,6,3,4,2,14,12,5,11,8,7,9"
14087,commdev-image-keyboard-response,381,1001524,learnblock2,711,img/planet1_left.png,1,Community 1,NA,TRUE,f,f,NA,NA,NA,NA,7,"1,15,10,13,6,3,4,2,14,12,5,11,8,7,9"
14087,commdev-image-keyboard-response,382,1002785,learnblock2,684,img/planet13_right.png,13,Community 1,NA,TRUE,j,j,NA,NA,NA,NA,7,"1,15,10,13,6,3,4,2,14,12,5,11,8,7,9"
14087,commdev-image-keyboard-response,383,1004044,learnblock2,749,img/planet15_right.png,15,Community 1,NA,TRUE,j,j,NA,NA,NA,NA,7,"1,15,10,13,6,3,4,2,14,12,5,11,8,7,9"
14087,commdev-image-keyboard-response,384,1005309,learnblock2,659,img/planet10_left.png,10,Community 1,NA,TRUE,f,f,NA,NA,NA,NA,7,"1,15,10,13,6,3,4,2,14,12,5,11,8,7,9"
14087,commdev-image-keyboard-response,385,1006717,learnblock2,889,img/planet15_right.png,15,Community 1,NA,TRUE,j,j,NA,NA,NA,NA,7,"1,15,10,13,6,3,4,2,14,12,5,11,8,7,9"
14087,commdev-image-keyboard-response,386,1007974,learnblock2,806,img/planet13_right.png,13,Community 1,NA,TRUE,j,j,NA,NA,NA,NA,7,"1,15,10,13,6,3,4,2,14,12,5,11,8,7,9"
14087,commdev-image-keyboard-response,387,1009235,learnblock2,615,img/planet10_left.png,10,Community 1,NA,TRUE,f,f,NA,NA,NA,NA,7,"1,15,10,13,6,3,4,2,14,12,5,11,8,7,9"
14087,commdev-image-keyboard-response,388,1010495,learnblock2,814,img/planet1_left.png,1,Community 1,NA,TRUE,f,f,NA,NA,NA,NA,7,"1,15,10,13,6,3,4,2,14,12,5,11,8,7,9"
14087,commdev-image-keyboard-response,389,1011755,learnblock2,650,img/planet10_right.png,10,Community 1,NA,TRUE,j,j,NA,NA,NA,NA,7,"1,15,10,13,6,3,4,2,14,12,5,11,8,7,9"
14087,commdev-image-keyboard-response,390,1013016,learnblock2,634,img/planet1_left.png,1,Community 1,NA,TRUE,f,f,NA,NA,NA,NA,7,"1,15,10,13,6,3,4,2,14,12,5,11,8,7,9"
14087,commdev-image-keyboard-response,391,1014391,learnblock2,679,img/planet13_right.png,13,Community 1,NA,TRUE,j,j,NA,NA,NA,NA,7,"1,15,10,13,6,3,4,2,14,12,5,11,8,7,9"
14087,commdev-image-keyboard-response,392,1015652,learnblock2,592,img/planet1_left.png,1,Community 1,NA,TRUE,f,f,NA,NA,NA,NA,7,"1,15,10,13,6,3,4,2,14,12,5,11,8,7,9"
14087,commdev-image-keyboard-response,393,1016991,learnblock2,658,img/planet10_right.png,10,Community 1,NA,TRUE,j,j,NA,NA,NA,NA,7,"1,15,10,13,6,3,4,2,14,12,5,11,8,7,9"
14087,commdev-image-keyboard-response,394,1018254,learnblock2,589,img/planet1_right.png,1,Community 1,NA,FALSE,f,j,NA,NA,NA,NA,7,"1,15,10,13,6,3,4,2,14,12,5,11,8,7,9"
14087,commdev-image-keyboard-response,395,1019511,learnblock2,518,img/planet15_left.png,15,Community 1,NA,TRUE,f,f,NA,NA,NA,NA,7,"1,15,10,13,6,3,4,2,14,12,5,11,8,7,9"
14087,commdev-image-keyboard-response,396,1020771,learnblock2,722,img/planet6_left.png,6,Community 1,NA,FALSE,j,f,NA,NA,NA,NA,7,"1,15,10,13,6,3,4,2,14,12,5,11,8,7,9"
14087,commdev-image-keyboard-response,397,1022031,learnblock2,810,img/planet15_right.png,15,Community 1,NA,TRUE,j,j,NA,NA,NA,NA,7,"1,15,10,13,6,3,4,2,14,12,5,11,8,7,9"
14087,commdev-image-keyboard-response,398,1023295,learnblock2,595,img/planet13_left.png,13,Community 1,NA,TRUE,f,f,NA,NA,NA,NA,7,"1,15,10,13,6,3,4,2,14,12,5,11,8,7,9"
14087,commdev-image-keyboard-response,399,1024555,learnblock2,682,img/planet1_left.png,1,Community 1,NA,TRUE,f,f,NA,NA,NA,NA,7,"1,15,10,13,6,3,4,2,14,12,5,11,8,7,9"
14087,commdev-image-keyboard-response,400,1025817,learnblock2,1239,img/planet6_right.png,6,Community 1,NA,TRUE,j,j,NA,NA,NA,NA,7,"1,15,10,13,6,3,4,2,14,12,5,11,8,7,9"
14087,commdev-image-keyboard-response,401,1027078,learnblock2,606,img/planet5_right.png,5,Community 3,NA,FALSE,f,j,NA,NA,NA,NA,7,"1,15,10,13,6,3,4,2,14,12,5,11,8,7,9"
14087,commdev-image-keyboard-response,402,1028433,learnblock2,734,img/planet8_right.png,8,Community 3,NA,TRUE,j,j,NA,NA,NA,NA,7,"1,15,10,13,6,3,4,2,14,12,5,11,8,7,9"
14087,commdev-image-keyboard-response,403,1029697,learnblock2,877,img/planet9_right.png,9,Community 3,NA,TRUE,j,j,NA,NA,NA,NA,7,"1,15,10,13,6,3,4,2,14,12,5,11,8,7,9"
14087,commdev-image-keyboard-response,404,1030958,learnblock2,758,img/planet7_right.png,7,Community 3,NA,TRUE,j,j,NA,NA,NA,NA,7,"1,15,10,13,6,3,4,2,14,12,5,11,8,7,9"
14087,commdev-image-keyboard-response,405,1032218,learnblock2,908,img/planet8_left.png,8,Community 3,NA,TRUE,f,f,NA,NA,NA,NA,7,"1,15,10,13,6,3,4,2,14,12,5,11,8,7,9"
14087,commdev-image-keyboard-response,406,1033480,learnblock2,1022,img/planet11_left.png,11,Community 3,NA,TRUE,f,f,NA,NA,NA,NA,7,"1,15,10,13,6,3,4,2,14,12,5,11,8,7,9"
14087,commdev-image-keyboard-response,407,1034744,learnblock2,1179,img/planet8_right.png,8,Community 3,NA,TRUE,j,j,NA,NA,NA,NA,7,"1,15,10,13,6,3,4,2,14,12,5,11,8,7,9"
14087,commdev-image-keyboard-response,408,1036004,learnblock2,647,img/planet11_left.png,11,Community 3,NA,TRUE,f,f,NA,NA,NA,NA,7,"1,15,10,13,6,3,4,2,14,12,5,11,8,7,9"
14087,commdev-image-keyboard-response,409,1037391,learnblock2,908,img/planet2_left.png,2,Community 2,NA,TRUE,f,f,NA,NA,NA,NA,7,"1,15,10,13,6,3,4,2,14,12,5,11,8,7,9"
14087,commdev-image-keyboard-response,410,1038653,learnblock2,623,img/planet11_right.png,11,Community 3,NA,TRUE,j,j,NA,NA,NA,NA,7,"1,15,10,13,6,3,4,2,14,12,5,11,8,7,9"
14087,commdev-image-keyboard-response,411,1039914,learnblock2,694,img/planet7_right.png,7,Community 3,NA,TRUE,j,j,NA,NA,NA,NA,7,"1,15,10,13,6,3,4,2,14,12,5,11,8,7,9"
14087,commdev-image-keyboard-response,412,1041177,learnblock2,745,img/planet11_right.png,11,Community 3,NA,TRUE,j,j,NA,NA,NA,NA,7,"1,15,10,13,6,3,4,2,14,12,5,11,8,7,9"
14087,commdev-image-keyboard-response,413,1042439,learnblock2,683,img/planet7_right.png,7,Community 3,NA,TRUE,j,j,NA,NA,NA,NA,7,"1,15,10,13,6,3,4,2,14,12,5,11,8,7,9"
14087,commdev-image-keyboard-response,414,1043701,learnblock2,747,img/planet8_right.png,8,Community 3,NA,TRUE,j,j,NA,NA,NA,NA,7,"1,15,10,13,6,3,4,2,14,12,5,11,8,7,9"
14087,commdev-image-keyboard-response,415,1044962,learnblock2,815,img/planet9_right.png,9,Community 3,NA,TRUE,j,j,NA,NA,NA,NA,7,"1,15,10,13,6,3,4,2,14,12,5,11,8,7,9"
14087,commdev-image-keyboard-response,416,1046224,learnblock2,659,img/planet7_left.png,7,Community 3,NA,TRUE,f,f,NA,NA,NA,NA,7,"1,15,10,13,6,3,4,2,14,12,5,11,8,7,9"
14087,commdev-image-keyboard-response,417,1047482,learnblock2,936,img/planet5_right.png,5,Community 3,NA,TRUE,j,j,NA,NA,NA,NA,7,"1,15,10,13,6,3,4,2,14,12,5,11,8,7,9"
14087,commdev-image-keyboard-response,418,1048742,learnblock2,678,img/planet7_right.png,7,Community 3,NA,TRUE,j,j,NA,NA,NA,NA,7,"1,15,10,13,6,3,4,2,14,12,5,11,8,7,9"
14087,commdev-image-keyboard-response,419,1050002,learnblock2,813,img/planet5_left.png,5,Community 3,NA,TRUE,f,f,NA,NA,NA,NA,7,"1,15,10,13,6,3,4,2,14,12,5,11,8,7,9"
14087,commdev-image-keyboard-response,420,1051262,learnblock2,686,img/planet8_left.png,8,Community 3,NA,TRUE,f,f,NA,NA,NA,NA,7,"1,15,10,13,6,3,4,2,14,12,5,11,8,7,9"
14087,commdev-image-keyboard-response,421,1052524,learnblock2,730,img/planet7_right.png,7,Community 3,NA,TRUE,j,j,NA,NA,NA,NA,7,"1,15,10,13,6,3,4,2,14,12,5,11,8,7,9"
14087,commdev-image-keyboard-response,422,1053782,learnblock2,769,img/planet8_right.png,8,Community 3,NA,TRUE,j,j,NA,NA,NA,NA,7,"1,15,10,13,6,3,4,2,14,12,5,11,8,7,9"
14087,commdev-image-keyboard-response,423,1055041,learnblock2,747,img/planet5_left.png,5,Community 3,NA,FALSE,j,f,NA,NA,NA,NA,7,"1,15,10,13,6,3,4,2,14,12,5,11,8,7,9"
14087,commdev-image-keyboard-response,424,1056305,learnblock2,704,img/planet9_left.png,9,Community 3,NA,TRUE,f,f,NA,NA,NA,NA,7,"1,15,10,13,6,3,4,2,14,12,5,11,8,7,9"
14087,commdev-image-keyboard-response,425,1057565,learnblock2,720,img/planet11_left.png,11,Community 3,NA,TRUE,f,f,NA,NA,NA,NA,7,"1,15,10,13,6,3,4,2,14,12,5,11,8,7,9"
14087,commdev-image-keyboard-response,426,1058827,learnblock2,764,img/planet7_left.png,7,Community 3,NA,TRUE,f,f,NA,NA,NA,NA,7,"1,15,10,13,6,3,4,2,14,12,5,11,8,7,9"
14087,commdev-image-keyboard-response,427,1060088,learnblock2,735,img/planet5_left.png,5,Community 3,NA,TRUE,f,f,NA,NA,NA,NA,7,"1,15,10,13,6,3,4,2,14,12,5,11,8,7,9"
14087,commdev-image-keyboard-response,428,1061347,learnblock2,727,img/planet8_left.png,8,Community 3,NA,TRUE,f,f,NA,NA,NA,NA,7,"1,15,10,13,6,3,4,2,14,12,5,11,8,7,9"
14087,commdev-image-keyboard-response,429,1062609,learnblock2,621,img/planet5_left.png,5,Community 3,NA,TRUE,f,f,NA,NA,NA,NA,7,"1,15,10,13,6,3,4,2,14,12,5,11,8,7,9"
14087,commdev-image-keyboard-response,430,1063981,learnblock2,376,img/planet7_right.png,7,Community 3,NA,FALSE,f,j,NA,NA,NA,NA,7,"1,15,10,13,6,3,4,2,14,12,5,11,8,7,9"
14087,commdev-image-keyboard-response,431,1065247,learnblock2,966,img/planet8_right.png,8,Community 3,NA,TRUE,j,j,NA,NA,NA,NA,7,"1,15,10,13,6,3,4,2,14,12,5,11,8,7,9"
14087,commdev-image-keyboard-response,432,1066505,learnblock2,750,img/planet5_right.png,5,Community 3,NA,TRUE,j,j,NA,NA,NA,NA,7,"1,15,10,13,6,3,4,2,14,12,5,11,8,7,9"
14087,commdev-image-keyboard-response,433,1067767,learnblock2,615,img/planet7_right.png,7,Community 3,NA,TRUE,j,j,NA,NA,NA,NA,7,"1,15,10,13,6,3,4,2,14,12,5,11,8,7,9"
14087,commdev-image-keyboard-response,434,1069126,learnblock2,730,img/planet9_left.png,9,Community 3,NA,TRUE,f,f,NA,NA,NA,NA,7,"1,15,10,13,6,3,4,2,14,12,5,11,8,7,9"
14087,commdev-image-keyboard-response,435,1070387,learnblock2,636,img/planet8_right.png,8,Community 3,NA,TRUE,j,j,NA,NA,NA,NA,7,"1,15,10,13,6,3,4,2,14,12,5,11,8,7,9"
14087,commdev-image-keyboard-response,436,1071773,learnblock2,595,img/planet11_left.png,11,Community 3,NA,TRUE,f,f,NA,NA,NA,NA,7,"1,15,10,13,6,3,4,2,14,12,5,11,8,7,9"
14087,commdev-image-keyboard-response,437,1073033,learnblock2,725,img/planet8_left.png,8,Community 3,NA,TRUE,f,f,NA,NA,NA,NA,7,"1,15,10,13,6,3,4,2,14,12,5,11,8,7,9"
14087,commdev-image-keyboard-response,438,1074291,learnblock2,767,img/planet11_left.png,11,Community 3,NA,FALSE,j,f,NA,NA,NA,NA,7,"1,15,10,13,6,3,4,2,14,12,5,11,8,7,9"
14087,commdev-image-keyboard-response,439,1075555,learnblock2,453,img/planet7_right.png,7,Community 3,NA,TRUE,j,j,NA,NA,NA,NA,7,"1,15,10,13,6,3,4,2,14,12,5,11,8,7,9"
14087,commdev-image-keyboard-response,440,1076814,learnblock2,832,img/planet8_right.png,8,Community 3,NA,FALSE,f,j,NA,NA,NA,NA,7,"1,15,10,13,6,3,4,2,14,12,5,11,8,7,9"
14087,commdev-image-keyboard-response,441,1078071,learnblock2,557,img/planet9_left.png,9,Community 3,NA,TRUE,f,f,NA,NA,NA,NA,7,"1,15,10,13,6,3,4,2,14,12,5,11,8,7,9"
14087,commdev-image-keyboard-response,442,1079330,learnblock2,1178,img/planet8_left.png,8,Community 3,NA,TRUE,f,f,NA,NA,NA,NA,7,"1,15,10,13,6,3,4,2,14,12,5,11,8,7,9"
14087,commdev-image-keyboard-response,443,1080591,learnblock2,793,img/planet5_left.png,5,Community 3,NA,TRUE,f,f,NA,NA,NA,NA,7,"1,15,10,13,6,3,4,2,14,12,5,11,8,7,9"
14087,commdev-image-keyboard-response,444,1081850,learnblock2,719,img/planet7_right.png,7,Community 3,NA,TRUE,j,j,NA,NA,NA,NA,7,"1,15,10,13,6,3,4,2,14,12,5,11,8,7,9"
14087,commdev-image-keyboard-response,445,1083113,learnblock2,692,img/planet5_right.png,5,Community 3,NA,TRUE,j,j,NA,NA,NA,NA,7,"1,15,10,13,6,3,4,2,14,12,5,11,8,7,9"
14087,commdev-image-keyboard-response,446,1084378,learnblock2,676,img/planet6_right.png,6,Community 1,NA,TRUE,j,j,NA,NA,NA,NA,7,"1,15,10,13,6,3,4,2,14,12,5,11,8,7,9"
14087,commdev-image-keyboard-response,447,1085640,learnblock2,643,img/planet1_right.png,1,Community 1,NA,TRUE,j,j,NA,NA,NA,NA,7,"1,15,10,13,6,3,4,2,14,12,5,11,8,7,9"
14087,commdev-image-keyboard-response,448,1086904,learnblock2,631,img/planet6_left.png,6,Community 1,NA,TRUE,f,f,NA,NA,NA,NA,7,"1,15,10,13,6,3,4,2,14,12,5,11,8,7,9"
14087,commdev-image-keyboard-response,449,1088280,learnblock2,null,img/planet5_left.png,5,Community 3,NA,FALSE,null,f,NA,NA,NA,NA,7,"1,15,10,13,6,3,4,2,14,12,5,11,8,7,9"
14087,commdev-image-keyboard-response,450,1089538,learnblock2,1,img/planet9_left.png,9,Community 3,NA,TRUE,f,f,NA,NA,NA,NA,7,"1,15,10,13,6,3,4,2,14,12,5,11,8,7,9"
14087,commdev-image-keyboard-response,451,1090796,learnblock2,684,img/planet7_left.png,7,Community 3,NA,TRUE,f,f,NA,NA,NA,NA,7,"1,15,10,13,6,3,4,2,14,12,5,11,8,7,9"
14087,commdev-image-keyboard-response,452,1092056,learnblock2,743,img/planet11_right.png,11,Community 3,NA,TRUE,j,j,NA,NA,NA,NA,7,"1,15,10,13,6,3,4,2,14,12,5,11,8,7,9"
14087,commdev-image-keyboard-response,453,1093317,learnblock2,828,img/planet9_right.png,9,Community 3,NA,TRUE,j,j,NA,NA,NA,NA,7,"1,15,10,13,6,3,4,2,14,12,5,11,8,7,9"
14087,commdev-image-keyboard-response,454,1094580,learnblock2,971,img/planet8_left.png,8,Community 3,NA,TRUE,f,f,NA,NA,NA,NA,7,"1,15,10,13,6,3,4,2,14,12,5,11,8,7,9"
14087,commdev-image-keyboard-response,455,1095845,learnblock2,545,img/planet11_right.png,11,Community 3,NA,TRUE,j,j,NA,NA,NA,NA,7,"1,15,10,13,6,3,4,2,14,12,5,11,8,7,9"
14087,commdev-image-keyboard-response,456,1097139,learnblock2,807,img/planet8_right.png,8,Community 3,NA,FALSE,f,j,NA,NA,NA,NA,7,"1,15,10,13,6,3,4,2,14,12,5,11,8,7,9"
14087,commdev-image-keyboard-response,457,1098399,learnblock2,731,img/planet7_right.png,7,Community 3,NA,TRUE,j,j,NA,NA,NA,NA,7,"1,15,10,13,6,3,4,2,14,12,5,11,8,7,9"
14087,commdev-image-keyboard-response,458,1099662,learnblock2,591,img/planet11_right.png,11,Community 3,NA,TRUE,j,j,NA,NA,NA,NA,7,"1,15,10,13,6,3,4,2,14,12,5,11,8,7,9"
14087,commdev-image-keyboard-response,459,1100921,learnblock2,542,img/planet9_right.png,9,Community 3,NA,TRUE,j,j,NA,NA,NA,NA,7,"1,15,10,13,6,3,4,2,14,12,5,11,8,7,9"
14087,commdev-image-keyboard-response,460,1102214,learnblock2,689,img/planet7_left.png,7,Community 3,NA,TRUE,f,f,NA,NA,NA,NA,7,"1,15,10,13,6,3,4,2,14,12,5,11,8,7,9"
14087,commdev-image-keyboard-response,461,1103475,learnblock2,638,img/planet9_left.png,9,Community 3,NA,TRUE,f,f,NA,NA,NA,NA,7,"1,15,10,13,6,3,4,2,14,12,5,11,8,7,9"
14087,commdev-image-keyboard-response,462,1104863,learnblock2,711,img/planet7_right.png,7,Community 3,NA,TRUE,j,j,NA,NA,NA,NA,7,"1,15,10,13,6,3,4,2,14,12,5,11,8,7,9"
14087,commdev-image-keyboard-response,463,1106121,learnblock2,784,img/planet8_right.png,8,Community 3,NA,TRUE,j,j,NA,NA,NA,NA,7,"1,15,10,13,6,3,4,2,14,12,5,11,8,7,9"
14087,commdev-image-keyboard-response,464,1107379,learnblock2,816,img/planet7_right.png,7,Community 3,NA,TRUE,j,j,NA,NA,NA,NA,7,"1,15,10,13,6,3,4,2,14,12,5,11,8,7,9"
14087,commdev-image-keyboard-response,465,1108641,learnblock2,561,img/planet8_right.png,8,Community 3,NA,TRUE,j,j,NA,NA,NA,NA,7,"1,15,10,13,6,3,4,2,14,12,5,11,8,7,9"
14087,commdev-image-keyboard-response,466,1109951,learnblock2,755,img/planet7_right.png,7,Community 3,NA,TRUE,j,j,NA,NA,NA,NA,7,"1,15,10,13,6,3,4,2,14,12,5,11,8,7,9"
14087,commdev-image-keyboard-response,467,1111213,learnblock2,581,img/planet11_right.png,11,Community 3,NA,TRUE,j,j,NA,NA,NA,NA,7,"1,15,10,13,6,3,4,2,14,12,5,11,8,7,9"
14087,commdev-image-keyboard-response,468,1112540,learnblock2,599,img/planet9_right.png,9,Community 3,NA,TRUE,j,j,NA,NA,NA,NA,7,"1,15,10,13,6,3,4,2,14,12,5,11,8,7,9"
14087,commdev-image-keyboard-response,469,1113796,learnblock2,597,img/planet5_left.png,5,Community 3,NA,FALSE,j,f,NA,NA,NA,NA,7,"1,15,10,13,6,3,4,2,14,12,5,11,8,7,9"
14087,commdev-image-keyboard-response,470,1115154,learnblock2,847,img/planet8_left.png,8,Community 3,NA,TRUE,f,f,NA,NA,NA,NA,7,"1,15,10,13,6,3,4,2,14,12,5,11,8,7,9"
14087,commdev-image-keyboard-response,471,1116417,learnblock2,681,img/planet5_left.png,5,Community 3,NA,TRUE,f,f,NA,NA,NA,NA,7,"1,15,10,13,6,3,4,2,14,12,5,11,8,7,9"
14087,commdev-image-keyboard-response,472,1117680,learnblock2,830,img/planet7_right.png,7,Community 3,NA,TRUE,j,j,NA,NA,NA,NA,7,"1,15,10,13,6,3,4,2,14,12,5,11,8,7,9"
14087,commdev-image-keyboard-response,473,1118941,learnblock2,689,img/planet11_left.png,11,Community 3,NA,TRUE,f,f,NA,NA,NA,NA,7,"1,15,10,13,6,3,4,2,14,12,5,11,8,7,9"
14087,commdev-image-keyboard-response,474,1120203,learnblock2,null,img/planet2_left.png,2,Community 2,NA,FALSE,null,f,NA,NA,NA,NA,7,"1,15,10,13,6,3,4,2,14,12,5,11,8,7,9"
14087,commdev-image-keyboard-response,475,1121466,learnblock2,816,img/planet12_right.png,12,Community 2,NA,TRUE,j,j,NA,NA,NA,NA,7,"1,15,10,13,6,3,4,2,14,12,5,11,8,7,9"
14087,commdev-image-keyboard-response,476,1122728,learnblock2,669,img/planet14_right.png,14,Community 2,NA,TRUE,j,j,NA,NA,NA,NA,7,"1,15,10,13,6,3,4,2,14,12,5,11,8,7,9"
14087,commdev-image-keyboard-response,477,1123989,learnblock2,758,img/planet12_left.png,12,Community 2,NA,FALSE,j,f,NA,NA,NA,NA,7,"1,15,10,13,6,3,4,2,14,12,5,11,8,7,9"
14087,commdev-image-keyboard-response,478,1125245,learnblock2,872,img/planet2_left.png,2,Community 2,NA,TRUE,f,f,NA,NA,NA,NA,7,"1,15,10,13,6,3,4,2,14,12,5,11,8,7,9"
14087,commdev-image-keyboard-response,479,1126507,learnblock2,750,img/planet11_right.png,11,Community 3,NA,TRUE,j,j,NA,NA,NA,NA,7,"1,15,10,13,6,3,4,2,14,12,5,11,8,7,9"
14087,commdev-image-keyboard-response,480,1127771,learnblock2,639,img/planet8_left.png,8,Community 3,NA,TRUE,f,f,NA,NA,NA,NA,7,"1,15,10,13,6,3,4,2,14,12,5,11,8,7,9"
14087,commdev-image-keyboard-response,481,1129033,learnblock2,634,img/planet5_left.png,5,Community 3,NA,TRUE,f,f,NA,NA,NA,NA,7,"1,15,10,13,6,3,4,2,14,12,5,11,8,7,9"
14087,commdev-image-keyboard-response,482,1130421,learnblock2,695,img/planet9_right.png,9,Community 3,NA,TRUE,j,j,NA,NA,NA,NA,7,"1,15,10,13,6,3,4,2,14,12,5,11,8,7,9"
14087,commdev-image-keyboard-response,483,1131684,learnblock2,615,img/planet7_left.png,7,Community 3,NA,TRUE,f,f,NA,NA,NA,NA,7,"1,15,10,13,6,3,4,2,14,12,5,11,8,7,9"
14087,commdev-image-keyboard-response,484,1133043,learnblock2,626,img/planet11_left.png,11,Community 3,NA,TRUE,f,f,NA,NA,NA,NA,7,"1,15,10,13,6,3,4,2,14,12,5,11,8,7,9"
14087,commdev-image-keyboard-response,485,1134303,learnblock2,788,img/planet9_right.png,9,Community 3,NA,TRUE,j,j,NA,NA,NA,NA,7,"1,15,10,13,6,3,4,2,14,12,5,11,8,7,9"
14087,commdev-image-keyboard-response,486,1135566,learnblock2,677,img/planet8_right.png,8,Community 3,NA,TRUE,j,j,NA,NA,NA,NA,7,"1,15,10,13,6,3,4,2,14,12,5,11,8,7,9"
14087,commdev-image-keyboard-response,487,1136824,learnblock2,688,img/planet9_right.png,9,Community 3,NA,TRUE,j,j,NA,NA,NA,NA,7,"1,15,10,13,6,3,4,2,14,12,5,11,8,7,9"
14087,commdev-image-keyboard-response,488,1138083,learnblock2,626,img/planet5_right.png,5,Community 3,NA,TRUE,j,j,NA,NA,NA,NA,7,"1,15,10,13,6,3,4,2,14,12,5,11,8,7,9"
14087,commdev-image-keyboard-response,489,1139344,learnblock2,763,img/planet6_right.png,6,Community 1,NA,TRUE,j,j,NA,NA,NA,NA,7,"1,15,10,13,6,3,4,2,14,12,5,11,8,7,9"
14087,commdev-image-keyboard-response,490,1140606,learnblock2,720,img/planet15_right.png,15,Community 1,NA,TRUE,j,j,NA,NA,NA,NA,7,"1,15,10,13,6,3,4,2,14,12,5,11,8,7,9"
14087,commdev-image-keyboard-response,491,1141865,learnblock2,572,img/planet10_left.png,10,Community 1,NA,TRUE,f,f,NA,NA,NA,NA,7,"1,15,10,13,6,3,4,2,14,12,5,11,8,7,9"
14087,commdev-image-keyboard-response,492,1143192,learnblock2,760,img/planet1_right.png,1,Community 1,NA,TRUE,j,j,NA,NA,NA,NA,7,"1,15,10,13,6,3,4,2,14,12,5,11,8,7,9"
14087,commdev-image-keyboard-response,493,1144451,learnblock2,932,img/planet6_right.png,6,Community 1,NA,TRUE,j,j,NA,NA,NA,NA,7,"1,15,10,13,6,3,4,2,14,12,5,11,8,7,9"
14087,commdev-image-keyboard-response,494,1145710,learnblock2,516,img/planet1_right.png,1,Community 1,NA,TRUE,j,j,NA,NA,NA,NA,7,"1,15,10,13,6,3,4,2,14,12,5,11,8,7,9"
14087,commdev-image-keyboard-response,495,1146971,learnblock2,628,img/planet13_left.png,13,Community 1,NA,TRUE,f,f,NA,NA,NA,NA,7,"1,15,10,13,6,3,4,2,14,12,5,11,8,7,9"
14087,commdev-image-keyboard-response,496,1148341,learnblock2,741,img/planet1_right.png,1,Community 1,NA,TRUE,j,j,NA,NA,NA,NA,7,"1,15,10,13,6,3,4,2,14,12,5,11,8,7,9"
14087,commdev-image-keyboard-response,497,1149604,learnblock2,678,img/planet10_right.png,10,Community 1,NA,TRUE,j,j,NA,NA,NA,NA,7,"1,15,10,13,6,3,4,2,14,12,5,11,8,7,9"
14087,commdev-image-keyboard-response,498,1150865,learnblock2,741,img/planet15_right.png,15,Community 1,NA,TRUE,j,j,NA,NA,NA,NA,7,"1,15,10,13,6,3,4,2,14,12,5,11,8,7,9"
14087,commdev-image-keyboard-response,499,1152124,learnblock2,694,img/planet6_left.png,6,Community 1,NA,TRUE,f,f,NA,NA,NA,NA,7,"1,15,10,13,6,3,4,2,14,12,5,11,8,7,9"
14087,commdev-image-keyboard-response,500,1153384,learnblock2,698,img/planet1_left.png,1,Community 1,NA,TRUE,f,f,NA,NA,NA,NA,7,"1,15,10,13,6,3,4,2,14,12,5,11,8,7,9"
14087,commdev-image-keyboard-response,501,1154644,learnblock2,584,img/planet6_left.png,6,Community 1,NA,FALSE,j,f,NA,NA,NA,NA,7,"1,15,10,13,6,3,4,2,14,12,5,11,8,7,9"
14087,commdev-image-keyboard-response,502,1155908,learnblock2,740,img/planet15_left.png,15,Community 1,NA,TRUE,f,f,NA,NA,NA,NA,7,"1,15,10,13,6,3,4,2,14,12,5,11,8,7,9"
14087,commdev-image-keyboard-response,503,1157168,learnblock2,735,img/planet10_right.png,10,Community 1,NA,TRUE,j,j,NA,NA,NA,NA,7,"1,15,10,13,6,3,4,2,14,12,5,11,8,7,9"
14087,commdev-image-keyboard-response,504,1158431,learnblock2,956,img/planet6_right.png,6,Community 1,NA,TRUE,j,j,NA,NA,NA,NA,7,"1,15,10,13,6,3,4,2,14,12,5,11,8,7,9"
14087,commdev-image-keyboard-response,505,1159691,learnblock2,728,img/planet15_left.png,15,Community 1,NA,TRUE,f,f,NA,NA,NA,NA,7,"1,15,10,13,6,3,4,2,14,12,5,11,8,7,9"
14087,commdev-image-keyboard-response,506,1160952,learnblock2,547,img/planet6_right.png,6,Community 1,NA,TRUE,j,j,NA,NA,NA,NA,7,"1,15,10,13,6,3,4,2,14,12,5,11,8,7,9"
14087,commdev-image-keyboard-response,507,1162247,learnblock2,547,img/planet5_left.png,5,Community 3,NA,TRUE,f,f,NA,NA,NA,NA,7,"1,15,10,13,6,3,4,2,14,12,5,11,8,7,9"
14087,commdev-image-keyboard-response,508,1163509,learnblock2,620,img/planet8_left.png,8,Community 3,NA,TRUE,f,f,NA,NA,NA,NA,7,"1,15,10,13,6,3,4,2,14,12,5,11,8,7,9"
14087,commdev-image-keyboard-response,509,1164772,learnblock2,789,img/planet9_right.png,9,Community 3,NA,TRUE,j,j,NA,NA,NA,NA,7,"1,15,10,13,6,3,4,2,14,12,5,11,8,7,9"
14087,commdev-image-keyboard-response,510,1166031,learnblock2,650,img/planet8_right.png,8,Community 3,NA,FALSE,f,j,NA,NA,NA,NA,7,"1,15,10,13,6,3,4,2,14,12,5,11,8,7,9"
14087,commdev-image-keyboard-response,511,1167291,learnblock2,652,img/planet9_right.png,9,Community 3,NA,TRUE,j,j,NA,NA,NA,NA,7,"1,15,10,13,6,3,4,2,14,12,5,11,8,7,9"
14087,commdev-image-keyboard-response,512,1168697,learnblock2,545,img/planet5_left.png,5,Community 3,NA,TRUE,f,f,NA,NA,NA,NA,7,"1,15,10,13,6,3,4,2,14,12,5,11,8,7,9"
14087,commdev-image-keyboard-response,513,1169959,learnblock2,575,img/planet6_right.png,6,Community 1,NA,TRUE,j,j,NA,NA,NA,NA,7,"1,15,10,13,6,3,4,2,14,12,5,11,8,7,9"
14087,commdev-image-keyboard-response,514,1171284,learnblock2,632,img/planet5_right.png,5,Community 3,NA,TRUE,j,j,NA,NA,NA,NA,7,"1,15,10,13,6,3,4,2,14,12,5,11,8,7,9"
14087,commdev-image-keyboard-response,515,1172545,learnblock2,637,img/planet6_left.png,6,Community 1,NA,TRUE,f,f,NA,NA,NA,NA,7,"1,15,10,13,6,3,4,2,14,12,5,11,8,7,9"
14087,commdev-image-keyboard-response,516,1173935,learnblock2,606,img/planet5_left.png,5,Community 3,NA,FALSE,j,f,NA,NA,NA,NA,7,"1,15,10,13,6,3,4,2,14,12,5,11,8,7,9"
14087,commdev-image-keyboard-response,517,1175193,learnblock2,719,img/planet8_left.png,8,Community 3,NA,TRUE,f,f,NA,NA,NA,NA,7,"1,15,10,13,6,3,4,2,14,12,5,11,8,7,9"
14087,commdev-image-keyboard-response,518,1176455,learnblock2,545,img/planet9_left.png,9,Community 3,NA,TRUE,f,f,NA,NA,NA,NA,7,"1,15,10,13,6,3,4,2,14,12,5,11,8,7,9"
14087,commdev-image-keyboard-response,519,1177714,learnblock2,720,img/planet7_left.png,7,Community 3,NA,TRUE,f,f,NA,NA,NA,NA,7,"1,15,10,13,6,3,4,2,14,12,5,11,8,7,9"
14087,commdev-image-keyboard-response,520,1178978,learnblock2,650,img/planet8_right.png,8,Community 3,NA,TRUE,j,j,NA,NA,NA,NA,7,"1,15,10,13,6,3,4,2,14,12,5,11,8,7,9"
14087,commdev-image-keyboard-response,521,1180240,learnblock2,714,img/planet7_left.png,7,Community 3,NA,TRUE,f,f,NA,NA,NA,NA,7,"1,15,10,13,6,3,4,2,14,12,5,11,8,7,9"
14087,commdev-image-keyboard-response,522,1181497,learnblock2,752,img/planet8_left.png,8,Community 3,NA,TRUE,f,f,NA,NA,NA,NA,7,"1,15,10,13,6,3,4,2,14,12,5,11,8,7,9"
14087,commdev-image-keyboard-response,523,1182757,learnblock2,648,img/planet5_right.png,5,Community 3,NA,TRUE,j,j,NA,NA,NA,NA,7,"1,15,10,13,6,3,4,2,14,12,5,11,8,7,9"
14087,commdev-image-keyboard-response,524,1184144,learnblock2,690,img/planet8_left.png,8,Community 3,NA,TRUE,f,f,NA,NA,NA,NA,7,"1,15,10,13,6,3,4,2,14,12,5,11,8,7,9"
14087,commdev-image-keyboard-response,525,1185409,learnblock2,842,img/planet7_left.png,7,Community 3,NA,TRUE,f,f,NA,NA,NA,NA,7,"1,15,10,13,6,3,4,2,14,12,5,11,8,7,9"
14087,commdev-image-keyboard-response,526,1186670,learnblock2,596,img/planet5_left.png,5,Community 3,NA,TRUE,f,f,NA,NA,NA,NA,7,"1,15,10,13,6,3,4,2,14,12,5,11,8,7,9"
14087,commdev-image-keyboard-response,527,1187930,learnblock2,620,img/planet9_right.png,9,Community 3,NA,TRUE,j,j,NA,NA,NA,NA,7,"1,15,10,13,6,3,4,2,14,12,5,11,8,7,9"
14087,commdev-image-keyboard-response,528,1189305,learnblock2,764,img/planet11_right.png,11,Community 3,NA,TRUE,j,j,NA,NA,NA,NA,7,"1,15,10,13,6,3,4,2,14,12,5,11,8,7,9"
14087,commdev-image-keyboard-response,529,1190566,learnblock2,598,img/planet2_left.png,2,Community 2,NA,TRUE,f,f,NA,NA,NA,NA,7,"1,15,10,13,6,3,4,2,14,12,5,11,8,7,9"
14087,commdev-image-keyboard-response,530,1191824,learnblock2,629,img/planet12_right.png,12,Community 2,NA,TRUE,j,j,NA,NA,NA,NA,7,"1,15,10,13,6,3,4,2,14,12,5,11,8,7,9"
14087,commdev-image-keyboard-response,531,1193081,learnblock2,723,img/planet4_left.png,4,Community 2,NA,TRUE,f,f,NA,NA,NA,NA,7,"1,15,10,13,6,3,4,2,14,12,5,11,8,7,9"
14087,commdev-image-keyboard-response,532,1194343,learnblock2,718,img/planet14_right.png,14,Community 2,NA,TRUE,j,j,NA,NA,NA,NA,7,"1,15,10,13,6,3,4,2,14,12,5,11,8,7,9"
14087,commdev-image-keyboard-response,533,1195603,learnblock2,603,img/planet3_left.png,3,Community 2,NA,TRUE,f,f,NA,NA,NA,NA,7,"1,15,10,13,6,3,4,2,14,12,5,11,8,7,9"
14087,commdev-image-keyboard-response,534,1196866,learnblock2,785,img/planet12_left.png,12,Community 2,NA,TRUE,f,f,NA,NA,NA,NA,7,"1,15,10,13,6,3,4,2,14,12,5,11,8,7,9"
14087,commdev-image-keyboard-response,535,1198126,learnblock2,756,img/planet4_right.png,4,Community 2,NA,TRUE,j,j,NA,NA,NA,NA,7,"1,15,10,13,6,3,4,2,14,12,5,11,8,7,9"
14087,commdev-image-keyboard-response,536,1199383,learnblock2,586,img/planet3_left.png,3,Community 2,NA,TRUE,f,f,NA,NA,NA,NA,7,"1,15,10,13,6,3,4,2,14,12,5,11,8,7,9"
14087,commdev-image-keyboard-response,537,1200724,learnblock2,782,img/planet12_left.png,12,Community 2,NA,TRUE,f,f,NA,NA,NA,NA,7,"1,15,10,13,6,3,4,2,14,12,5,11,8,7,9"
14087,commdev-image-keyboard-response,538,1201985,learnblock2,698,img/planet14_left.png,14,Community 2,NA,TRUE,f,f,NA,NA,NA,NA,7,"1,15,10,13,6,3,4,2,14,12,5,11,8,7,9"
14087,commdev-image-keyboard-response,539,1203249,learnblock2,612,img/planet12_right.png,12,Community 2,NA,TRUE,j,j,NA,NA,NA,NA,7,"1,15,10,13,6,3,4,2,14,12,5,11,8,7,9"
14087,commdev-image-keyboard-response,540,1204508,learnblock2,695,img/planet14_left.png,14,Community 2,NA,TRUE,f,f,NA,NA,NA,NA,7,"1,15,10,13,6,3,4,2,14,12,5,11,8,7,9"
14087,commdev-image-keyboard-response,541,1205769,learnblock2,538,img/planet4_right.png,4,Community 2,NA,FALSE,f,j,NA,NA,NA,NA,7,"1,15,10,13,6,3,4,2,14,12,5,11,8,7,9"
14087,commdev-image-keyboard-response,542,1207032,learnblock2,745,img/planet14_right.png,14,Community 2,NA,TRUE,j,j,NA,NA,NA,NA,7,"1,15,10,13,6,3,4,2,14,12,5,11,8,7,9"
14087,commdev-image-keyboard-response,543,1208296,learnblock2,730,img/planet12_right.png,12,Community 2,NA,TRUE,j,j,NA,NA,NA,NA,7,"1,15,10,13,6,3,4,2,14,12,5,11,8,7,9"
14087,commdev-image-keyboard-response,544,1209558,learnblock2,672,img/planet4_right.png,4,Community 2,NA,TRUE,j,j,NA,NA,NA,NA,7,"1,15,10,13,6,3,4,2,14,12,5,11,8,7,9"
14087,commdev-image-keyboard-response,545,1210818,learnblock2,809,img/planet12_right.png,12,Community 2,NA,TRUE,j,j,NA,NA,NA,NA,7,"1,15,10,13,6,3,4,2,14,12,5,11,8,7,9"
14087,commdev-image-keyboard-response,546,1212081,learnblock2,882,img/planet14_right.png,14,Community 2,NA,TRUE,j,j,NA,NA,NA,NA,7,"1,15,10,13,6,3,4,2,14,12,5,11,8,7,9"
14087,commdev-image-keyboard-response,547,1213345,learnblock2,657,img/planet3_right.png,3,Community 2,NA,TRUE,j,j,NA,NA,NA,NA,7,"1,15,10,13,6,3,4,2,14,12,5,11,8,7,9"
14087,commdev-image-keyboard-response,548,1214752,learnblock2,538,img/planet4_left.png,4,Community 2,NA,FALSE,j,f,NA,NA,NA,NA,7,"1,15,10,13,6,3,4,2,14,12,5,11,8,7,9"
14087,commdev-image-keyboard-response,549,1216011,learnblock2,575,img/planet12_right.png,12,Community 2,NA,TRUE,j,j,NA,NA,NA,NA,7,"1,15,10,13,6,3,4,2,14,12,5,11,8,7,9"
14087,commdev-image-keyboard-response,550,1217272,learnblock2,446,img/planet14_right.png,14,Community 2,NA,TRUE,j,j,NA,NA,NA,NA,7,"1,15,10,13,6,3,4,2,14,12,5,11,8,7,9"
14087,commdev-image-keyboard-response,551,1218531,learnblock2,546,img/planet12_right.png,12,Community 2,NA,TRUE,j,j,NA,NA,NA,NA,7,"1,15,10,13,6,3,4,2,14,12,5,11,8,7,9"
14087,commdev-image-keyboard-response,552,1219791,learnblock2,396,img/planet3_left.png,3,Community 2,NA,FALSE,j,f,NA,NA,NA,NA,7,"1,15,10,13,6,3,4,2,14,12,5,11,8,7,9"
14087,commdev-image-keyboard-response,553,1221052,learnblock2,580,img/planet4_left.png,4,Community 2,NA,FALSE,j,f,NA,NA,NA,NA,7,"1,15,10,13,6,3,4,2,14,12,5,11,8,7,9"
14087,commdev-image-keyboard-response,554,1222312,learnblock2,644,img/planet14_right.png,14,Community 2,NA,TRUE,j,j,NA,NA,NA,NA,7,"1,15,10,13,6,3,4,2,14,12,5,11,8,7,9"
14087,commdev-image-keyboard-response,555,1223571,learnblock2,613,img/planet4_right.png,4,Community 2,NA,TRUE,j,j,NA,NA,NA,NA,7,"1,15,10,13,6,3,4,2,14,12,5,11,8,7,9"
14087,commdev-image-keyboard-response,556,1224831,learnblock2,704,img/planet2_left.png,2,Community 2,NA,TRUE,f,f,NA,NA,NA,NA,7,"1,15,10,13,6,3,4,2,14,12,5,11,8,7,9"
14087,commdev-image-keyboard-response,557,1226093,learnblock2,688,img/planet11_left.png,11,Community 3,NA,TRUE,f,f,NA,NA,NA,NA,7,"1,15,10,13,6,3,4,2,14,12,5,11,8,7,9"
14087,commdev-image-keyboard-response,558,1227353,learnblock2,740,img/planet7_right.png,7,Community 3,NA,TRUE,j,j,NA,NA,NA,NA,7,"1,15,10,13,6,3,4,2,14,12,5,11,8,7,9"
14087,commdev-image-keyboard-response,559,1228613,learnblock2,611,img/planet5_right.png,5,Community 3,NA,TRUE,j,j,NA,NA,NA,NA,7,"1,15,10,13,6,3,4,2,14,12,5,11,8,7,9"
14087,commdev-image-keyboard-response,560,1229878,learnblock2,777,img/planet7_left.png,7,Community 3,NA,TRUE,f,f,NA,NA,NA,NA,7,"1,15,10,13,6,3,4,2,14,12,5,11,8,7,9"
14087,commdev-image-keyboard-response,561,1231139,learnblock2,693,img/planet11_right.png,11,Community 3,NA,TRUE,j,j,NA,NA,NA,NA,7,"1,15,10,13,6,3,4,2,14,12,5,11,8,7,9"
14087,commdev-image-keyboard-response,562,1232401,learnblock2,513,img/planet2_left.png,2,Community 2,NA,TRUE,f,f,NA,NA,NA,NA,7,"1,15,10,13,6,3,4,2,14,12,5,11,8,7,9"
14087,commdev-image-keyboard-response,563,1233662,learnblock2,554,img/planet12_right.png,12,Community 2,NA,TRUE,j,j,NA,NA,NA,NA,7,"1,15,10,13,6,3,4,2,14,12,5,11,8,7,9"
14087,commdev-image-keyboard-response,564,1234921,learnblock2,727,img/planet2_right.png,2,Community 2,NA,TRUE,j,j,NA,NA,NA,NA,7,"1,15,10,13,6,3,4,2,14,12,5,11,8,7,9"
14087,commdev-image-keyboard-response,565,1236182,learnblock2,668,img/planet11_left.png,11,Community 3,NA,TRUE,f,f,NA,NA,NA,NA,7,"1,15,10,13,6,3,4,2,14,12,5,11,8,7,9"
14087,commdev-image-keyboard-response,566,1237444,learnblock2,704,img/planet8_left.png,8,Community 3,NA,FALSE,j,f,NA,NA,NA,NA,7,"1,15,10,13,6,3,4,2,14,12,5,11,8,7,9"
14087,commdev-image-keyboard-response,567,1238703,learnblock2,916,img/planet9_left.png,9,Community 3,NA,TRUE,f,f,NA,NA,NA,NA,7,"1,15,10,13,6,3,4,2,14,12,5,11,8,7,9"
14087,commdev-image-keyboard-response,568,1239968,learnblock2,649,img/planet11_right.png,11,Community 3,NA,TRUE,j,j,NA,NA,NA,NA,7,"1,15,10,13,6,3,4,2,14,12,5,11,8,7,9"
14087,commdev-image-keyboard-response,569,1241227,learnblock2,739,img/planet8_right.png,8,Community 3,NA,TRUE,j,j,NA,NA,NA,NA,7,"1,15,10,13,6,3,4,2,14,12,5,11,8,7,9"
14087,commdev-image-keyboard-response,570,1242486,learnblock2,632,img/planet7_left.png,7,Community 3,NA,TRUE,f,f,NA,NA,NA,NA,7,"1,15,10,13,6,3,4,2,14,12,5,11,8,7,9"
14087,commdev-image-keyboard-response,571,1243747,learnblock2,721,img/planet9_right.png,9,Community 3,NA,TRUE,j,j,NA,NA,NA,NA,7,"1,15,10,13,6,3,4,2,14,12,5,11,8,7,9"
14087,commdev-image-keyboard-response,572,1245007,learnblock2,713,img/planet11_left.png,11,Community 3,NA,TRUE,f,f,NA,NA,NA,NA,7,"1,15,10,13,6,3,4,2,14,12,5,11,8,7,9"
14087,commdev-image-keyboard-response,573,1246268,learnblock2,574,img/planet2_left.png,2,Community 2,NA,TRUE,f,f,NA,NA,NA,NA,7,"1,15,10,13,6,3,4,2,14,12,5,11,8,7,9"
14087,commdev-image-keyboard-response,574,1247593,learnblock2,687,img/planet11_right.png,11,Community 3,NA,TRUE,j,j,NA,NA,NA,NA,7,"1,15,10,13,6,3,4,2,14,12,5,11,8,7,9"
14087,commdev-image-keyboard-response,575,1248854,learnblock2,653,img/planet7_right.png,7,Community 3,NA,FALSE,f,j,NA,NA,NA,NA,7,"1,15,10,13,6,3,4,2,14,12,5,11,8,7,9"
14087,commdev-image-keyboard-response,576,1250254,learnblock2,769,img/planet9_right.png,9,Community 3,NA,TRUE,j,j,NA,NA,NA,NA,7,"1,15,10,13,6,3,4,2,14,12,5,11,8,7,9"
14087,commdev-image-keyboard-response,577,1251515,learnblock2,771,img/planet8_right.png,8,Community 3,NA,TRUE,j,j,NA,NA,NA,NA,7,"1,15,10,13,6,3,4,2,14,12,5,11,8,7,9"
14087,commdev-image-keyboard-response,578,1252779,learnblock2,707,img/planet7_left.png,7,Community 3,NA,TRUE,f,f,NA,NA,NA,NA,7,"1,15,10,13,6,3,4,2,14,12,5,11,8,7,9"
14087,commdev-image-keyboard-response,579,1254044,learnblock2,777,img/planet5_right.png,5,Community 3,NA,TRUE,j,j,NA,NA,NA,NA,7,"1,15,10,13,6,3,4,2,14,12,5,11,8,7,9"
14087,commdev-image-keyboard-response,580,1255305,learnblock2,660,img/planet7_left.png,7,Community 3,NA,TRUE,f,f,NA,NA,NA,NA,7,"1,15,10,13,6,3,4,2,14,12,5,11,8,7,9"
14087,commdev-image-keyboard-response,581,1256568,learnblock2,815,img/planet9_left.png,9,Community 3,NA,TRUE,f,f,NA,NA,NA,NA,7,"1,15,10,13,6,3,4,2,14,12,5,11,8,7,9"
14087,commdev-image-keyboard-response,582,1257829,learnblock2,767,img/planet5_left.png,5,Community 3,NA,TRUE,f,f,NA,NA,NA,NA,7,"1,15,10,13,6,3,4,2,14,12,5,11,8,7,9"
14087,commdev-image-keyboard-response,583,1259091,learnblock2,830,img/planet6_right.png,6,Community 1,NA,TRUE,j,j,NA,NA,NA,NA,7,"1,15,10,13,6,3,4,2,14,12,5,11,8,7,9"
14087,commdev-image-keyboard-response,584,1260353,learnblock2,661,img/planet1_right.png,1,Community 1,NA,TRUE,j,j,NA,NA,NA,NA,7,"1,15,10,13,6,3,4,2,14,12,5,11,8,7,9"
14087,commdev-image-keyboard-response,585,1261615,learnblock2,699,img/planet15_right.png,15,Community 1,NA,TRUE,j,j,NA,NA,NA,NA,7,"1,15,10,13,6,3,4,2,14,12,5,11,8,7,9"
14087,commdev-image-keyboard-response,586,1262876,learnblock2,554,img/planet1_right.png,1,Community 1,NA,TRUE,j,j,NA,NA,NA,NA,7,"1,15,10,13,6,3,4,2,14,12,5,11,8,7,9"
14087,commdev-image-keyboard-response,587,1264134,learnblock2,511,img/planet15_left.png,15,Community 1,NA,FALSE,j,f,NA,NA,NA,NA,7,"1,15,10,13,6,3,4,2,14,12,5,11,8,7,9"
14087,commdev-image-keyboard-response,588,1265394,learnblock2,588,img/planet10_left.png,10,Community 1,NA,TRUE,f,f,NA,NA,NA,NA,7,"1,15,10,13,6,3,4,2,14,12,5,11,8,7,9"
14087,commdev-image-keyboard-response,589,1266655,learnblock2,741,img/planet6_left.png,6,Community 1,NA,FALSE,j,f,NA,NA,NA,NA,7,"1,15,10,13,6,3,4,2,14,12,5,11,8,7,9"
14087,commdev-image-keyboard-response,590,1267919,learnblock2,589,img/planet10_right.png,10,Community 1,NA,TRUE,j,j,NA,NA,NA,NA,7,"1,15,10,13,6,3,4,2,14,12,5,11,8,7,9"
14087,commdev-image-keyboard-response,591,1269181,learnblock2,709,img/planet6_right.png,6,Community 1,NA,TRUE,j,j,NA,NA,NA,NA,7,"1,15,10,13,6,3,4,2,14,12,5,11,8,7,9"
14087,commdev-image-keyboard-response,592,1270441,learnblock2,550,img/planet1_left.png,1,Community 1,NA,TRUE,f,f,NA,NA,NA,NA,7,"1,15,10,13,6,3,4,2,14,12,5,11,8,7,9"
14087,commdev-image-keyboard-response,593,1271700,learnblock2,596,img/planet10_left.png,10,Community 1,NA,TRUE,f,f,NA,NA,NA,NA,7,"1,15,10,13,6,3,4,2,14,12,5,11,8,7,9"
14087,commdev-image-keyboard-response,594,1272959,learnblock2,688,img/planet15_left.png,15,Community 1,NA,TRUE,f,f,NA,NA,NA,NA,7,"1,15,10,13,6,3,4,2,14,12,5,11,8,7,9"
14087,commdev-image-keyboard-response,595,1274222,learnblock2,741,img/planet6_right.png,6,Community 1,NA,TRUE,j,j,NA,NA,NA,NA,7,"1,15,10,13,6,3,4,2,14,12,5,11,8,7,9"
14087,commdev-image-keyboard-response,596,1275484,learnblock2,543,img/planet10_left.png,10,Community 1,NA,TRUE,f,f,NA,NA,NA,NA,7,"1,15,10,13,6,3,4,2,14,12,5,11,8,7,9"
14087,commdev-image-keyboard-response,597,1276777,learnblock2,585,img/planet1_left.png,1,Community 1,NA,FALSE,j,f,NA,NA,NA,NA,7,"1,15,10,13,6,3,4,2,14,12,5,11,8,7,9"
14087,commdev-image-keyboard-response,598,1278035,learnblock2,666,img/planet10_left.png,10,Community 1,NA,TRUE,f,f,NA,NA,NA,NA,7,"1,15,10,13,6,3,4,2,14,12,5,11,8,7,9"
14087,commdev-image-keyboard-response,599,1279297,learnblock2,591,img/planet1_right.png,1,Community 1,NA,TRUE,j,j,NA,NA,NA,NA,7,"1,15,10,13,6,3,4,2,14,12,5,11,8,7,9"
14087,commdev-image-keyboard-response,600,1280561,learnblock2,567,img/planet13_left.png,13,Community 1,NA,TRUE,f,f,NA,NA,NA,NA,7,"1,15,10,13,6,3,4,2,14,12,5,11,8,7,9"
14087,commdev-image-keyboard-response,601,1281819,learnblock2,546,img/planet10_left.png,10,Community 1,NA,TRUE,f,f,NA,NA,NA,NA,7,"1,15,10,13,6,3,4,2,14,12,5,11,8,7,9"
14087,commdev-image-keyboard-response,602,1283079,learnblock2,577,img/planet15_right.png,15,Community 1,NA,TRUE,j,j,NA,NA,NA,NA,7,"1,15,10,13,6,3,4,2,14,12,5,11,8,7,9"
14087,commdev-image-keyboard-response,603,1284337,learnblock2,806,img/planet10_left.png,10,Community 1,NA,TRUE,f,f,NA,NA,NA,NA,7,"1,15,10,13,6,3,4,2,14,12,5,11,8,7,9"
14087,commdev-image-keyboard-response,604,1285597,learnblock2,811,img/planet1_left.png,1,Community 1,NA,TRUE,f,f,NA,NA,NA,NA,7,"1,15,10,13,6,3,4,2,14,12,5,11,8,7,9"
14087,commdev-image-keyboard-response,605,1286857,learnblock2,874,img/planet15_left.png,15,Community 1,NA,TRUE,f,f,NA,NA,NA,NA,7,"1,15,10,13,6,3,4,2,14,12,5,11,8,7,9"
14087,commdev-image-keyboard-response,606,1288116,learnblock2,875,img/planet10_left.png,10,Community 1,NA,TRUE,f,f,NA,NA,NA,NA,7,"1,15,10,13,6,3,4,2,14,12,5,11,8,7,9"
14087,commdev-image-keyboard-response,607,1289373,learnblock2,1073,img/planet13_left.png,13,Community 1,NA,TRUE,f,f,NA,NA,NA,NA,7,"1,15,10,13,6,3,4,2,14,12,5,11,8,7,9"
14087,commdev-image-keyboard-response,608,1290629,learnblock2,1085,img/planet10_left.png,10,Community 1,NA,TRUE,f,f,NA,NA,NA,NA,7,"1,15,10,13,6,3,4,2,14,12,5,11,8,7,9"
14087,commdev-image-keyboard-response,609,1291889,learnblock2,598,img/planet13_right.png,13,Community 1,NA,TRUE,j,j,NA,NA,NA,NA,7,"1,15,10,13,6,3,4,2,14,12,5,11,8,7,9"
14087,commdev-image-keyboard-response,610,1293149,learnblock2,731,img/planet3_right.png,3,Community 2,NA,TRUE,j,j,NA,NA,NA,NA,7,"1,15,10,13,6,3,4,2,14,12,5,11,8,7,9"
14087,commdev-image-keyboard-response,611,1294411,learnblock2,771,img/planet14_right.png,14,Community 2,NA,TRUE,j,j,NA,NA,NA,NA,7,"1,15,10,13,6,3,4,2,14,12,5,11,8,7,9"
14087,commdev-image-keyboard-response,612,1295670,learnblock2,658,img/planet2_left.png,2,Community 2,NA,TRUE,f,f,NA,NA,NA,NA,7,"1,15,10,13,6,3,4,2,14,12,5,11,8,7,9"
14087,commdev-image-keyboard-response,613,1297071,learnblock2,788,img/planet12_left.png,12,Community 2,NA,TRUE,f,f,NA,NA,NA,NA,7,"1,15,10,13,6,3,4,2,14,12,5,11,8,7,9"
14087,commdev-image-keyboard-response,614,1298334,learnblock2,696,img/planet14_left.png,14,Community 2,NA,TRUE,f,f,NA,NA,NA,NA,7,"1,15,10,13,6,3,4,2,14,12,5,11,8,7,9"
14087,commdev-image-keyboard-response,615,1299597,learnblock2,602,img/planet3_right.png,3,Community 2,NA,TRUE,j,j,NA,NA,NA,NA,7,"1,15,10,13,6,3,4,2,14,12,5,11,8,7,9"
14087,commdev-image-keyboard-response,616,1300858,learnblock2,619,img/planet13_left.png,13,Community 1,NA,TRUE,f,f,NA,NA,NA,NA,7,"1,15,10,13,6,3,4,2,14,12,5,11,8,7,9"
14087,commdev-image-keyboard-response,617,1302122,learnblock2,579,img/planet1_right.png,1,Community 1,NA,TRUE,j,j,NA,NA,NA,NA,7,"1,15,10,13,6,3,4,2,14,12,5,11,8,7,9"
14087,commdev-image-keyboard-response,618,1303387,learnblock2,470,img/planet10_left.png,10,Community 1,NA,TRUE,f,f,NA,NA,NA,NA,7,"1,15,10,13,6,3,4,2,14,12,5,11,8,7,9"
14087,commdev-image-keyboard-response,619,1304650,learnblock2,631,img/planet1_left.png,1,Community 1,NA,TRUE,f,f,NA,NA,NA,NA,7,"1,15,10,13,6,3,4,2,14,12,5,11,8,7,9"
