subject_id,trial_type,trial_index,time_elapsed,block,rt,stimulus,planet,community,response,correct,key_press,learning_correct_response,parse,init_locations,final_locations,browser_interactions,num_comp,planet_map
14674,commdev-instructions,7,73162,NA,2579.800000190735,"<p>In this game, you are a scientist on board a space shuttle. </p><p> On each mission, you will visit planets all across the universe.</p><img src=""img/controlroom.jpg"" width=300vw>",NA,NA,NA,NA,NA,NA,NA,NA,NA,2,6,"12,13,11,3,6,8,15,14,7,9,2,4,5,1,10"
14674,commdev-instructions,8,78512,NA,3271.0999999046326,"<p>Here are a few planets you might see:</p><img src=""img/practice1.png"" width=200vw><img src=""img/practice2.png"" width=200vw><img src=""img/practice3.png"" width=200vw>",NA,NA,NA,NA,NA,NA,NA,NA,NA,2,6,"12,13,11,3,6,8,15,14,7,9,2,4,5,1,10"
14674,commdev-instructions,9,87603,NA,1681.9000000953674,"<p>Your job as a scientist is to record which direction the winds are moving on each planet.</p><p>There are two types of wind directions:</p><img src=""img/practice1_left.png"" width=200vw><img src=""img/practice1_right.png"" width=200vw>",NA,NA,NA,NA,NA,NA,NA,NA,NA,2,6,"12,13,11,3,6,8,15,14,7,9,2,4,5,1,10"
14674,commdev-instructions,10,95005,NA,2523,"<p>If the winds are moving this way, press the letter <strong>F</strong> on the keyboard as fast as you can.</p><img src=""img/leftwind.png"" width=250vw>",NA,NA,NA,NA,NA,NA,NA,NA,NA,2,6,"12,13,11,3,6,8,15,14,7,9,2,4,5,1,10"
14674,commdev-instructions,11,111368,NA,11866.300000190735,"<p>If the winds are moving this way, press the letter <strong>J</strong> on the keyboard as fast as you can.</p><img src=""img/rightwind.png"" width=350vw>",NA,NA,NA,NA,NA,NA,NA,NA,NA,2,6,"12,13,11,3,6,8,15,14,7,9,2,4,5,1,10"
14674,commdev-instructions,12,118797,NA,3015.4000000953674,<p>You will have 1 second to respond. Try to respond before the time runs out!,NA,NA,NA,NA,NA,NA,NA,NA,NA,2,6,"12,13,11,3,6,8,15,14,7,9,2,4,5,1,10"
14674,commdev-instructions,13,126906,NA,2684.1000003814697,<p>The planets you will visit will look different from each other.</p><p>You should respond <strong>only</strong> based on wind direction.,NA,NA,NA,NA,NA,NA,NA,NA,NA,2,6,"12,13,11,3,6,8,15,14,7,9,2,4,5,1,10"
14674,commdev-instructions,14,134685,NA,2603.300000190735,"<p> Ready to start the practice round? </p><p> Remember, press <strong>F</strong> or <strong>J</strong> depending on the wind direction.<br><img src=""img/categorize_planet_example.png""",NA,NA,NA,NA,NA,NA,NA,NA,NA,2,6,"12,13,11,3,6,8,15,14,7,9,2,4,5,1,10"
14674,commdev-instructions,26,198502,NA,3192.199999809265,"<p>Great, now try a short practice mission. </p><p> This time, you will have 1 second to respond and you won't know whether you pressed the right or wrong key for each planet.</p>",NA,NA,NA,NA,NA,NA,NA,NA,NA,2,6,"12,13,11,3,6,8,15,14,7,9,2,4,5,1,10"
14674,commdev-image-keyboard-response,27,199868,practice,null,img/practice1_right.png,NA,Number not found in mappings,NA,FALSE,null,j,NA,NA,NA,2,6,"12,13,11,3,6,8,15,14,7,9,2,4,5,1,10"
14674,commdev-image-keyboard-response,28,201119,practice,1092.7999997138977,img/practice4_left.png,NA,Number not found in mappings,NA,TRUE,f,f,NA,NA,NA,2,6,"12,13,11,3,6,8,15,14,7,9,2,4,5,1,10"
14674,commdev-image-keyboard-response,29,202378,practice,513.5999999046326,img/practice2_right.png,NA,Number not found in mappings,NA,TRUE,j,j,NA,NA,NA,2,6,"12,13,11,3,6,8,15,14,7,9,2,4,5,1,10"
14674,commdev-image-keyboard-response,30,203640,practice,310.7999997138977,img/practice3_right.png,NA,Number not found in mappings,NA,FALSE,f,j,NA,NA,NA,2,6,"12,13,11,3,6,8,15,14,7,9,2,4,5,1,10"
14674,commdev-image-keyboard-response,31,204895,practice,680.4000000953674,img/practice4_right.png,NA,Number not found in mappings,NA,TRUE,j,j,NA,NA,NA,2,6,"12,13,11,3,6,8,15,14,7,9,2,4,5,1,10"
14674,commdev-image-keyboard-response,32,206159,practice,658,img/practice1_right.png,NA,Number not found in mappings,NA,TRUE,j,j,NA,NA,NA,2,6,"12,13,11,3,6,8,15,14,7,9,2,4,5,1,10"
14674,commdev-image-keyboard-response,33,207420,practice,433.69999980926514,img/practice4_left.png,NA,Number not found in mappings,NA,FALSE,j,f,NA,NA,NA,2,6,"12,13,11,3,6,8,15,14,7,9,2,4,5,1,10"
14674,commdev-image-keyboard-response,34,208681,practice,500.2999997138977,img/practice2_left.png,NA,Number not found in mappings,NA,FALSE,j,f,NA,NA,NA,2,6,"12,13,11,3,6,8,15,14,7,9,2,4,5,1,10"
14674,commdev-instructions,35,221222,NA,2991.5,"<p>Great job with the practice round.</p><p>During real missions, you won't know whether you pressed the right or wrong key for each planet.</p><p>But between missions, we will tell you how you did overall.</p>",NA,NA,NA,NA,NA,NA,NA,NA,NA,2,6,"12,13,11,3,6,8,15,14,7,9,2,4,5,1,10"
14674,commdev-instructions,36,230699,NA,1228.4000000953674,<p>Try your best! You will be paid a bonus based on how many correct responses you make!</p><p>Responses that are too slow will not count toward your bonus.</p>,NA,NA,NA,NA,NA,NA,NA,NA,NA,2,6,"12,13,11,3,6,8,15,14,7,9,2,4,5,1,10"
14674,commdev-instructions,37,243405,NA,6504.89999961853,"<p>You are almost ready to start the real game.</p><p> First, we are going to ask you some questions about how the game works.</p>",NA,NA,NA,NA,NA,NA,NA,NA,NA,2,6,"12,13,11,3,6,8,15,14,7,9,2,4,5,1,10"
14674,commdev-instructions,46,340326,NA,2025.4000000953674,"<p> Nice work! It is now time to start the real game.<p></p>You will go on two missions to record wind directions of different planets.<p></p>Each one will take about 5 minutes. You will get to take a break between missions.<p><p> Remember, press <strong>F</strong> or <strong>J</strong> depending on the wind direction. Good luck!<br><img src=""img/categorize_planet_example.png""",NA,NA,NA,NA,NA,NA,NA,NA,NA,2,6,"12,13,11,3,6,8,15,14,7,9,2,4,5,1,10"
14674,commdev-image-keyboard-response,48,344730,learnblock1,null,img/planet3_left.png,3,Community 1,NA,FALSE,null,f,NA,NA,NA,2,6,"12,13,11,3,6,8,15,14,7,9,2,4,5,1,10"
14674,commdev-image-keyboard-response,49,345996,learnblock1,886.5,img/planet11_left.png,11,Community 1,NA,TRUE,f,f,NA,NA,NA,2,6,"12,13,11,3,6,8,15,14,7,9,2,4,5,1,10"
14674,commdev-image-keyboard-response,50,347255,learnblock1,644.3999996185303,img/planet13_right.png,13,Community 1,NA,FALSE,f,j,NA,NA,NA,2,6,"12,13,11,3,6,8,15,14,7,9,2,4,5,1,10"
14674,commdev-image-keyboard-response,51,348514,learnblock1,569.7999997138977,img/planet11_right.png,11,Community 1,NA,FALSE,f,j,NA,NA,NA,2,6,"12,13,11,3,6,8,15,14,7,9,2,4,5,1,10"
14674,commdev-image-keyboard-response,52,349774,learnblock1,751.5999999046326,img/planet3_left.png,3,Community 1,NA,FALSE,j,f,NA,NA,NA,2,6,"12,13,11,3,6,8,15,14,7,9,2,4,5,1,10"
14674,commdev-image-keyboard-response,53,351039,learnblock1,931.1999998092651,img/planet8_right.png,8,Community 2,NA,TRUE,j,j,NA,NA,NA,2,6,"12,13,11,3,6,8,15,14,7,9,2,4,5,1,10"
14674,commdev-image-keyboard-response,54,352302,learnblock1,626,img/planet9_right.png,9,Community 2,NA,TRUE,j,j,NA,NA,NA,2,6,"12,13,11,3,6,8,15,14,7,9,2,4,5,1,10"
14674,commdev-image-keyboard-response,55,353566,learnblock1,306.90000009536743,img/planet7_right.png,7,Community 2,NA,TRUE,j,j,NA,NA,NA,2,6,"12,13,11,3,6,8,15,14,7,9,2,4,5,1,10"
14674,commdev-image-keyboard-response,56,354820,learnblock1,115.10000038146973,img/planet9_right.png,9,Community 2,NA,TRUE,j,j,NA,NA,NA,2,6,"12,13,11,3,6,8,15,14,7,9,2,4,5,1,10"
14674,commdev-image-keyboard-response,57,356083,learnblock1,173.2000002861023,img/planet7_right.png,7,Community 2,NA,TRUE,j,j,NA,NA,NA,2,6,"12,13,11,3,6,8,15,14,7,9,2,4,5,1,10"
14674,commdev-image-keyboard-response,58,357346,learnblock1,221.7000002861023,img/planet14_left.png,14,Community 2,NA,FALSE,j,f,NA,NA,NA,2,6,"12,13,11,3,6,8,15,14,7,9,2,4,5,1,10"
14674,commdev-image-keyboard-response,59,358597,learnblock1,111.2999997138977,img/planet4_right.png,4,Community 3,NA,TRUE,j,j,NA,NA,NA,2,6,"12,13,11,3,6,8,15,14,7,9,2,4,5,1,10"
14674,commdev-image-keyboard-response,60,359860,learnblock1,172.69999980926514,img/planet5_left.png,5,Community 3,NA,FALSE,j,f,NA,NA,NA,2,6,"12,13,11,3,6,8,15,14,7,9,2,4,5,1,10"
14674,commdev-image-keyboard-response,61,361119,learnblock1,61.19999980926514,img/planet4_left.png,4,Community 3,NA,FALSE,j,f,NA,NA,NA,2,6,"12,13,11,3,6,8,15,14,7,9,2,4,5,1,10"
14674,commdev-image-keyboard-response,62,362384,learnblock1,33.5,img/planet1_right.png,1,Community 3,NA,TRUE,j,j,NA,NA,NA,2,6,"12,13,11,3,6,8,15,14,7,9,2,4,5,1,10"
14674,commdev-image-keyboard-response,63,363635,learnblock1,129.5,img/planet5_right.png,5,Community 3,NA,TRUE,j,j,NA,NA,NA,2,6,"12,13,11,3,6,8,15,14,7,9,2,4,5,1,10"
14674,commdev-image-keyboard-response,64,364888,learnblock1,285.80000019073486,img/planet10_left.png,10,Community 3,NA,FALSE,j,f,NA,NA,NA,2,6,"12,13,11,3,6,8,15,14,7,9,2,4,5,1,10"
14674,commdev-image-keyboard-response,65,366145,learnblock1,56.5,img/planet2_left.png,2,Community 3,NA,FALSE,j,f,NA,NA,NA,2,6,"12,13,11,3,6,8,15,14,7,9,2,4,5,1,10"
14674,commdev-image-keyboard-response,66,367407,learnblock1,240.2000002861023,img/planet5_right.png,5,Community 3,NA,FALSE,f,j,NA,NA,NA,2,6,"12,13,11,3,6,8,15,14,7,9,2,4,5,1,10"
14674,commdev-image-keyboard-response,67,368658,learnblock1,337.7000002861023,img/planet4_right.png,4,Community 3,NA,FALSE,f,j,NA,NA,NA,2,6,"12,13,11,3,6,8,15,14,7,9,2,4,5,1,10"
14674,commdev-image-keyboard-response,68,369909,learnblock1,127.2000002861023,img/planet1_left.png,1,Community 3,NA,FALSE,j,f,NA,NA,NA,2,6,"12,13,11,3,6,8,15,14,7,9,2,4,5,1,10"
14674,commdev-image-keyboard-response,69,371161,learnblock1,76.09999990463257,img/planet10_left.png,10,Community 3,NA,TRUE,f,f,NA,NA,NA,2,6,"12,13,11,3,6,8,15,14,7,9,2,4,5,1,10"
14674,commdev-image-keyboard-response,70,372412,learnblock1,23.600000381469727,img/planet2_right.png,2,Community 3,NA,FALSE,f,j,NA,NA,NA,2,6,"12,13,11,3,6,8,15,14,7,9,2,4,5,1,10"
14674,commdev-image-keyboard-response,71,373664,learnblock1,68.80000019073486,img/planet10_right.png,10,Community 3,NA,TRUE,j,j,NA,NA,NA,2,6,"12,13,11,3,6,8,15,14,7,9,2,4,5,1,10"
14674,commdev-image-keyboard-response,72,374915,learnblock1,256.5,img/planet2_left.png,2,Community 3,NA,FALSE,j,f,NA,NA,NA,2,6,"12,13,11,3,6,8,15,14,7,9,2,4,5,1,10"
14674,commdev-image-keyboard-response,73,376167,learnblock1,61.799999713897705,img/planet5_left.png,5,Community 3,NA,FALSE,j,f,NA,NA,NA,2,6,"12,13,11,3,6,8,15,14,7,9,2,4,5,1,10"
14674,commdev-image-keyboard-response,74,377420,learnblock1,153.5,img/planet2_right.png,2,Community 3,NA,TRUE,j,j,NA,NA,NA,2,6,"12,13,11,3,6,8,15,14,7,9,2,4,5,1,10"
14674,commdev-image-keyboard-response,75,378672,learnblock1,37.200000286102295,img/planet1_left.png,1,Community 3,NA,FALSE,j,f,NA,NA,NA,2,6,"12,13,11,3,6,8,15,14,7,9,2,4,5,1,10"
14674,commdev-image-keyboard-response,76,379924,learnblock1,529.4000000953674,img/planet5_right.png,5,Community 3,NA,TRUE,j,j,NA,NA,NA,2,6,"12,13,11,3,6,8,15,14,7,9,2,4,5,1,10"
14674,commdev-image-keyboard-response,77,381179,learnblock1,188.69999980926514,img/planet2_right.png,2,Community 3,NA,TRUE,j,j,NA,NA,NA,2,6,"12,13,11,3,6,8,15,14,7,9,2,4,5,1,10"
14674,commdev-image-keyboard-response,78,382430,learnblock1,22,img/planet1_left.png,1,Community 3,NA,FALSE,j,f,NA,NA,NA,2,6,"12,13,11,3,6,8,15,14,7,9,2,4,5,1,10"
14674,commdev-image-keyboard-response,79,383682,learnblock1,50.60000038146973,img/planet2_right.png,2,Community 3,NA,TRUE,j,j,NA,NA,NA,2,6,"12,13,11,3,6,8,15,14,7,9,2,4,5,1,10"
14674,commdev-image-keyboard-response,80,384935,learnblock1,null,img/planet1_left.png,1,Community 3,NA,FALSE,null,f,NA,NA,NA,2,6,"12,13,11,3,6,8,15,14,7,9,2,4,5,1,10"
14674,commdev-image-keyboard-response,81,386190,learnblock1,null,img/planet5_right.png,5,Community 3,NA,FALSE,null,j,NA,NA,NA,2,6,"12,13,11,3,6,8,15,14,7,9,2,4,5,1,10"
14674,commdev-image-keyboard-response,82,387441,learnblock1,null,img/planet4_left.png,4,Community 3,NA,FALSE,null,f,NA,NA,NA,2,6,"12,13,11,3,6,8,15,14,7,9,2,4,5,1,10"
14674,commdev-image-keyboard-response,83,388693,learnblock1,null,img/planet10_left.png,10,Community 3,NA,FALSE,null,f,NA,NA,NA,2,6,"12,13,11,3,6,8,15,14,7,9,2,4,5,1,10"
14674,commdev-image-keyboard-response,84,389955,learnblock1,null,img/planet1_right.png,1,Community 3,NA,FALSE,null,j,NA,NA,NA,2,6,"12,13,11,3,6,8,15,14,7,9,2,4,5,1,10"
14674,commdev-image-keyboard-response,85,391206,learnblock1,1246.5,img/planet5_right.png,5,Community 3,NA,FALSE,f,j,NA,NA,NA,2,6,"12,13,11,3,6,8,15,14,7,9,2,4,5,1,10"
14674,commdev-image-keyboard-response,86,392457,learnblock1,971.7000002861023,img/planet4_left.png,4,Community 3,NA,TRUE,f,f,NA,NA,NA,2,6,"12,13,11,3,6,8,15,14,7,9,2,4,5,1,10"
14674,commdev-image-keyboard-response,87,393709,learnblock1,744,img/planet5_right.png,5,Community 3,NA,TRUE,j,j,NA,NA,NA,2,6,"12,13,11,3,6,8,15,14,7,9,2,4,5,1,10"
14674,commdev-image-keyboard-response,88,394960,learnblock1,516,img/planet10_left.png,10,Community 3,NA,TRUE,f,f,NA,NA,NA,2,6,"12,13,11,3,6,8,15,14,7,9,2,4,5,1,10"
14674,commdev-image-keyboard-response,89,396212,learnblock1,497.2000002861023,img/planet4_left.png,4,Community 3,NA,FALSE,j,f,NA,NA,NA,2,6,"12,13,11,3,6,8,15,14,7,9,2,4,5,1,10"
14674,commdev-image-keyboard-response,90,397464,learnblock1,684.9000000953674,img/planet10_right.png,10,Community 3,NA,FALSE,f,j,NA,NA,NA,2,6,"12,13,11,3,6,8,15,14,7,9,2,4,5,1,10"
14674,commdev-image-keyboard-response,91,398715,learnblock1,null,img/planet1_left.png,1,Community 3,NA,FALSE,null,f,NA,NA,NA,2,6,"12,13,11,3,6,8,15,14,7,9,2,4,5,1,10"
14674,commdev-image-keyboard-response,92,399966,learnblock1,38,img/planet4_left.png,4,Community 3,NA,TRUE,f,f,NA,NA,NA,2,6,"12,13,11,3,6,8,15,14,7,9,2,4,5,1,10"
14674,commdev-image-keyboard-response,93,401218,learnblock1,755.2999997138977,img/planet5_left.png,5,Community 3,NA,TRUE,f,f,NA,NA,NA,2,6,"12,13,11,3,6,8,15,14,7,9,2,4,5,1,10"
14674,commdev-image-keyboard-response,94,402469,learnblock1,815.8999996185303,img/planet1_right.png,1,Community 3,NA,TRUE,j,j,NA,NA,NA,2,6,"12,13,11,3,6,8,15,14,7,9,2,4,5,1,10"
14674,commdev-image-keyboard-response,95,403720,learnblock1,636.6000003814697,img/planet10_left.png,10,Community 3,NA,TRUE,f,f,NA,NA,NA,2,6,"12,13,11,3,6,8,15,14,7,9,2,4,5,1,10"
14674,commdev-image-keyboard-response,96,404971,learnblock1,584.9000000953674,img/planet4_left.png,4,Community 3,NA,FALSE,j,f,NA,NA,NA,2,6,"12,13,11,3,6,8,15,14,7,9,2,4,5,1,10"
14674,commdev-image-keyboard-response,97,406223,learnblock1,101.7000002861023,img/planet5_right.png,5,Community 3,NA,FALSE,f,j,NA,NA,NA,2,6,"12,13,11,3,6,8,15,14,7,9,2,4,5,1,10"
14674,commdev-image-keyboard-response,98,407475,learnblock1,null,img/planet10_right.png,10,Community 3,NA,FALSE,null,j,NA,NA,NA,2,6,"12,13,11,3,6,8,15,14,7,9,2,4,5,1,10"
14674,commdev-image-keyboard-response,99,408726,learnblock1,null,img/planet2_right.png,2,Community 3,NA,FALSE,null,j,NA,NA,NA,2,6,"12,13,11,3,6,8,15,14,7,9,2,4,5,1,10"
14674,commdev-image-keyboard-response,100,409978,learnblock1,null,img/planet5_right.png,5,Community 3,NA,FALSE,null,j,NA,NA,NA,2,6,"12,13,11,3,6,8,15,14,7,9,2,4,5,1,10"
14674,commdev-image-keyboard-response,101,411229,learnblock1,null,img/planet10_right.png,10,Community 3,NA,FALSE,null,j,NA,NA,NA,2,6,"12,13,11,3,6,8,15,14,7,9,2,4,5,1,10"
14674,commdev-image-keyboard-response,102,412486,learnblock1,null,img/planet4_left.png,4,Community 3,NA,FALSE,null,f,NA,NA,NA,2,6,"12,13,11,3,6,8,15,14,7,9,2,4,5,1,10"
14674,commdev-image-keyboard-response,103,413737,learnblock1,null,img/planet10_left.png,10,Community 3,NA,FALSE,null,f,NA,NA,NA,2,6,"12,13,11,3,6,8,15,14,7,9,2,4,5,1,10"
14674,commdev-image-keyboard-response,104,414989,learnblock1,null,img/planet4_left.png,4,Community 3,NA,FALSE,null,f,NA,NA,NA,2,6,"12,13,11,3,6,8,15,14,7,9,2,4,5,1,10"
14674,commdev-image-keyboard-response,105,416240,learnblock1,null,img/planet14_right.png,14,Community 2,NA,FALSE,null,j,NA,NA,NA,2,6,"12,13,11,3,6,8,15,14,7,9,2,4,5,1,10"
14674,commdev-image-keyboard-response,106,417491,learnblock1,null,img/planet9_left.png,9,Community 2,NA,FALSE,null,f,NA,NA,NA,2,6,"12,13,11,3,6,8,15,14,7,9,2,4,5,1,10"
14674,commdev-image-keyboard-response,107,418743,learnblock1,null,img/planet15_right.png,15,Community 2,NA,FALSE,null,j,NA,NA,NA,2,6,"12,13,11,3,6,8,15,14,7,9,2,4,5,1,10"
14674,commdev-image-keyboard-response,108,419994,learnblock1,314.40000009536743,img/planet8_left.png,8,Community 2,NA,FALSE,j,f,NA,NA,NA,2,6,"12,13,11,3,6,8,15,14,7,9,2,4,5,1,10"
14674,commdev-image-keyboard-response,109,421245,learnblock1,150.90000009536743,img/planet3_right.png,3,Community 1,NA,FALSE,f,j,NA,NA,NA,2,6,"12,13,11,3,6,8,15,14,7,9,2,4,5,1,10"
14674,commdev-image-keyboard-response,110,422497,learnblock1,84,img/planet12_right.png,12,Community 1,NA,FALSE,f,j,NA,NA,NA,2,6,"12,13,11,3,6,8,15,14,7,9,2,4,5,1,10"
14674,commdev-image-keyboard-response,111,423749,learnblock1,47.700000286102295,img/planet3_left.png,3,Community 1,NA,FALSE,j,f,NA,NA,NA,2,6,"12,13,11,3,6,8,15,14,7,9,2,4,5,1,10"
14674,commdev-image-keyboard-response,112,425001,learnblock1,28.300000190734863,img/planet11_right.png,11,Community 1,NA,TRUE,j,j,NA,NA,NA,2,6,"12,13,11,3,6,8,15,14,7,9,2,4,5,1,10"
14674,commdev-image-keyboard-response,113,426251,learnblock1,null,img/planet13_left.png,13,Community 1,NA,FALSE,null,f,NA,NA,NA,2,6,"12,13,11,3,6,8,15,14,7,9,2,4,5,1,10"
14674,commdev-image-keyboard-response,114,427502,learnblock1,null,img/planet3_right.png,3,Community 1,NA,FALSE,null,j,NA,NA,NA,2,6,"12,13,11,3,6,8,15,14,7,9,2,4,5,1,10"
14674,commdev-image-keyboard-response,115,428753,learnblock1,null,img/planet11_right.png,11,Community 1,NA,FALSE,null,j,NA,NA,NA,2,6,"12,13,11,3,6,8,15,14,7,9,2,4,5,1,10"
14674,commdev-image-keyboard-response,116,430005,learnblock1,null,img/planet12_right.png,12,Community 1,NA,FALSE,null,j,NA,NA,NA,2,6,"12,13,11,3,6,8,15,14,7,9,2,4,5,1,10"
14674,commdev-image-keyboard-response,117,431256,learnblock1,null,img/planet13_right.png,13,Community 1,NA,FALSE,null,j,NA,NA,NA,2,6,"12,13,11,3,6,8,15,14,7,9,2,4,5,1,10"
14674,commdev-image-keyboard-response,118,432508,learnblock1,809.2999997138977,img/planet3_left.png,3,Community 1,NA,TRUE,f,f,NA,NA,NA,2,6,"12,13,11,3,6,8,15,14,7,9,2,4,5,1,10"
14674,commdev-image-keyboard-response,119,433760,learnblock1,277.09999990463257,img/planet11_right.png,11,Community 1,NA,FALSE,f,j,NA,NA,NA,2,6,"12,13,11,3,6,8,15,14,7,9,2,4,5,1,10"
14674,commdev-image-keyboard-response,120,435011,learnblock1,null,img/planet6_right.png,6,Community 1,NA,FALSE,null,j,NA,NA,NA,2,6,"12,13,11,3,6,8,15,14,7,9,2,4,5,1,10"
14674,commdev-image-keyboard-response,121,436267,learnblock1,null,img/planet12_right.png,12,Community 1,NA,FALSE,null,j,NA,NA,NA,2,6,"12,13,11,3,6,8,15,14,7,9,2,4,5,1,10"
14674,commdev-image-keyboard-response,122,437518,learnblock1,null,img/planet6_right.png,6,Community 1,NA,FALSE,null,j,NA,NA,NA,2,6,"12,13,11,3,6,8,15,14,7,9,2,4,5,1,10"
14674,commdev-image-keyboard-response,123,438769,learnblock1,null,img/planet12_left.png,12,Community 1,NA,FALSE,null,f,NA,NA,NA,2,6,"12,13,11,3,6,8,15,14,7,9,2,4,5,1,10"
14674,commdev-image-keyboard-response,124,440034,learnblock1,null,img/planet3_right.png,3,Community 1,NA,FALSE,null,j,NA,NA,NA,2,6,"12,13,11,3,6,8,15,14,7,9,2,4,5,1,10"
14674,commdev-image-keyboard-response,125,441286,learnblock1,null,img/planet13_right.png,13,Community 1,NA,FALSE,null,j,NA,NA,NA,2,6,"12,13,11,3,6,8,15,14,7,9,2,4,5,1,10"
14674,commdev-image-keyboard-response,126,442537,learnblock1,null,img/planet3_left.png,3,Community 1,NA,FALSE,null,f,NA,NA,NA,2,6,"12,13,11,3,6,8,15,14,7,9,2,4,5,1,10"
14674,commdev-image-keyboard-response,127,443788,learnblock1,null,img/planet8_left.png,8,Community 2,NA,FALSE,null,f,NA,NA,NA,2,6,"12,13,11,3,6,8,15,14,7,9,2,4,5,1,10"
14674,commdev-image-keyboard-response,128,445039,learnblock1,389.69999980926514,img/planet9_right.png,9,Community 2,NA,TRUE,j,j,NA,NA,NA,2,6,"12,13,11,3,6,8,15,14,7,9,2,4,5,1,10"
14674,commdev-image-keyboard-response,129,446291,learnblock1,null,img/planet7_left.png,7,Community 2,NA,FALSE,null,f,NA,NA,NA,2,6,"12,13,11,3,6,8,15,14,7,9,2,4,5,1,10"
14674,commdev-image-keyboard-response,130,447542,learnblock1,206.5,img/planet14_right.png,14,Community 2,NA,TRUE,j,j,NA,NA,NA,2,6,"12,13,11,3,6,8,15,14,7,9,2,4,5,1,10"
14674,commdev-image-keyboard-response,131,448793,learnblock1,null,img/planet7_right.png,7,Community 2,NA,FALSE,null,j,NA,NA,NA,2,6,"12,13,11,3,6,8,15,14,7,9,2,4,5,1,10"
14674,commdev-image-keyboard-response,132,450045,learnblock1,200.40000009536743,img/planet15_right.png,15,Community 2,NA,TRUE,j,j,NA,NA,NA,2,6,"12,13,11,3,6,8,15,14,7,9,2,4,5,1,10"
14674,commdev-image-keyboard-response,133,451296,learnblock1,1060.5999999046326,img/planet8_right.png,8,Community 2,NA,TRUE,j,j,NA,NA,NA,2,6,"12,13,11,3,6,8,15,14,7,9,2,4,5,1,10"
14674,commdev-image-keyboard-response,134,452547,learnblock1,null,img/planet3_right.png,3,Community 1,NA,FALSE,null,j,NA,NA,NA,2,6,"12,13,11,3,6,8,15,14,7,9,2,4,5,1,10"
14674,commdev-image-keyboard-response,135,453798,learnblock1,301.90000009536743,img/planet12_right.png,12,Community 1,NA,TRUE,j,j,NA,NA,NA,2,6,"12,13,11,3,6,8,15,14,7,9,2,4,5,1,10"
14674,commdev-image-keyboard-response,136,455049,learnblock1,827.5,img/planet11_left.png,11,Community 1,NA,FALSE,j,f,NA,NA,NA,2,6,"12,13,11,3,6,8,15,14,7,9,2,4,5,1,10"
14674,commdev-image-keyboard-response,137,456300,learnblock1,584,img/planet6_left.png,6,Community 1,NA,FALSE,j,f,NA,NA,NA,2,6,"12,13,11,3,6,8,15,14,7,9,2,4,5,1,10"
14674,commdev-image-keyboard-response,138,457552,learnblock1,null,img/planet2_left.png,2,Community 3,NA,FALSE,null,f,NA,NA,NA,2,6,"12,13,11,3,6,8,15,14,7,9,2,4,5,1,10"
14674,commdev-image-keyboard-response,139,458804,learnblock1,385.30000019073486,img/planet5_right.png,5,Community 3,NA,TRUE,j,j,NA,NA,NA,2,6,"12,13,11,3,6,8,15,14,7,9,2,4,5,1,10"
14674,commdev-image-keyboard-response,140,460055,learnblock1,null,img/planet10_left.png,10,Community 3,NA,FALSE,null,f,NA,NA,NA,2,6,"12,13,11,3,6,8,15,14,7,9,2,4,5,1,10"
14674,commdev-image-keyboard-response,141,461307,learnblock1,329.59999990463257,img/planet1_left.png,1,Community 3,NA,FALSE,j,f,NA,NA,NA,2,6,"12,13,11,3,6,8,15,14,7,9,2,4,5,1,10"
14674,commdev-image-keyboard-response,142,462558,learnblock1,null,img/planet5_left.png,5,Community 3,NA,FALSE,null,f,NA,NA,NA,2,6,"12,13,11,3,6,8,15,14,7,9,2,4,5,1,10"
14674,commdev-image-keyboard-response,143,463809,learnblock1,163.7000002861023,img/planet10_right.png,10,Community 3,NA,TRUE,j,j,NA,NA,NA,2,6,"12,13,11,3,6,8,15,14,7,9,2,4,5,1,10"
14674,commdev-image-keyboard-response,144,465060,learnblock1,912.6999998092651,img/planet4_right.png,4,Community 3,NA,TRUE,j,j,NA,NA,NA,2,6,"12,13,11,3,6,8,15,14,7,9,2,4,5,1,10"
14674,commdev-image-keyboard-response,145,466312,learnblock1,null,img/planet5_right.png,5,Community 3,NA,FALSE,null,j,NA,NA,NA,2,6,"12,13,11,3,6,8,15,14,7,9,2,4,5,1,10"
14674,commdev-image-keyboard-response,146,467563,learnblock1,185.5,img/planet4_right.png,4,Community 3,NA,TRUE,j,j,NA,NA,NA,2,6,"12,13,11,3,6,8,15,14,7,9,2,4,5,1,10"
14674,commdev-image-keyboard-response,147,468815,learnblock1,950.0999999046326,img/planet1_right.png,1,Community 3,NA,TRUE,j,j,NA,NA,NA,2,6,"12,13,11,3,6,8,15,14,7,9,2,4,5,1,10"
14674,commdev-image-keyboard-response,148,470067,learnblock1,787.2999997138977,img/planet5_left.png,5,Community 3,NA,FALSE,j,f,NA,NA,NA,2,6,"12,13,11,3,6,8,15,14,7,9,2,4,5,1,10"
14674,commdev-image-keyboard-response,149,471319,learnblock1,null,img/planet1_left.png,1,Community 3,NA,FALSE,null,f,NA,NA,NA,2,6,"12,13,11,3,6,8,15,14,7,9,2,4,5,1,10"
14674,commdev-image-keyboard-response,150,472571,learnblock1,170.09999990463257,img/planet5_right.png,5,Community 3,NA,TRUE,j,j,NA,NA,NA,2,6,"12,13,11,3,6,8,15,14,7,9,2,4,5,1,10"
14674,commdev-image-keyboard-response,151,473822,learnblock1,822.5999999046326,img/planet10_left.png,10,Community 3,NA,FALSE,j,f,NA,NA,NA,2,6,"12,13,11,3,6,8,15,14,7,9,2,4,5,1,10"
14674,commdev-image-keyboard-response,152,475075,learnblock1,1043,img/planet2_right.png,2,Community 3,NA,TRUE,j,j,NA,NA,NA,2,6,"12,13,11,3,6,8,15,14,7,9,2,4,5,1,10"
14674,commdev-image-keyboard-response,153,476326,learnblock1,null,img/planet5_right.png,5,Community 3,NA,FALSE,null,j,NA,NA,NA,2,6,"12,13,11,3,6,8,15,14,7,9,2,4,5,1,10"
14674,commdev-image-keyboard-response,154,477576,learnblock1,235.90000009536743,img/planet10_left.png,10,Community 3,NA,FALSE,j,f,NA,NA,NA,2,6,"12,13,11,3,6,8,15,14,7,9,2,4,5,1,10"
14674,commdev-image-keyboard-response,155,478828,learnblock1,744.9000000953674,img/planet1_right.png,1,Community 3,NA,TRUE,j,j,NA,NA,NA,2,6,"12,13,11,3,6,8,15,14,7,9,2,4,5,1,10"
14674,commdev-image-keyboard-response,156,480079,learnblock1,373.09999990463257,img/planet10_right.png,10,Community 3,NA,TRUE,j,j,NA,NA,NA,2,6,"12,13,11,3,6,8,15,14,7,9,2,4,5,1,10"
14674,commdev-image-keyboard-response,157,481330,learnblock1,962.1000003814697,img/planet5_right.png,5,Community 3,NA,TRUE,j,j,NA,NA,NA,2,6,"12,13,11,3,6,8,15,14,7,9,2,4,5,1,10"
14674,commdev-image-keyboard-response,158,482582,learnblock1,null,img/planet2_left.png,2,Community 3,NA,FALSE,null,f,NA,NA,NA,2,6,"12,13,11,3,6,8,15,14,7,9,2,4,5,1,10"
14674,commdev-image-keyboard-response,159,483833,learnblock1,635.5999999046326,img/planet10_right.png,10,Community 3,NA,FALSE,f,j,NA,NA,NA,2,6,"12,13,11,3,6,8,15,14,7,9,2,4,5,1,10"
14674,commdev-image-keyboard-response,160,485085,learnblock1,344.8999996185303,img/planet4_left.png,4,Community 3,NA,FALSE,j,f,NA,NA,NA,2,6,"12,13,11,3,6,8,15,14,7,9,2,4,5,1,10"
14674,commdev-image-keyboard-response,161,486337,learnblock1,596.4000000953674,img/planet1_right.png,1,Community 3,NA,FALSE,f,j,NA,NA,NA,2,6,"12,13,11,3,6,8,15,14,7,9,2,4,5,1,10"
14674,commdev-image-keyboard-response,162,487588,learnblock1,672.1999998092651,img/planet4_left.png,4,Community 3,NA,TRUE,f,f,NA,NA,NA,2,6,"12,13,11,3,6,8,15,14,7,9,2,4,5,1,10"
14674,commdev-image-keyboard-response,163,488849,learnblock1,157,img/planet14_left.png,14,Community 2,NA,FALSE,j,f,NA,NA,NA,2,6,"12,13,11,3,6,8,15,14,7,9,2,4,5,1,10"
14674,commdev-image-keyboard-response,164,490100,learnblock1,655.9000000953674,img/planet9_left.png,9,Community 2,NA,FALSE,j,f,NA,NA,NA,2,6,"12,13,11,3,6,8,15,14,7,9,2,4,5,1,10"
14674,commdev-image-keyboard-response,165,491352,learnblock1,269,img/planet15_left.png,15,Community 2,NA,TRUE,f,f,NA,NA,NA,2,6,"12,13,11,3,6,8,15,14,7,9,2,4,5,1,10"
14674,commdev-image-keyboard-response,166,492604,learnblock1,697.5999999046326,img/planet7_right.png,7,Community 2,NA,TRUE,j,j,NA,NA,NA,2,6,"12,13,11,3,6,8,15,14,7,9,2,4,5,1,10"
14674,commdev-image-keyboard-response,167,493856,learnblock1,405.19999980926514,img/planet9_left.png,9,Community 2,NA,TRUE,f,f,NA,NA,NA,2,6,"12,13,11,3,6,8,15,14,7,9,2,4,5,1,10"
14674,commdev-image-keyboard-response,168,495107,learnblock1,65.59999990463257,img/planet14_right.png,14,Community 2,NA,TRUE,j,j,NA,NA,NA,2,6,"12,13,11,3,6,8,15,14,7,9,2,4,5,1,10"
14674,commdev-image-keyboard-response,169,496359,learnblock1,558.5999999046326,img/planet7_right.png,7,Community 2,NA,TRUE,j,j,NA,NA,NA,2,6,"12,13,11,3,6,8,15,14,7,9,2,4,5,1,10"
14674,commdev-image-keyboard-response,170,497611,learnblock1,298.8999996185303,img/planet8_right.png,8,Community 2,NA,FALSE,f,j,NA,NA,NA,2,6,"12,13,11,3,6,8,15,14,7,9,2,4,5,1,10"
14674,commdev-image-keyboard-response,171,498870,learnblock1,678.3000001907349,img/planet3_left.png,3,Community 1,NA,TRUE,f,f,NA,NA,NA,2,6,"12,13,11,3,6,8,15,14,7,9,2,4,5,1,10"
14674,commdev-image-keyboard-response,172,500121,learnblock1,331.2999997138977,img/planet11_right.png,11,Community 1,NA,TRUE,j,j,NA,NA,NA,2,6,"12,13,11,3,6,8,15,14,7,9,2,4,5,1,10"
14674,commdev-image-keyboard-response,173,501372,learnblock1,136.5,img/planet3_right.png,3,Community 1,NA,FALSE,f,j,NA,NA,NA,2,6,"12,13,11,3,6,8,15,14,7,9,2,4,5,1,10"
14674,commdev-image-keyboard-response,174,502624,learnblock1,null,img/planet12_left.png,12,Community 1,NA,FALSE,null,f,NA,NA,NA,2,6,"12,13,11,3,6,8,15,14,7,9,2,4,5,1,10"
14674,commdev-image-keyboard-response,175,503875,learnblock1,null,img/planet11_left.png,11,Community 1,NA,FALSE,null,f,NA,NA,NA,2,6,"12,13,11,3,6,8,15,14,7,9,2,4,5,1,10"
14674,commdev-image-keyboard-response,176,505126,learnblock1,null,img/planet13_left.png,13,Community 1,NA,FALSE,null,f,NA,NA,NA,2,6,"12,13,11,3,6,8,15,14,7,9,2,4,5,1,10"
14674,commdev-image-keyboard-response,177,506378,learnblock1,null,img/planet3_left.png,3,Community 1,NA,FALSE,null,f,NA,NA,NA,2,6,"12,13,11,3,6,8,15,14,7,9,2,4,5,1,10"
14674,commdev-image-keyboard-response,178,507630,learnblock1,887.6999998092651,img/planet13_left.png,13,Community 1,NA,FALSE,j,f,NA,NA,NA,2,6,"12,13,11,3,6,8,15,14,7,9,2,4,5,1,10"
14674,commdev-image-keyboard-response,179,508881,learnblock1,227.90000009536743,img/planet6_left.png,6,Community 1,NA,FALSE,j,f,NA,NA,NA,2,6,"12,13,11,3,6,8,15,14,7,9,2,4,5,1,10"
14674,commdev-image-keyboard-response,180,510133,learnblock1,null,img/planet13_left.png,13,Community 1,NA,FALSE,null,f,NA,NA,NA,2,6,"12,13,11,3,6,8,15,14,7,9,2,4,5,1,10"
14674,commdev-image-keyboard-response,181,511385,learnblock1,172,img/planet6_right.png,6,Community 1,NA,TRUE,j,j,NA,NA,NA,2,6,"12,13,11,3,6,8,15,14,7,9,2,4,5,1,10"
14674,commdev-image-keyboard-response,182,512635,learnblock1,168.5,img/planet13_right.png,13,Community 1,NA,FALSE,f,j,NA,NA,NA,2,6,"12,13,11,3,6,8,15,14,7,9,2,4,5,1,10"
14674,commdev-image-keyboard-response,183,513887,learnblock1,485.80000019073486,img/planet3_right.png,3,Community 1,NA,FALSE,f,j,NA,NA,NA,2,6,"12,13,11,3,6,8,15,14,7,9,2,4,5,1,10"
14674,commdev-image-keyboard-response,184,515138,learnblock1,18.40000009536743,img/planet8_left.png,8,Community 2,NA,FALSE,j,f,NA,NA,NA,2,6,"12,13,11,3,6,8,15,14,7,9,2,4,5,1,10"
14674,commdev-image-keyboard-response,185,516390,learnblock1,79,img/planet7_left.png,7,Community 2,NA,TRUE,f,f,NA,NA,NA,2,6,"12,13,11,3,6,8,15,14,7,9,2,4,5,1,10"
14674,commdev-image-keyboard-response,186,517642,learnblock1,987.2000002861023,img/planet14_right.png,14,Community 2,NA,FALSE,f,j,NA,NA,NA,2,6,"12,13,11,3,6,8,15,14,7,9,2,4,5,1,10"
14674,commdev-image-keyboard-response,187,518893,learnblock1,711,img/planet15_right.png,15,Community 2,NA,TRUE,j,j,NA,NA,NA,2,6,"12,13,11,3,6,8,15,14,7,9,2,4,5,1,10"
14674,commdev-image-keyboard-response,188,520144,learnblock1,708.7000002861023,img/planet7_left.png,7,Community 2,NA,FALSE,j,f,NA,NA,NA,2,6,"12,13,11,3,6,8,15,14,7,9,2,4,5,1,10"
14674,commdev-image-keyboard-response,189,521396,learnblock1,833.0999999046326,img/planet9_left.png,9,Community 2,NA,FALSE,j,f,NA,NA,NA,2,6,"12,13,11,3,6,8,15,14,7,9,2,4,5,1,10"
14674,commdev-image-keyboard-response,190,522648,learnblock1,null,img/planet7_right.png,7,Community 2,NA,FALSE,null,j,NA,NA,NA,2,6,"12,13,11,3,6,8,15,14,7,9,2,4,5,1,10"
14674,commdev-image-keyboard-response,191,523900,learnblock1,409.5,img/planet14_right.png,14,Community 2,NA,TRUE,j,j,NA,NA,NA,2,6,"12,13,11,3,6,8,15,14,7,9,2,4,5,1,10"
14674,commdev-image-keyboard-response,192,525151,learnblock1,117.19999980926514,img/planet9_left.png,9,Community 2,NA,FALSE,j,f,NA,NA,NA,2,6,"12,13,11,3,6,8,15,14,7,9,2,4,5,1,10"
14674,commdev-image-keyboard-response,193,526402,learnblock1,721.7999997138977,img/planet7_right.png,7,Community 2,NA,TRUE,j,j,NA,NA,NA,2,6,"12,13,11,3,6,8,15,14,7,9,2,4,5,1,10"
14674,commdev-image-keyboard-response,194,527654,learnblock1,1247.4000000953674,img/planet15_left.png,15,Community 2,NA,TRUE,f,f,NA,NA,NA,2,6,"12,13,11,3,6,8,15,14,7,9,2,4,5,1,10"
14674,commdev-image-keyboard-response,195,528905,learnblock1,null,img/planet9_left.png,9,Community 2,NA,FALSE,null,f,NA,NA,NA,2,6,"12,13,11,3,6,8,15,14,7,9,2,4,5,1,10"
14674,commdev-image-keyboard-response,196,530160,learnblock1,56.80000019073486,img/planet14_right.png,14,Community 2,NA,FALSE,f,j,NA,NA,NA,2,6,"12,13,11,3,6,8,15,14,7,9,2,4,5,1,10"
14674,commdev-image-keyboard-response,197,531411,learnblock1,721.5999999046326,img/planet7_left.png,7,Community 2,NA,FALSE,j,f,NA,NA,NA,2,6,"12,13,11,3,6,8,15,14,7,9,2,4,5,1,10"
14674,commdev-image-keyboard-response,198,532670,learnblock1,814.3000001907349,img/planet15_left.png,15,Community 2,NA,FALSE,j,f,NA,NA,NA,2,6,"12,13,11,3,6,8,15,14,7,9,2,4,5,1,10"
14674,commdev-image-keyboard-response,199,533922,learnblock1,499.69999980926514,img/planet9_left.png,9,Community 2,NA,TRUE,f,f,NA,NA,NA,2,6,"12,13,11,3,6,8,15,14,7,9,2,4,5,1,10"
14674,commdev-image-keyboard-response,200,535173,learnblock1,null,img/planet7_left.png,7,Community 2,NA,FALSE,null,f,NA,NA,NA,2,6,"12,13,11,3,6,8,15,14,7,9,2,4,5,1,10"
14674,commdev-image-keyboard-response,201,536425,learnblock1,null,img/planet9_left.png,9,Community 2,NA,FALSE,null,f,NA,NA,NA,2,6,"12,13,11,3,6,8,15,14,7,9,2,4,5,1,10"
14674,commdev-image-keyboard-response,202,537677,learnblock1,null,img/planet14_left.png,14,Community 2,NA,FALSE,null,f,NA,NA,NA,2,6,"12,13,11,3,6,8,15,14,7,9,2,4,5,1,10"
14674,commdev-image-keyboard-response,203,538928,learnblock1,null,img/planet7_left.png,7,Community 2,NA,FALSE,null,f,NA,NA,NA,2,6,"12,13,11,3,6,8,15,14,7,9,2,4,5,1,10"
14674,commdev-image-keyboard-response,204,540190,learnblock1,null,img/planet9_left.png,9,Community 2,NA,FALSE,null,f,NA,NA,NA,2,6,"12,13,11,3,6,8,15,14,7,9,2,4,5,1,10"
14674,commdev-image-keyboard-response,205,541442,learnblock1,null,img/planet15_left.png,15,Community 2,NA,FALSE,null,f,NA,NA,NA,2,6,"12,13,11,3,6,8,15,14,7,9,2,4,5,1,10"
14674,commdev-image-keyboard-response,206,542694,learnblock1,null,img/planet14_right.png,14,Community 2,NA,FALSE,null,j,NA,NA,NA,2,6,"12,13,11,3,6,8,15,14,7,9,2,4,5,1,10"
14674,commdev-image-keyboard-response,207,543945,learnblock1,null,img/planet15_left.png,15,Community 2,NA,FALSE,null,f,NA,NA,NA,2,6,"12,13,11,3,6,8,15,14,7,9,2,4,5,1,10"
14674,commdev-image-keyboard-response,208,545197,learnblock1,null,img/planet8_left.png,8,Community 2,NA,FALSE,null,f,NA,NA,NA,2,6,"12,13,11,3,6,8,15,14,7,9,2,4,5,1,10"
14674,commdev-image-keyboard-response,209,546448,learnblock1,null,img/planet15_left.png,15,Community 2,NA,FALSE,null,f,NA,NA,NA,2,6,"12,13,11,3,6,8,15,14,7,9,2,4,5,1,10"
14674,commdev-image-keyboard-response,210,547701,learnblock1,null,img/planet14_right.png,14,Community 2,NA,FALSE,null,j,NA,NA,NA,2,6,"12,13,11,3,6,8,15,14,7,9,2,4,5,1,10"
14674,commdev-image-keyboard-response,211,548952,learnblock1,588.9000000953674,img/planet9_right.png,9,Community 2,NA,TRUE,j,j,NA,NA,NA,2,6,"12,13,11,3,6,8,15,14,7,9,2,4,5,1,10"
14674,commdev-image-keyboard-response,212,550203,learnblock1,825.5999999046326,img/planet8_right.png,8,Community 2,NA,TRUE,j,j,NA,NA,NA,2,6,"12,13,11,3,6,8,15,14,7,9,2,4,5,1,10"
14674,commdev-image-keyboard-response,213,551454,learnblock1,582.5,img/planet15_left.png,15,Community 2,NA,TRUE,f,f,NA,NA,NA,2,6,"12,13,11,3,6,8,15,14,7,9,2,4,5,1,10"
14674,commdev-image-keyboard-response,214,552706,learnblock1,339.19999980926514,img/planet8_right.png,8,Community 2,NA,TRUE,j,j,NA,NA,NA,2,6,"12,13,11,3,6,8,15,14,7,9,2,4,5,1,10"
14674,commdev-image-keyboard-response,215,553957,learnblock1,303.5,img/planet7_right.png,7,Community 2,NA,FALSE,f,j,NA,NA,NA,2,6,"12,13,11,3,6,8,15,14,7,9,2,4,5,1,10"
14674,commdev-image-keyboard-response,216,555208,learnblock1,268,img/planet8_left.png,8,Community 2,NA,FALSE,j,f,NA,NA,NA,2,6,"12,13,11,3,6,8,15,14,7,9,2,4,5,1,10"
14674,commdev-image-keyboard-response,217,556460,learnblock1,377.3999996185303,img/planet7_left.png,7,Community 2,NA,TRUE,f,f,NA,NA,NA,2,6,"12,13,11,3,6,8,15,14,7,9,2,4,5,1,10"
14674,commdev-image-keyboard-response,218,557712,learnblock1,372.69999980926514,img/planet15_right.png,15,Community 2,NA,TRUE,j,j,NA,NA,NA,2,6,"12,13,11,3,6,8,15,14,7,9,2,4,5,1,10"
14674,commdev-image-keyboard-response,219,558963,learnblock1,721.6999998092651,img/planet8_left.png,8,Community 2,NA,FALSE,j,f,NA,NA,NA,2,6,"12,13,11,3,6,8,15,14,7,9,2,4,5,1,10"
14674,commdev-image-keyboard-response,220,560215,learnblock1,782.6999998092651,img/planet15_left.png,15,Community 2,NA,TRUE,f,f,NA,NA,NA,2,6,"12,13,11,3,6,8,15,14,7,9,2,4,5,1,10"
14674,commdev-image-keyboard-response,221,561466,learnblock1,842.5999999046326,img/planet7_left.png,7,Community 2,NA,FALSE,j,f,NA,NA,NA,2,6,"12,13,11,3,6,8,15,14,7,9,2,4,5,1,10"
14674,commdev-image-keyboard-response,222,562718,learnblock1,391.2999997138977,img/planet14_left.png,14,Community 2,NA,TRUE,f,f,NA,NA,NA,2,6,"12,13,11,3,6,8,15,14,7,9,2,4,5,1,10"
14674,commdev-image-keyboard-response,223,563969,learnblock1,260,img/planet9_right.png,9,Community 2,NA,TRUE,j,j,NA,NA,NA,2,6,"12,13,11,3,6,8,15,14,7,9,2,4,5,1,10"
14674,commdev-image-keyboard-response,224,565220,learnblock1,576.6999998092651,img/planet15_left.png,15,Community 2,NA,TRUE,f,f,NA,NA,NA,2,6,"12,13,11,3,6,8,15,14,7,9,2,4,5,1,10"
14674,commdev-image-keyboard-response,225,566471,learnblock1,493.30000019073486,img/planet9_left.png,9,Community 2,NA,FALSE,j,f,NA,NA,NA,2,6,"12,13,11,3,6,8,15,14,7,9,2,4,5,1,10"
14674,commdev-image-keyboard-response,226,567722,learnblock1,106.5,img/planet8_right.png,8,Community 2,NA,FALSE,f,j,NA,NA,NA,2,6,"12,13,11,3,6,8,15,14,7,9,2,4,5,1,10"
14674,commdev-image-keyboard-response,227,568974,learnblock1,775.2000002861023,img/planet9_left.png,9,Community 2,NA,TRUE,f,f,NA,NA,NA,2,6,"12,13,11,3,6,8,15,14,7,9,2,4,5,1,10"
14674,commdev-image-keyboard-response,228,570226,learnblock1,563.6999998092651,img/planet8_right.png,8,Community 2,NA,TRUE,j,j,NA,NA,NA,2,6,"12,13,11,3,6,8,15,14,7,9,2,4,5,1,10"
14674,commdev-image-keyboard-response,229,571476,learnblock1,847.6999998092651,img/planet9_right.png,9,Community 2,NA,TRUE,j,j,NA,NA,NA,2,6,"12,13,11,3,6,8,15,14,7,9,2,4,5,1,10"
14674,commdev-image-keyboard-response,230,572728,learnblock1,701.0999999046326,img/planet7_right.png,7,Community 2,NA,TRUE,j,j,NA,NA,NA,2,6,"12,13,11,3,6,8,15,14,7,9,2,4,5,1,10"
14674,commdev-image-keyboard-response,231,573979,learnblock1,265.59999990463257,img/planet15_right.png,15,Community 2,NA,FALSE,f,j,NA,NA,NA,2,6,"12,13,11,3,6,8,15,14,7,9,2,4,5,1,10"
14674,commdev-image-keyboard-response,232,575230,learnblock1,1030.0999999046326,img/planet7_left.png,7,Community 2,NA,TRUE,f,f,NA,NA,NA,2,6,"12,13,11,3,6,8,15,14,7,9,2,4,5,1,10"
14674,commdev-image-keyboard-response,233,576482,learnblock1,451,img/planet15_right.png,15,Community 2,NA,TRUE,j,j,NA,NA,NA,2,6,"12,13,11,3,6,8,15,14,7,9,2,4,5,1,10"
14674,commdev-image-keyboard-response,234,577733,learnblock1,175.5,img/planet9_right.png,9,Community 2,NA,FALSE,f,j,NA,NA,NA,2,6,"12,13,11,3,6,8,15,14,7,9,2,4,5,1,10"
14674,commdev-image-keyboard-response,235,578984,learnblock1,null,img/planet7_right.png,7,Community 2,NA,FALSE,null,j,NA,NA,NA,2,6,"12,13,11,3,6,8,15,14,7,9,2,4,5,1,10"
14674,commdev-image-keyboard-response,236,580236,learnblock1,null,img/planet15_left.png,15,Community 2,NA,FALSE,null,f,NA,NA,NA,2,6,"12,13,11,3,6,8,15,14,7,9,2,4,5,1,10"
14674,commdev-image-keyboard-response,237,581488,learnblock1,662,img/planet8_right.png,8,Community 2,NA,TRUE,j,j,NA,NA,NA,2,6,"12,13,11,3,6,8,15,14,7,9,2,4,5,1,10"
14674,commdev-image-keyboard-response,238,582739,learnblock1,1.6999998092651367,img/planet7_right.png,7,Community 2,NA,FALSE,f,j,NA,NA,NA,2,6,"12,13,11,3,6,8,15,14,7,9,2,4,5,1,10"
14674,commdev-image-keyboard-response,239,583990,learnblock1,null,img/planet14_left.png,14,Community 2,NA,FALSE,null,f,NA,NA,NA,2,6,"12,13,11,3,6,8,15,14,7,9,2,4,5,1,10"
14674,commdev-image-keyboard-response,240,585242,learnblock1,null,img/planet7_left.png,7,Community 2,NA,FALSE,null,f,NA,NA,NA,2,6,"12,13,11,3,6,8,15,14,7,9,2,4,5,1,10"
14674,commdev-image-keyboard-response,241,586492,learnblock1,null,img/planet14_left.png,14,Community 2,NA,FALSE,null,f,NA,NA,NA,2,6,"12,13,11,3,6,8,15,14,7,9,2,4,5,1,10"
14674,commdev-image-keyboard-response,242,587743,learnblock1,null,img/planet7_right.png,7,Community 2,NA,FALSE,null,j,NA,NA,NA,2,6,"12,13,11,3,6,8,15,14,7,9,2,4,5,1,10"
14674,commdev-image-keyboard-response,243,588995,learnblock1,null,img/planet14_left.png,14,Community 2,NA,FALSE,null,f,NA,NA,NA,2,6,"12,13,11,3,6,8,15,14,7,9,2,4,5,1,10"
14674,commdev-image-keyboard-response,244,590247,learnblock1,null,img/planet4_right.png,4,Community 3,NA,FALSE,null,j,NA,NA,NA,2,6,"12,13,11,3,6,8,15,14,7,9,2,4,5,1,10"
14674,commdev-image-keyboard-response,245,591499,learnblock1,null,img/planet14_right.png,14,Community 2,NA,FALSE,null,j,NA,NA,NA,2,6,"12,13,11,3,6,8,15,14,7,9,2,4,5,1,10"
14674,commdev-image-keyboard-response,246,592763,learnblock1,null,img/planet7_right.png,7,Community 2,NA,FALSE,null,j,NA,NA,NA,2,6,"12,13,11,3,6,8,15,14,7,9,2,4,5,1,10"
14674,commdev-image-keyboard-response,247,594015,learnblock1,null,img/planet9_right.png,9,Community 2,NA,FALSE,null,j,NA,NA,NA,2,6,"12,13,11,3,6,8,15,14,7,9,2,4,5,1,10"
14674,commdev-image-keyboard-response,248,595266,learnblock1,962.9000000953674,img/planet8_left.png,8,Community 2,NA,FALSE,j,f,NA,NA,NA,2,6,"12,13,11,3,6,8,15,14,7,9,2,4,5,1,10"
14674,commdev-image-keyboard-response,249,596519,learnblock1,367.90000009536743,img/planet3_left.png,3,Community 1,NA,TRUE,f,f,NA,NA,NA,2,6,"12,13,11,3,6,8,15,14,7,9,2,4,5,1,10"
14674,commdev-image-keyboard-response,250,597770,learnblock1,634.9000000953674,img/planet11_right.png,11,Community 1,NA,FALSE,f,j,NA,NA,NA,2,6,"12,13,11,3,6,8,15,14,7,9,2,4,5,1,10"
14674,commdev-image-keyboard-response,251,599022,learnblock1,null,img/planet6_right.png,6,Community 1,NA,FALSE,null,j,NA,NA,NA,2,6,"12,13,11,3,6,8,15,14,7,9,2,4,5,1,10"
14674,commdev-image-keyboard-response,252,600273,learnblock1,null,img/planet13_right.png,13,Community 1,NA,FALSE,null,j,NA,NA,NA,2,6,"12,13,11,3,6,8,15,14,7,9,2,4,5,1,10"
14674,commdev-image-keyboard-response,253,601525,learnblock1,null,img/planet3_right.png,3,Community 1,NA,FALSE,null,j,NA,NA,NA,2,6,"12,13,11,3,6,8,15,14,7,9,2,4,5,1,10"
14674,commdev-image-keyboard-response,254,602776,learnblock1,null,img/planet8_left.png,8,Community 2,NA,FALSE,null,f,NA,NA,NA,2,6,"12,13,11,3,6,8,15,14,7,9,2,4,5,1,10"
14674,commdev-image-keyboard-response,255,604028,learnblock1,null,img/planet9_right.png,9,Community 2,NA,FALSE,null,j,NA,NA,NA,2,6,"12,13,11,3,6,8,15,14,7,9,2,4,5,1,10"
14674,commdev-image-keyboard-response,256,605280,learnblock1,null,img/planet8_right.png,8,Community 2,NA,FALSE,null,j,NA,NA,NA,2,6,"12,13,11,3,6,8,15,14,7,9,2,4,5,1,10"
14674,commdev-image-keyboard-response,257,606532,learnblock1,null,img/planet7_left.png,7,Community 2,NA,FALSE,null,f,NA,NA,NA,2,6,"12,13,11,3,6,8,15,14,7,9,2,4,5,1,10"
14674,commdev-image-keyboard-response,258,607784,learnblock1,null,img/planet15_right.png,15,Community 2,NA,FALSE,null,j,NA,NA,NA,2,6,"12,13,11,3,6,8,15,14,7,9,2,4,5,1,10"
14674,commdev-image-keyboard-response,259,609034,learnblock1,null,img/planet14_left.png,14,Community 2,NA,FALSE,null,f,NA,NA,NA,2,6,"12,13,11,3,6,8,15,14,7,9,2,4,5,1,10"
14674,commdev-image-keyboard-response,260,610286,learnblock1,null,img/planet9_left.png,9,Community 2,NA,FALSE,null,f,NA,NA,NA,2,6,"12,13,11,3,6,8,15,14,7,9,2,4,5,1,10"
14674,commdev-image-keyboard-response,261,611537,learnblock1,null,img/planet15_left.png,15,Community 2,NA,FALSE,null,f,NA,NA,NA,2,6,"12,13,11,3,6,8,15,14,7,9,2,4,5,1,10"
14674,commdev-image-keyboard-response,262,612788,learnblock1,null,img/planet7_left.png,7,Community 2,NA,FALSE,null,f,NA,NA,NA,2,6,"12,13,11,3,6,8,15,14,7,9,2,4,5,1,10"
14674,commdev-image-keyboard-response,263,614040,learnblock1,null,img/planet15_right.png,15,Community 2,NA,FALSE,null,j,NA,NA,NA,2,6,"12,13,11,3,6,8,15,14,7,9,2,4,5,1,10"
14674,commdev-image-keyboard-response,264,615292,learnblock1,null,img/planet9_right.png,9,Community 2,NA,FALSE,null,j,NA,NA,NA,2,6,"12,13,11,3,6,8,15,14,7,9,2,4,5,1,10"
14674,commdev-image-keyboard-response,265,616558,learnblock1,null,img/planet8_left.png,8,Community 2,NA,FALSE,null,f,NA,NA,NA,2,6,"12,13,11,3,6,8,15,14,7,9,2,4,5,1,10"
14674,commdev-image-keyboard-response,266,617809,learnblock1,null,img/planet7_right.png,7,Community 2,NA,FALSE,null,j,NA,NA,NA,2,6,"12,13,11,3,6,8,15,14,7,9,2,4,5,1,10"
14674,commdev-image-keyboard-response,267,619070,learnblock1,null,img/planet14_right.png,14,Community 2,NA,FALSE,null,j,NA,NA,NA,2,6,"12,13,11,3,6,8,15,14,7,9,2,4,5,1,10"
14674,commdev-image-keyboard-response,268,620321,learnblock1,null,img/planet4_left.png,4,Community 3,NA,FALSE,null,f,NA,NA,NA,2,6,"12,13,11,3,6,8,15,14,7,9,2,4,5,1,10"
14674,commdev-image-keyboard-response,269,621573,learnblock1,null,img/planet10_right.png,10,Community 3,NA,FALSE,null,j,NA,NA,NA,2,6,"12,13,11,3,6,8,15,14,7,9,2,4,5,1,10"
14674,commdev-image-keyboard-response,270,622824,learnblock1,null,img/planet5_right.png,5,Community 3,NA,FALSE,null,j,NA,NA,NA,2,6,"12,13,11,3,6,8,15,14,7,9,2,4,5,1,10"
14674,commdev-image-keyboard-response,271,624077,learnblock1,null,img/planet10_right.png,10,Community 3,NA,FALSE,null,j,NA,NA,NA,2,6,"12,13,11,3,6,8,15,14,7,9,2,4,5,1,10"
14674,commdev-image-keyboard-response,272,625328,learnblock1,null,img/planet5_left.png,5,Community 3,NA,FALSE,null,f,NA,NA,NA,2,6,"12,13,11,3,6,8,15,14,7,9,2,4,5,1,10"
14674,commdev-image-keyboard-response,273,626579,learnblock1,null,img/planet2_right.png,2,Community 3,NA,FALSE,null,j,NA,NA,NA,2,6,"12,13,11,3,6,8,15,14,7,9,2,4,5,1,10"
14674,commdev-image-keyboard-response,274,627830,learnblock1,null,img/planet10_right.png,10,Community 3,NA,FALSE,null,j,NA,NA,NA,2,6,"12,13,11,3,6,8,15,14,7,9,2,4,5,1,10"
14674,commdev-image-keyboard-response,275,629082,learnblock1,null,img/planet5_left.png,5,Community 3,NA,FALSE,null,f,NA,NA,NA,2,6,"12,13,11,3,6,8,15,14,7,9,2,4,5,1,10"
14674,commdev-image-keyboard-response,276,630333,learnblock1,null,img/planet10_left.png,10,Community 3,NA,FALSE,null,f,NA,NA,NA,2,6,"12,13,11,3,6,8,15,14,7,9,2,4,5,1,10"
14674,commdev-image-keyboard-response,277,631585,learnblock1,null,img/planet4_left.png,4,Community 3,NA,FALSE,null,f,NA,NA,NA,2,6,"12,13,11,3,6,8,15,14,7,9,2,4,5,1,10"
14674,commdev-image-keyboard-response,278,632836,learnblock1,null,img/planet1_right.png,1,Community 3,NA,FALSE,null,j,NA,NA,NA,2,6,"12,13,11,3,6,8,15,14,7,9,2,4,5,1,10"
14674,commdev-image-keyboard-response,279,634088,learnblock1,null,img/planet4_right.png,4,Community 3,NA,FALSE,null,j,NA,NA,NA,2,6,"12,13,11,3,6,8,15,14,7,9,2,4,5,1,10"
14674,commdev-image-keyboard-response,280,635339,learnblock1,1033.8000001907349,img/planet1_right.png,1,Community 3,NA,TRUE,j,j,NA,NA,NA,2,6,"12,13,11,3,6,8,15,14,7,9,2,4,5,1,10"
14674,commdev-image-keyboard-response,281,636590,learnblock1,391,img/planet2_left.png,2,Community 3,NA,FALSE,j,f,NA,NA,NA,2,6,"12,13,11,3,6,8,15,14,7,9,2,4,5,1,10"
14674,commdev-image-keyboard-response,282,637848,learnblock1,659.5,img/planet1_left.png,1,Community 3,NA,FALSE,j,f,NA,NA,NA,2,6,"12,13,11,3,6,8,15,14,7,9,2,4,5,1,10"
14674,commdev-image-keyboard-response,283,639100,learnblock1,489.2999997138977,img/planet4_left.png,4,Community 3,NA,FALSE,j,f,NA,NA,NA,2,6,"12,13,11,3,6,8,15,14,7,9,2,4,5,1,10"
14674,commdev-image-keyboard-response,284,640350,learnblock1,182,img/planet10_left.png,10,Community 3,NA,TRUE,f,f,NA,NA,NA,2,6,"12,13,11,3,6,8,15,14,7,9,2,4,5,1,10"
14674,commdev-image-keyboard-response,285,641601,learnblock1,819.3000001907349,img/planet1_left.png,1,Community 3,NA,TRUE,f,f,NA,NA,NA,2,6,"12,13,11,3,6,8,15,14,7,9,2,4,5,1,10"
14674,commdev-image-keyboard-response,286,642852,learnblock1,304.2999997138977,img/planet4_left.png,4,Community 3,NA,TRUE,f,f,NA,NA,NA,2,6,"12,13,11,3,6,8,15,14,7,9,2,4,5,1,10"
14674,commdev-image-keyboard-response,287,644104,learnblock1,493.2999997138977,img/planet14_right.png,14,Community 2,NA,FALSE,f,j,NA,NA,NA,2,6,"12,13,11,3,6,8,15,14,7,9,2,4,5,1,10"
14674,commdev-image-keyboard-response,288,645356,learnblock1,457.7000002861023,img/planet4_right.png,4,Community 3,NA,FALSE,f,j,NA,NA,NA,2,6,"12,13,11,3,6,8,15,14,7,9,2,4,5,1,10"
14674,commdev-image-keyboard-response,289,646607,learnblock1,101.5,img/planet5_left.png,5,Community 3,NA,TRUE,f,f,NA,NA,NA,2,6,"12,13,11,3,6,8,15,14,7,9,2,4,5,1,10"
14674,commdev-image-keyboard-response,290,647858,learnblock1,18.199999809265137,img/planet4_right.png,4,Community 3,NA,FALSE,f,j,NA,NA,NA,2,6,"12,13,11,3,6,8,15,14,7,9,2,4,5,1,10"
14674,commdev-image-keyboard-response,291,649124,learnblock1,79,img/planet1_right.png,1,Community 3,NA,FALSE,f,j,NA,NA,NA,2,6,"12,13,11,3,6,8,15,14,7,9,2,4,5,1,10"
14674,commdev-image-keyboard-response,292,650376,learnblock1,45.200000286102295,img/planet2_right.png,2,Community 3,NA,FALSE,f,j,NA,NA,NA,2,6,"12,13,11,3,6,8,15,14,7,9,2,4,5,1,10"
14674,commdev-image-keyboard-response,293,651633,learnblock1,73.69999980926514,img/planet10_right.png,10,Community 3,NA,FALSE,f,j,NA,NA,NA,2,6,"12,13,11,3,6,8,15,14,7,9,2,4,5,1,10"
14674,commdev-image-keyboard-response,294,652892,learnblock1,416.2999997138977,img/planet5_right.png,5,Community 3,NA,FALSE,f,j,NA,NA,NA,2,6,"12,13,11,3,6,8,15,14,7,9,2,4,5,1,10"
14674,commdev-image-keyboard-response,295,654145,learnblock1,405,img/planet2_right.png,2,Community 3,NA,FALSE,f,j,NA,NA,NA,2,6,"12,13,11,3,6,8,15,14,7,9,2,4,5,1,10"
14674,commdev-image-keyboard-response,296,655396,learnblock1,368.69999980926514,img/planet6_left.png,6,Community 1,NA,TRUE,f,f,NA,NA,NA,2,6,"12,13,11,3,6,8,15,14,7,9,2,4,5,1,10"
14674,commdev-image-keyboard-response,297,656648,learnblock1,397.5,img/planet2_left.png,2,Community 3,NA,TRUE,f,f,NA,NA,NA,2,6,"12,13,11,3,6,8,15,14,7,9,2,4,5,1,10"
14674,commdev-image-keyboard-response,298,657899,learnblock1,121.90000009536743,img/planet5_left.png,5,Community 3,NA,TRUE,f,f,NA,NA,NA,2,6,"12,13,11,3,6,8,15,14,7,9,2,4,5,1,10"
14674,commdev-image-keyboard-response,299,659152,learnblock1,502.09999990463257,img/planet2_right.png,2,Community 3,NA,FALSE,f,j,NA,NA,NA,2,6,"12,13,11,3,6,8,15,14,7,9,2,4,5,1,10"
14674,commdev-image-keyboard-response,300,660404,learnblock1,353.69999980926514,img/planet1_left.png,1,Community 3,NA,TRUE,f,f,NA,NA,NA,2,6,"12,13,11,3,6,8,15,14,7,9,2,4,5,1,10"
14674,commdev-image-keyboard-response,301,661655,learnblock1,null,img/planet5_left.png,5,Community 3,NA,FALSE,null,f,NA,NA,NA,2,6,"12,13,11,3,6,8,15,14,7,9,2,4,5,1,10"
14674,commdev-image-keyboard-response,302,662907,learnblock1,null,img/planet4_right.png,4,Community 3,NA,FALSE,null,j,NA,NA,NA,2,6,"12,13,11,3,6,8,15,14,7,9,2,4,5,1,10"
14674,commdev-image-keyboard-response,303,664158,learnblock1,null,img/planet10_right.png,10,Community 3,NA,FALSE,null,j,NA,NA,NA,2,6,"12,13,11,3,6,8,15,14,7,9,2,4,5,1,10"
14674,commdev-image-keyboard-response,304,665409,learnblock1,195.59999990463257,img/planet2_right.png,2,Community 3,NA,FALSE,f,j,NA,NA,NA,2,6,"12,13,11,3,6,8,15,14,7,9,2,4,5,1,10"
14674,commdev-image-keyboard-response,305,666660,learnblock1,496.09999990463257,img/planet5_right.png,5,Community 3,NA,FALSE,f,j,NA,NA,NA,2,6,"12,13,11,3,6,8,15,14,7,9,2,4,5,1,10"
14674,commdev-image-keyboard-response,306,667912,learnblock1,173.2000002861023,img/planet2_right.png,2,Community 3,NA,FALSE,f,j,NA,NA,NA,2,6,"12,13,11,3,6,8,15,14,7,9,2,4,5,1,10"
14674,commdev-image-keyboard-response,307,669163,learnblock1,505.3999996185303,img/planet6_right.png,6,Community 1,NA,FALSE,f,j,NA,NA,NA,2,6,"12,13,11,3,6,8,15,14,7,9,2,4,5,1,10"
14674,commdev-image-keyboard-response,308,670415,learnblock1,278.59999990463257,img/planet11_left.png,11,Community 1,NA,TRUE,f,f,NA,NA,NA,2,6,"12,13,11,3,6,8,15,14,7,9,2,4,5,1,10"
14674,commdev-image-keyboard-response,309,671666,learnblock1,115,img/planet13_right.png,13,Community 1,NA,FALSE,f,j,NA,NA,NA,2,6,"12,13,11,3,6,8,15,14,7,9,2,4,5,1,10"
14674,commdev-image-keyboard-response,310,672917,learnblock1,31.5,img/planet3_left.png,3,Community 1,NA,TRUE,f,f,NA,NA,NA,2,6,"12,13,11,3,6,8,15,14,7,9,2,4,5,1,10"
14674,commdev-image-keyboard-response,311,674168,learnblock1,428.6000003814697,img/planet8_right.png,8,Community 2,NA,FALSE,f,j,NA,NA,NA,2,6,"12,13,11,3,6,8,15,14,7,9,2,4,5,1,10"
14674,commdev-image-keyboard-response,312,675420,learnblock1,57.5,img/planet3_right.png,3,Community 1,NA,FALSE,f,j,NA,NA,NA,2,6,"12,13,11,3,6,8,15,14,7,9,2,4,5,1,10"
14674,commdev-image-keyboard-response,313,676672,learnblock1,565.5999999046326,img/planet13_right.png,13,Community 1,NA,FALSE,f,j,NA,NA,NA,2,6,"12,13,11,3,6,8,15,14,7,9,2,4,5,1,10"
14674,commdev-image-keyboard-response,314,677923,learnblock1,129.30000019073486,img/planet6_right.png,6,Community 1,NA,FALSE,f,j,NA,NA,NA,2,6,"12,13,11,3,6,8,15,14,7,9,2,4,5,1,10"
14674,commdev-image-keyboard-response,315,679175,learnblock1,286.2000002861023,img/planet2_left.png,2,Community 3,NA,TRUE,f,f,NA,NA,NA,2,6,"12,13,11,3,6,8,15,14,7,9,2,4,5,1,10"
14674,commdev-image-keyboard-response,316,680426,learnblock1,null,img/planet5_right.png,5,Community 3,NA,FALSE,null,j,NA,NA,NA,2,6,"12,13,11,3,6,8,15,14,7,9,2,4,5,1,10"
14674,commdev-image-keyboard-response,317,681677,learnblock1,727.5999999046326,img/planet1_left.png,1,Community 3,NA,FALSE,j,f,NA,NA,NA,2,6,"12,13,11,3,6,8,15,14,7,9,2,4,5,1,10"
14674,commdev-image-keyboard-response,318,682928,learnblock1,36.200000286102295,img/planet2_left.png,2,Community 3,NA,TRUE,f,f,NA,NA,NA,2,6,"12,13,11,3,6,8,15,14,7,9,2,4,5,1,10"
14674,commdev-image-keyboard-response,319,684180,learnblock1,null,img/planet6_left.png,6,Community 1,NA,FALSE,null,f,NA,NA,NA,2,6,"12,13,11,3,6,8,15,14,7,9,2,4,5,1,10"
14674,commdev-image-keyboard-response,320,685431,learnblock1,null,img/planet13_right.png,13,Community 1,NA,FALSE,null,j,NA,NA,NA,2,6,"12,13,11,3,6,8,15,14,7,9,2,4,5,1,10"
14674,commdev-image-keyboard-response,321,686683,learnblock1,null,img/planet3_left.png,3,Community 1,NA,FALSE,null,f,NA,NA,NA,2,6,"12,13,11,3,6,8,15,14,7,9,2,4,5,1,10"
14674,commdev-image-keyboard-response,322,687934,learnblock1,null,img/planet13_left.png,13,Community 1,NA,FALSE,null,f,NA,NA,NA,2,6,"12,13,11,3,6,8,15,14,7,9,2,4,5,1,10"
14674,commdev-image-keyboard-response,323,689186,learnblock1,null,img/planet12_left.png,12,Community 1,NA,FALSE,null,f,NA,NA,NA,2,6,"12,13,11,3,6,8,15,14,7,9,2,4,5,1,10"
14674,commdev-image-keyboard-response,324,690437,learnblock1,null,img/planet3_right.png,3,Community 1,NA,FALSE,null,j,NA,NA,NA,2,6,"12,13,11,3,6,8,15,14,7,9,2,4,5,1,10"
14674,commdev-image-keyboard-response,325,691689,learnblock1,null,img/planet12_left.png,12,Community 1,NA,FALSE,null,f,NA,NA,NA,2,6,"12,13,11,3,6,8,15,14,7,9,2,4,5,1,10"
14674,commdev-image-keyboard-response,326,692941,learnblock1,null,img/planet13_right.png,13,Community 1,NA,FALSE,null,j,NA,NA,NA,2,6,"12,13,11,3,6,8,15,14,7,9,2,4,5,1,10"
14674,commdev-image-keyboard-response,327,694192,learnblock1,null,img/planet12_left.png,12,Community 1,NA,FALSE,null,f,NA,NA,NA,2,6,"12,13,11,3,6,8,15,14,7,9,2,4,5,1,10"
14674,commdev-image-keyboard-response,328,695443,learnblock1,null,img/planet11_right.png,11,Community 1,NA,FALSE,null,j,NA,NA,NA,2,6,"12,13,11,3,6,8,15,14,7,9,2,4,5,1,10"
14674,commdev-image-keyboard-response,329,696695,learnblock1,null,img/planet3_left.png,3,Community 1,NA,FALSE,null,f,NA,NA,NA,2,6,"12,13,11,3,6,8,15,14,7,9,2,4,5,1,10"
14674,commdev-image-keyboard-response,330,697947,learnblock1,null,img/planet13_left.png,13,Community 1,NA,FALSE,null,f,NA,NA,NA,2,6,"12,13,11,3,6,8,15,14,7,9,2,4,5,1,10"
14674,commdev-image-keyboard-response,331,699199,learnblock1,null,img/planet3_left.png,3,Community 1,NA,FALSE,null,f,NA,NA,NA,2,6,"12,13,11,3,6,8,15,14,7,9,2,4,5,1,10"
14674,commdev-image-keyboard-response,332,700461,learnblock1,null,img/planet11_left.png,11,Community 1,NA,FALSE,null,f,NA,NA,NA,2,6,"12,13,11,3,6,8,15,14,7,9,2,4,5,1,10"
14674,commdev-image-keyboard-response,333,701713,learnblock1,null,img/planet6_right.png,6,Community 1,NA,FALSE,null,j,NA,NA,NA,2,6,"12,13,11,3,6,8,15,14,7,9,2,4,5,1,10"
14674,commdev-image-keyboard-response,334,702964,learnblock1,null,img/planet11_right.png,11,Community 1,NA,FALSE,null,j,NA,NA,NA,2,6,"12,13,11,3,6,8,15,14,7,9,2,4,5,1,10"
14674,commdev-image-keyboard-response,335,704215,learnblock1,45.5,img/planet6_right.png,6,Community 1,NA,FALSE,f,j,NA,NA,NA,2,6,"12,13,11,3,6,8,15,14,7,9,2,4,5,1,10"
14674,commdev-image-keyboard-response,336,705466,learnblock1,1002.2999997138977,img/planet2_left.png,2,Community 3,NA,FALSE,j,f,NA,NA,NA,2,6,"12,13,11,3,6,8,15,14,7,9,2,4,5,1,10"
14674,commdev-image-keyboard-response,337,706718,learnblock1,823.5,img/planet1_left.png,1,Community 3,NA,TRUE,f,f,NA,NA,NA,2,6,"12,13,11,3,6,8,15,14,7,9,2,4,5,1,10"
14674,commdev-image-keyboard-response,338,707981,learnblock1,611.9000000953674,img/planet5_right.png,5,Community 3,NA,FALSE,f,j,NA,NA,NA,2,6,"12,13,11,3,6,8,15,14,7,9,2,4,5,1,10"
14674,commdev-image-keyboard-response,339,709246,learnblock1,308.90000009536743,img/planet2_right.png,2,Community 3,NA,TRUE,j,j,NA,NA,NA,2,6,"12,13,11,3,6,8,15,14,7,9,2,4,5,1,10"
14674,commdev-image-keyboard-response,340,710496,learnblock1,276,img/planet1_right.png,1,Community 3,NA,FALSE,f,j,NA,NA,NA,2,6,"12,13,11,3,6,8,15,14,7,9,2,4,5,1,10"
14674,commdev-image-keyboard-response,341,711748,learnblock1,689.5,img/planet4_left.png,4,Community 3,NA,TRUE,f,f,NA,NA,NA,2,6,"12,13,11,3,6,8,15,14,7,9,2,4,5,1,10"
14674,commdev-image-keyboard-response,342,713000,learnblock1,206,img/planet1_right.png,1,Community 3,NA,FALSE,f,j,NA,NA,NA,2,6,"12,13,11,3,6,8,15,14,7,9,2,4,5,1,10"
14674,commdev-image-keyboard-response,343,714251,learnblock1,666.5,img/planet4_left.png,4,Community 3,NA,TRUE,f,f,NA,NA,NA,2,6,"12,13,11,3,6,8,15,14,7,9,2,4,5,1,10"
14674,commdev-image-keyboard-response,344,715502,learnblock1,null,img/planet14_right.png,14,Community 2,NA,FALSE,null,j,NA,NA,NA,2,6,"12,13,11,3,6,8,15,14,7,9,2,4,5,1,10"
14674,commdev-image-keyboard-response,345,716754,learnblock1,35.700000286102295,img/planet7_right.png,7,Community 2,NA,TRUE,j,j,NA,NA,NA,2,6,"12,13,11,3,6,8,15,14,7,9,2,4,5,1,10"
14674,commdev-image-keyboard-response,346,718005,learnblock1,null,img/planet9_left.png,9,Community 2,NA,FALSE,null,f,NA,NA,NA,2,6,"12,13,11,3,6,8,15,14,7,9,2,4,5,1,10"
14674,commdev-image-keyboard-response,347,719257,learnblock1,null,img/planet14_right.png,14,Community 2,NA,FALSE,null,j,NA,NA,NA,2,6,"12,13,11,3,6,8,15,14,7,9,2,4,5,1,10"
14674,commdev-image-keyboard-response,351,985416,learnblock2,null,img/planet8_left.png,8,Community 2,NA,FALSE,null,f,NA,NA,NA,2,6,"12,13,11,3,6,8,15,14,7,9,2,4,5,1,10"
14674,commdev-image-keyboard-response,352,986667,learnblock2,null,img/planet3_right.png,3,Community 1,NA,FALSE,null,j,NA,NA,NA,2,6,"12,13,11,3,6,8,15,14,7,9,2,4,5,1,10"
14674,commdev-image-keyboard-response,353,987919,learnblock2,982.5999999046326,img/planet12_right.png,12,Community 1,NA,TRUE,j,j,NA,NA,NA,2,6,"12,13,11,3,6,8,15,14,7,9,2,4,5,1,10"
14674,commdev-image-keyboard-response,354,989170,learnblock2,579.3999996185303,img/planet6_left.png,6,Community 1,NA,TRUE,f,f,NA,NA,NA,2,6,"12,13,11,3,6,8,15,14,7,9,2,4,5,1,10"
14674,commdev-image-keyboard-response,355,990421,learnblock2,335.8999996185303,img/planet13_left.png,13,Community 1,NA,FALSE,j,f,NA,NA,NA,2,6,"12,13,11,3,6,8,15,14,7,9,2,4,5,1,10"
14674,commdev-image-keyboard-response,356,991673,learnblock2,572.6999998092651,img/planet12_right.png,12,Community 1,NA,TRUE,j,j,NA,NA,NA,2,6,"12,13,11,3,6,8,15,14,7,9,2,4,5,1,10"
14674,commdev-image-keyboard-response,357,992924,learnblock2,313.40000009536743,img/planet3_left.png,3,Community 1,NA,FALSE,j,f,NA,NA,NA,2,6,"12,13,11,3,6,8,15,14,7,9,2,4,5,1,10"
14674,commdev-image-keyboard-response,358,994175,learnblock2,102.19999980926514,img/planet13_right.png,13,Community 1,NA,TRUE,j,j,NA,NA,NA,2,6,"12,13,11,3,6,8,15,14,7,9,2,4,5,1,10"
14674,commdev-image-keyboard-response,359,995426,learnblock2,3.0999999046325684,img/planet12_left.png,12,Community 1,NA,FALSE,j,f,NA,NA,NA,2,6,"12,13,11,3,6,8,15,14,7,9,2,4,5,1,10"
14674,commdev-image-keyboard-response,360,996678,learnblock2,271.8999996185303,img/planet3_right.png,3,Community 1,NA,TRUE,j,j,NA,NA,NA,2,6,"12,13,11,3,6,8,15,14,7,9,2,4,5,1,10"
14674,commdev-image-keyboard-response,361,997929,learnblock2,140.39999961853027,img/planet13_right.png,13,Community 1,NA,TRUE,j,j,NA,NA,NA,2,6,"12,13,11,3,6,8,15,14,7,9,2,4,5,1,10"
14674,commdev-image-keyboard-response,362,999181,learnblock2,56.89999961853027,img/planet3_left.png,3,Community 1,NA,FALSE,j,f,NA,NA,NA,2,6,"12,13,11,3,6,8,15,14,7,9,2,4,5,1,10"
14674,commdev-image-keyboard-response,363,1000435,learnblock2,757.0999999046326,img/planet11_right.png,11,Community 1,NA,TRUE,j,j,NA,NA,NA,2,6,"12,13,11,3,6,8,15,14,7,9,2,4,5,1,10"
14674,commdev-image-keyboard-response,364,1001687,learnblock2,254.59999990463257,img/planet3_right.png,3,Community 1,NA,TRUE,j,j,NA,NA,NA,2,6,"12,13,11,3,6,8,15,14,7,9,2,4,5,1,10"
14674,commdev-image-keyboard-response,365,1002939,learnblock2,266.59999990463257,img/planet8_left.png,8,Community 2,NA,FALSE,j,f,NA,NA,NA,2,6,"12,13,11,3,6,8,15,14,7,9,2,4,5,1,10"
14674,commdev-image-keyboard-response,366,1004190,learnblock2,167.40000009536743,img/planet7_left.png,7,Community 2,NA,FALSE,j,f,NA,NA,NA,2,6,"12,13,11,3,6,8,15,14,7,9,2,4,5,1,10"
14674,commdev-image-keyboard-response,367,1005442,learnblock2,4.5,img/planet14_right.png,14,Community 2,NA,TRUE,j,j,NA,NA,NA,2,6,"12,13,11,3,6,8,15,14,7,9,2,4,5,1,10"
14674,commdev-image-keyboard-response,368,1006693,learnblock2,576.2999997138977,img/planet7_left.png,7,Community 2,NA,FALSE,j,f,NA,NA,NA,2,6,"12,13,11,3,6,8,15,14,7,9,2,4,5,1,10"
14674,commdev-image-keyboard-response,369,1007945,learnblock2,605.5,img/planet15_left.png,15,Community 2,NA,FALSE,j,f,NA,NA,NA,2,6,"12,13,11,3,6,8,15,14,7,9,2,4,5,1,10"
14674,commdev-image-keyboard-response,370,1009197,learnblock2,8.799999713897705,img/planet8_right.png,8,Community 2,NA,TRUE,j,j,NA,NA,NA,2,6,"12,13,11,3,6,8,15,14,7,9,2,4,5,1,10"
14674,commdev-image-keyboard-response,371,1010449,learnblock2,null,img/planet7_right.png,7,Community 2,NA,FALSE,null,j,NA,NA,NA,2,6,"12,13,11,3,6,8,15,14,7,9,2,4,5,1,10"
14674,commdev-image-keyboard-response,372,1011701,learnblock2,256.59999990463257,img/planet14_right.png,14,Community 2,NA,TRUE,j,j,NA,NA,NA,2,6,"12,13,11,3,6,8,15,14,7,9,2,4,5,1,10"
14674,commdev-image-keyboard-response,373,1012953,learnblock2,381.3999996185303,img/planet9_right.png,9,Community 2,NA,TRUE,j,j,NA,NA,NA,2,6,"12,13,11,3,6,8,15,14,7,9,2,4,5,1,10"
14674,commdev-image-keyboard-response,374,1014204,learnblock2,393.40000009536743,img/planet14_left.png,14,Community 2,NA,FALSE,j,f,NA,NA,NA,2,6,"12,13,11,3,6,8,15,14,7,9,2,4,5,1,10"
14674,commdev-image-keyboard-response,375,1015457,learnblock2,null,img/planet7_right.png,7,Community 2,NA,FALSE,null,j,NA,NA,NA,2,6,"12,13,11,3,6,8,15,14,7,9,2,4,5,1,10"
14674,commdev-image-keyboard-response,376,1016708,learnblock2,1121.6000003814697,img/planet9_left.png,9,Community 2,NA,TRUE,f,f,NA,NA,NA,2,6,"12,13,11,3,6,8,15,14,7,9,2,4,5,1,10"
14674,commdev-image-keyboard-response,377,1017959,learnblock2,942.5,img/planet14_left.png,14,Community 2,NA,TRUE,f,f,NA,NA,NA,2,6,"12,13,11,3,6,8,15,14,7,9,2,4,5,1,10"
14674,commdev-image-keyboard-response,378,1019210,learnblock2,827.5,img/planet9_left.png,9,Community 2,NA,TRUE,f,f,NA,NA,NA,2,6,"12,13,11,3,6,8,15,14,7,9,2,4,5,1,10"
14674,commdev-image-keyboard-response,379,1020461,learnblock2,680.4000000953674,img/planet8_left.png,8,Community 2,NA,FALSE,j,f,NA,NA,NA,2,6,"12,13,11,3,6,8,15,14,7,9,2,4,5,1,10"
14674,commdev-image-keyboard-response,380,1021713,learnblock2,null,img/planet7_left.png,7,Community 2,NA,FALSE,null,f,NA,NA,NA,2,6,"12,13,11,3,6,8,15,14,7,9,2,4,5,1,10"
14674,commdev-image-keyboard-response,381,1022964,learnblock2,129.39999961853027,img/planet8_left.png,8,Community 2,NA,TRUE,f,f,NA,NA,NA,2,6,"12,13,11,3,6,8,15,14,7,9,2,4,5,1,10"
14674,commdev-image-keyboard-response,382,1024216,learnblock2,782,img/planet3_left.png,3,Community 1,NA,TRUE,f,f,NA,NA,NA,2,6,"12,13,11,3,6,8,15,14,7,9,2,4,5,1,10"
14674,commdev-image-keyboard-response,383,1025468,learnblock2,794,img/planet12_right.png,12,Community 1,NA,TRUE,j,j,NA,NA,NA,2,6,"12,13,11,3,6,8,15,14,7,9,2,4,5,1,10"
14674,commdev-image-keyboard-response,384,1026720,learnblock2,678.3999996185303,img/planet13_left.png,13,Community 1,NA,TRUE,f,f,NA,NA,NA,2,6,"12,13,11,3,6,8,15,14,7,9,2,4,5,1,10"
14674,commdev-image-keyboard-response,385,1027971,learnblock2,674.8000001907349,img/planet12_left.png,12,Community 1,NA,FALSE,j,f,NA,NA,NA,2,6,"12,13,11,3,6,8,15,14,7,9,2,4,5,1,10"
14674,commdev-image-keyboard-response,386,1029223,learnblock2,null,img/planet3_right.png,3,Community 1,NA,FALSE,null,j,NA,NA,NA,2,6,"12,13,11,3,6,8,15,14,7,9,2,4,5,1,10"
14674,commdev-image-keyboard-response,387,1030474,learnblock2,null,img/planet13_right.png,13,Community 1,NA,FALSE,null,j,NA,NA,NA,2,6,"12,13,11,3,6,8,15,14,7,9,2,4,5,1,10"
14674,commdev-image-keyboard-response,388,1031725,learnblock2,null,img/planet3_left.png,3,Community 1,NA,FALSE,null,f,NA,NA,NA,2,6,"12,13,11,3,6,8,15,14,7,9,2,4,5,1,10"
14674,commdev-image-keyboard-response,389,1032976,learnblock2,null,img/planet13_left.png,13,Community 1,NA,FALSE,null,f,NA,NA,NA,2,6,"12,13,11,3,6,8,15,14,7,9,2,4,5,1,10"
14674,commdev-image-keyboard-response,390,1034228,learnblock2,null,img/planet3_right.png,3,Community 1,NA,FALSE,null,j,NA,NA,NA,2,6,"12,13,11,3,6,8,15,14,7,9,2,4,5,1,10"
14674,commdev-image-keyboard-response,391,1035480,learnblock2,null,img/planet12_left.png,12,Community 1,NA,FALSE,null,f,NA,NA,NA,2,6,"12,13,11,3,6,8,15,14,7,9,2,4,5,1,10"
14674,commdev-image-keyboard-response,392,1036731,learnblock2,null,img/planet13_left.png,13,Community 1,NA,FALSE,null,f,NA,NA,NA,2,6,"12,13,11,3,6,8,15,14,7,9,2,4,5,1,10"
14674,commdev-image-keyboard-response,393,1037983,learnblock2,null,img/planet6_right.png,6,Community 1,NA,FALSE,null,j,NA,NA,NA,2,6,"12,13,11,3,6,8,15,14,7,9,2,4,5,1,10"
14674,commdev-image-keyboard-response,394,1039233,learnblock2,null,img/planet11_left.png,11,Community 1,NA,FALSE,null,f,NA,NA,NA,2,6,"12,13,11,3,6,8,15,14,7,9,2,4,5,1,10"
14674,commdev-image-keyboard-response,395,1040485,learnblock2,null,img/planet3_right.png,3,Community 1,NA,FALSE,null,j,NA,NA,NA,2,6,"12,13,11,3,6,8,15,14,7,9,2,4,5,1,10"
14674,commdev-image-keyboard-response,396,1041736,learnblock2,null,img/planet11_left.png,11,Community 1,NA,FALSE,null,f,NA,NA,NA,2,6,"12,13,11,3,6,8,15,14,7,9,2,4,5,1,10"
14674,commdev-image-keyboard-response,397,1042988,learnblock2,null,img/planet12_left.png,12,Community 1,NA,FALSE,null,f,NA,NA,NA,2,6,"12,13,11,3,6,8,15,14,7,9,2,4,5,1,10"
14674,commdev-image-keyboard-response,398,1044238,learnblock2,null,img/planet11_left.png,11,Community 1,NA,FALSE,null,f,NA,NA,NA,2,6,"12,13,11,3,6,8,15,14,7,9,2,4,5,1,10"
14674,commdev-image-keyboard-response,399,1045490,learnblock2,null,img/planet6_right.png,6,Community 1,NA,FALSE,null,j,NA,NA,NA,2,6,"12,13,11,3,6,8,15,14,7,9,2,4,5,1,10"
14674,commdev-image-keyboard-response,400,1046742,learnblock2,null,img/planet12_left.png,12,Community 1,NA,FALSE,null,f,NA,NA,NA,2,6,"12,13,11,3,6,8,15,14,7,9,2,4,5,1,10"
14674,commdev-image-keyboard-response,401,1047993,learnblock2,null,img/planet3_right.png,3,Community 1,NA,FALSE,null,j,NA,NA,NA,2,6,"12,13,11,3,6,8,15,14,7,9,2,4,5,1,10"
14674,commdev-image-keyboard-response,402,1049246,learnblock2,null,img/planet12_left.png,12,Community 1,NA,FALSE,null,f,NA,NA,NA,2,6,"12,13,11,3,6,8,15,14,7,9,2,4,5,1,10"
14674,commdev-image-keyboard-response,403,1050498,learnblock2,null,img/planet6_left.png,6,Community 1,NA,FALSE,null,f,NA,NA,NA,2,6,"12,13,11,3,6,8,15,14,7,9,2,4,5,1,10"
14674,commdev-image-keyboard-response,404,1051749,learnblock2,null,img/planet11_right.png,11,Community 1,NA,FALSE,null,j,NA,NA,NA,2,6,"12,13,11,3,6,8,15,14,7,9,2,4,5,1,10"
14674,commdev-image-keyboard-response,405,1053002,learnblock2,null,img/planet3_right.png,3,Community 1,NA,FALSE,null,j,NA,NA,NA,2,6,"12,13,11,3,6,8,15,14,7,9,2,4,5,1,10"
14674,commdev-image-keyboard-response,406,1054253,learnblock2,696.5,img/planet13_right.png,13,Community 1,NA,TRUE,j,j,NA,NA,NA,2,6,"12,13,11,3,6,8,15,14,7,9,2,4,5,1,10"
14674,commdev-image-keyboard-response,407,1055504,learnblock2,309.09999990463257,img/planet11_right.png,11,Community 1,NA,FALSE,f,j,NA,NA,NA,2,6,"12,13,11,3,6,8,15,14,7,9,2,4,5,1,10"
14674,commdev-image-keyboard-response,408,1056755,learnblock2,162.30000019073486,img/planet12_right.png,12,Community 1,NA,TRUE,j,j,NA,NA,NA,2,6,"12,13,11,3,6,8,15,14,7,9,2,4,5,1,10"
14674,commdev-image-keyboard-response,409,1058007,learnblock2,974.6000003814697,img/planet6_right.png,6,Community 1,NA,TRUE,j,j,NA,NA,NA,2,6,"12,13,11,3,6,8,15,14,7,9,2,4,5,1,10"
14674,commdev-image-keyboard-response,410,1059257,learnblock2,795.0999999046326,img/planet2_right.png,2,Community 3,NA,FALSE,f,j,NA,NA,NA,2,6,"12,13,11,3,6,8,15,14,7,9,2,4,5,1,10"
14674,commdev-image-keyboard-response,411,1060508,learnblock2,728.5999999046326,img/planet10_right.png,10,Community 3,NA,TRUE,j,j,NA,NA,NA,2,6,"12,13,11,3,6,8,15,14,7,9,2,4,5,1,10"
14674,commdev-image-keyboard-response,412,1061760,learnblock2,245.5,img/planet2_left.png,2,Community 3,NA,FALSE,j,f,NA,NA,NA,2,6,"12,13,11,3,6,8,15,14,7,9,2,4,5,1,10"
14674,commdev-image-keyboard-response,413,1063011,learnblock2,null,img/planet1_right.png,1,Community 3,NA,FALSE,null,j,NA,NA,NA,2,6,"12,13,11,3,6,8,15,14,7,9,2,4,5,1,10"
14674,commdev-image-keyboard-response,414,1064262,learnblock2,270.8999996185303,img/planet4_right.png,4,Community 3,NA,FALSE,f,j,NA,NA,NA,2,6,"12,13,11,3,6,8,15,14,7,9,2,4,5,1,10"
14674,commdev-image-keyboard-response,415,1065513,learnblock2,1116.1999998092651,img/planet10_left.png,10,Community 3,NA,TRUE,f,f,NA,NA,NA,2,6,"12,13,11,3,6,8,15,14,7,9,2,4,5,1,10"
14674,commdev-image-keyboard-response,416,1066765,learnblock2,1112.8000001907349,img/planet1_right.png,1,Community 3,NA,TRUE,j,j,NA,NA,NA,2,6,"12,13,11,3,6,8,15,14,7,9,2,4,5,1,10"
14674,commdev-image-keyboard-response,417,1068017,learnblock2,949.4000000953674,img/planet5_right.png,5,Community 3,NA,FALSE,f,j,NA,NA,NA,2,6,"12,13,11,3,6,8,15,14,7,9,2,4,5,1,10"
14674,commdev-image-keyboard-response,418,1069268,learnblock2,689.4000000953674,img/planet10_right.png,10,Community 3,NA,TRUE,j,j,NA,NA,NA,2,6,"12,13,11,3,6,8,15,14,7,9,2,4,5,1,10"
14674,commdev-image-keyboard-response,419,1070519,learnblock2,510,img/planet2_right.png,2,Community 3,NA,FALSE,f,j,NA,NA,NA,2,6,"12,13,11,3,6,8,15,14,7,9,2,4,5,1,10"
14674,commdev-image-keyboard-response,420,1071770,learnblock2,250.89999961853027,img/planet5_left.png,5,Community 3,NA,FALSE,j,f,NA,NA,NA,2,6,"12,13,11,3,6,8,15,14,7,9,2,4,5,1,10"
14674,commdev-image-keyboard-response,421,1073021,learnblock2,167.39999961853027,img/planet10_right.png,10,Community 3,NA,FALSE,f,j,NA,NA,NA,2,6,"12,13,11,3,6,8,15,14,7,9,2,4,5,1,10"
14674,commdev-image-keyboard-response,422,1074276,learnblock2,1141.0999999046326,img/planet4_left.png,4,Community 3,NA,FALSE,j,f,NA,NA,NA,2,6,"12,13,11,3,6,8,15,14,7,9,2,4,5,1,10"
14674,commdev-image-keyboard-response,423,1075528,learnblock2,null,img/planet5_right.png,5,Community 3,NA,FALSE,null,j,NA,NA,NA,2,6,"12,13,11,3,6,8,15,14,7,9,2,4,5,1,10"
14674,commdev-image-keyboard-response,424,1076780,learnblock2,58.200000286102295,img/planet1_left.png,1,Community 3,NA,FALSE,j,f,NA,NA,NA,2,6,"12,13,11,3,6,8,15,14,7,9,2,4,5,1,10"
14674,commdev-image-keyboard-response,425,1078031,learnblock2,70.2999997138977,img/planet2_right.png,2,Community 3,NA,FALSE,f,j,NA,NA,NA,2,6,"12,13,11,3,6,8,15,14,7,9,2,4,5,1,10"
14674,commdev-image-keyboard-response,426,1079283,learnblock2,514.7000002861023,img/planet10_right.png,10,Community 3,NA,FALSE,f,j,NA,NA,NA,2,6,"12,13,11,3,6,8,15,14,7,9,2,4,5,1,10"
14674,commdev-image-keyboard-response,427,1080535,learnblock2,null,img/planet4_left.png,4,Community 3,NA,FALSE,null,f,NA,NA,NA,2,6,"12,13,11,3,6,8,15,14,7,9,2,4,5,1,10"
14674,commdev-image-keyboard-response,428,1081786,learnblock2,null,img/planet1_right.png,1,Community 3,NA,FALSE,null,j,NA,NA,NA,2,6,"12,13,11,3,6,8,15,14,7,9,2,4,5,1,10"
14674,commdev-image-keyboard-response,429,1083038,learnblock2,null,img/planet5_left.png,5,Community 3,NA,FALSE,null,f,NA,NA,NA,2,6,"12,13,11,3,6,8,15,14,7,9,2,4,5,1,10"
14674,commdev-image-keyboard-response,430,1084290,learnblock2,null,img/planet2_right.png,2,Community 3,NA,FALSE,null,j,NA,NA,NA,2,6,"12,13,11,3,6,8,15,14,7,9,2,4,5,1,10"
14674,commdev-image-keyboard-response,431,1085542,learnblock2,null,img/planet1_left.png,1,Community 3,NA,FALSE,null,f,NA,NA,NA,2,6,"12,13,11,3,6,8,15,14,7,9,2,4,5,1,10"
14674,commdev-image-keyboard-response,432,1086792,learnblock2,null,img/planet2_left.png,2,Community 3,NA,FALSE,null,f,NA,NA,NA,2,6,"12,13,11,3,6,8,15,14,7,9,2,4,5,1,10"
14674,commdev-image-keyboard-response,433,1088044,learnblock2,null,img/planet5_left.png,5,Community 3,NA,FALSE,null,f,NA,NA,NA,2,6,"12,13,11,3,6,8,15,14,7,9,2,4,5,1,10"
14674,commdev-image-keyboard-response,434,1089295,learnblock2,null,img/planet10_right.png,10,Community 3,NA,FALSE,null,j,NA,NA,NA,2,6,"12,13,11,3,6,8,15,14,7,9,2,4,5,1,10"
14674,commdev-image-keyboard-response,435,1090546,learnblock2,null,img/planet4_right.png,4,Community 3,NA,FALSE,null,j,NA,NA,NA,2,6,"12,13,11,3,6,8,15,14,7,9,2,4,5,1,10"
14674,commdev-image-keyboard-response,436,1091807,learnblock2,null,img/planet5_left.png,5,Community 3,NA,FALSE,null,f,NA,NA,NA,2,6,"12,13,11,3,6,8,15,14,7,9,2,4,5,1,10"
14674,commdev-image-keyboard-response,437,1093058,learnblock2,null,img/planet10_left.png,10,Community 3,NA,FALSE,null,f,NA,NA,NA,2,6,"12,13,11,3,6,8,15,14,7,9,2,4,5,1,10"
14674,commdev-image-keyboard-response,438,1094323,learnblock2,null,img/planet1_right.png,1,Community 3,NA,FALSE,null,j,NA,NA,NA,2,6,"12,13,11,3,6,8,15,14,7,9,2,4,5,1,10"
14674,commdev-image-keyboard-response,439,1095574,learnblock2,null,img/planet10_left.png,10,Community 3,NA,FALSE,null,f,NA,NA,NA,2,6,"12,13,11,3,6,8,15,14,7,9,2,4,5,1,10"
14674,commdev-image-keyboard-response,440,1096825,learnblock2,null,img/planet1_right.png,1,Community 3,NA,FALSE,null,j,NA,NA,NA,2,6,"12,13,11,3,6,8,15,14,7,9,2,4,5,1,10"
14674,commdev-image-keyboard-response,441,1098076,learnblock2,null,img/planet10_right.png,10,Community 3,NA,FALSE,null,j,NA,NA,NA,2,6,"12,13,11,3,6,8,15,14,7,9,2,4,5,1,10"
14674,commdev-image-keyboard-response,442,1099328,learnblock2,null,img/planet1_left.png,1,Community 3,NA,FALSE,null,f,NA,NA,NA,2,6,"12,13,11,3,6,8,15,14,7,9,2,4,5,1,10"
14674,commdev-image-keyboard-response,443,1100578,learnblock2,null,img/planet5_right.png,5,Community 3,NA,FALSE,null,j,NA,NA,NA,2,6,"12,13,11,3,6,8,15,14,7,9,2,4,5,1,10"
14674,commdev-image-keyboard-response,444,1101830,learnblock2,null,img/planet10_right.png,10,Community 3,NA,FALSE,null,j,NA,NA,NA,2,6,"12,13,11,3,6,8,15,14,7,9,2,4,5,1,10"
14674,commdev-image-keyboard-response,445,1103082,learnblock2,null,img/planet4_right.png,4,Community 3,NA,FALSE,null,j,NA,NA,NA,2,6,"12,13,11,3,6,8,15,14,7,9,2,4,5,1,10"
14674,commdev-image-keyboard-response,446,1104333,learnblock2,null,img/planet1_left.png,1,Community 3,NA,FALSE,null,f,NA,NA,NA,2,6,"12,13,11,3,6,8,15,14,7,9,2,4,5,1,10"
14674,commdev-image-keyboard-response,447,1105584,learnblock2,null,img/planet4_left.png,4,Community 3,NA,FALSE,null,f,NA,NA,NA,2,6,"12,13,11,3,6,8,15,14,7,9,2,4,5,1,10"
14674,commdev-image-keyboard-response,448,1106836,learnblock2,null,img/planet14_left.png,14,Community 2,NA,FALSE,null,f,NA,NA,NA,2,6,"12,13,11,3,6,8,15,14,7,9,2,4,5,1,10"
14674,commdev-image-keyboard-response,449,1108099,learnblock2,null,img/planet15_left.png,15,Community 2,NA,FALSE,null,f,NA,NA,NA,2,6,"12,13,11,3,6,8,15,14,7,9,2,4,5,1,10"
14674,commdev-image-keyboard-response,450,1109351,learnblock2,null,img/planet14_left.png,14,Community 2,NA,FALSE,null,f,NA,NA,NA,2,6,"12,13,11,3,6,8,15,14,7,9,2,4,5,1,10"
14674,commdev-image-keyboard-response,451,1110602,learnblock2,null,img/planet7_right.png,7,Community 2,NA,FALSE,null,j,NA,NA,NA,2,6,"12,13,11,3,6,8,15,14,7,9,2,4,5,1,10"
14674,commdev-image-keyboard-response,452,1111854,learnblock2,null,img/planet8_right.png,8,Community 2,NA,FALSE,null,j,NA,NA,NA,2,6,"12,13,11,3,6,8,15,14,7,9,2,4,5,1,10"
14674,commdev-image-keyboard-response,453,1113106,learnblock2,null,img/planet7_left.png,7,Community 2,NA,FALSE,null,f,NA,NA,NA,2,6,"12,13,11,3,6,8,15,14,7,9,2,4,5,1,10"
14674,commdev-image-keyboard-response,454,1114357,learnblock2,null,img/planet14_left.png,14,Community 2,NA,FALSE,null,f,NA,NA,NA,2,6,"12,13,11,3,6,8,15,14,7,9,2,4,5,1,10"
14674,commdev-image-keyboard-response,455,1115608,learnblock2,null,img/planet4_right.png,4,Community 3,NA,FALSE,null,j,NA,NA,NA,2,6,"12,13,11,3,6,8,15,14,7,9,2,4,5,1,10"
14674,commdev-image-keyboard-response,456,1116860,learnblock2,null,img/planet1_left.png,1,Community 3,NA,FALSE,null,f,NA,NA,NA,2,6,"12,13,11,3,6,8,15,14,7,9,2,4,5,1,10"
14674,commdev-image-keyboard-response,457,1118112,learnblock2,null,img/planet4_right.png,4,Community 3,NA,FALSE,null,j,NA,NA,NA,2,6,"12,13,11,3,6,8,15,14,7,9,2,4,5,1,10"
14674,commdev-image-keyboard-response,458,1119363,learnblock2,null,img/planet10_right.png,10,Community 3,NA,FALSE,null,j,NA,NA,NA,2,6,"12,13,11,3,6,8,15,14,7,9,2,4,5,1,10"
14674,commdev-image-keyboard-response,459,1120614,learnblock2,null,img/planet1_right.png,1,Community 3,NA,FALSE,null,j,NA,NA,NA,2,6,"12,13,11,3,6,8,15,14,7,9,2,4,5,1,10"
14674,commdev-image-keyboard-response,460,1121866,learnblock2,null,img/planet5_right.png,5,Community 3,NA,FALSE,null,j,NA,NA,NA,2,6,"12,13,11,3,6,8,15,14,7,9,2,4,5,1,10"
14674,commdev-image-keyboard-response,461,1123118,learnblock2,null,img/planet10_right.png,10,Community 3,NA,FALSE,null,j,NA,NA,NA,2,6,"12,13,11,3,6,8,15,14,7,9,2,4,5,1,10"
14674,commdev-image-keyboard-response,462,1124369,learnblock2,null,img/planet2_right.png,2,Community 3,NA,FALSE,null,j,NA,NA,NA,2,6,"12,13,11,3,6,8,15,14,7,9,2,4,5,1,10"
14674,commdev-image-keyboard-response,463,1125621,learnblock2,null,img/planet6_right.png,6,Community 1,NA,FALSE,null,j,NA,NA,NA,2,6,"12,13,11,3,6,8,15,14,7,9,2,4,5,1,10"
14674,commdev-image-keyboard-response,464,1126873,learnblock2,null,img/planet12_left.png,12,Community 1,NA,FALSE,null,f,NA,NA,NA,2,6,"12,13,11,3,6,8,15,14,7,9,2,4,5,1,10"
14674,commdev-image-keyboard-response,465,1128125,learnblock2,201.40000009536743,img/planet13_left.png,13,Community 1,NA,TRUE,f,f,NA,NA,NA,2,6,"12,13,11,3,6,8,15,14,7,9,2,4,5,1,10"
14674,commdev-image-keyboard-response,466,1129376,learnblock2,405.30000019073486,img/planet3_left.png,3,Community 1,NA,TRUE,f,f,NA,NA,NA,2,6,"12,13,11,3,6,8,15,14,7,9,2,4,5,1,10"
14674,commdev-image-keyboard-response,467,1130628,learnblock2,33.90000009536743,img/planet8_left.png,8,Community 2,NA,TRUE,f,f,NA,NA,NA,2,6,"12,13,11,3,6,8,15,14,7,9,2,4,5,1,10"
14674,commdev-image-keyboard-response,468,1131879,learnblock2,null,img/planet9_right.png,9,Community 2,NA,FALSE,null,j,NA,NA,NA,2,6,"12,13,11,3,6,8,15,14,7,9,2,4,5,1,10"
14674,commdev-image-keyboard-response,469,1133131,learnblock2,null,img/planet8_right.png,8,Community 2,NA,FALSE,null,j,NA,NA,NA,2,6,"12,13,11,3,6,8,15,14,7,9,2,4,5,1,10"
14674,commdev-image-keyboard-response,470,1134382,learnblock2,695.2000002861023,img/planet3_right.png,3,Community 1,NA,TRUE,j,j,NA,NA,NA,2,6,"12,13,11,3,6,8,15,14,7,9,2,4,5,1,10"
14674,commdev-image-keyboard-response,471,1135635,learnblock2,531.9000000953674,img/planet13_right.png,13,Community 1,NA,TRUE,j,j,NA,NA,NA,2,6,"12,13,11,3,6,8,15,14,7,9,2,4,5,1,10"
14674,commdev-image-keyboard-response,472,1136887,learnblock2,527.7000002861023,img/planet12_left.png,12,Community 1,NA,FALSE,j,f,NA,NA,NA,2,6,"12,13,11,3,6,8,15,14,7,9,2,4,5,1,10"
14674,commdev-image-keyboard-response,473,1138139,learnblock2,795.5,img/planet6_right.png,6,Community 1,NA,FALSE,f,j,NA,NA,NA,2,6,"12,13,11,3,6,8,15,14,7,9,2,4,5,1,10"
14674,commdev-image-keyboard-response,474,1139397,learnblock2,359.40000009536743,img/planet12_left.png,12,Community 1,NA,FALSE,j,f,NA,NA,NA,2,6,"12,13,11,3,6,8,15,14,7,9,2,4,5,1,10"
14674,commdev-image-keyboard-response,475,1140649,learnblock2,null,img/planet11_left.png,11,Community 1,NA,FALSE,null,f,NA,NA,NA,2,6,"12,13,11,3,6,8,15,14,7,9,2,4,5,1,10"
14674,commdev-image-keyboard-response,476,1141900,learnblock2,105.5,img/planet6_left.png,6,Community 1,NA,FALSE,j,f,NA,NA,NA,2,6,"12,13,11,3,6,8,15,14,7,9,2,4,5,1,10"
14674,commdev-image-keyboard-response,477,1143164,learnblock2,310.5,img/planet2_left.png,2,Community 3,NA,TRUE,f,f,NA,NA,NA,2,6,"12,13,11,3,6,8,15,14,7,9,2,4,5,1,10"
14674,commdev-image-keyboard-response,478,1144415,learnblock2,310.19999980926514,img/planet5_left.png,5,Community 3,NA,FALSE,j,f,NA,NA,NA,2,6,"12,13,11,3,6,8,15,14,7,9,2,4,5,1,10"
14674,commdev-image-keyboard-response,479,1145667,learnblock2,563.1999998092651,img/planet1_right.png,1,Community 3,NA,FALSE,f,j,NA,NA,NA,2,6,"12,13,11,3,6,8,15,14,7,9,2,4,5,1,10"
14674,commdev-image-keyboard-response,480,1146918,learnblock2,751.4000000953674,img/planet10_left.png,10,Community 3,NA,FALSE,j,f,NA,NA,NA,2,6,"12,13,11,3,6,8,15,14,7,9,2,4,5,1,10"
14674,commdev-image-keyboard-response,481,1148170,learnblock2,508.09999990463257,img/planet5_right.png,5,Community 3,NA,FALSE,f,j,NA,NA,NA,2,6,"12,13,11,3,6,8,15,14,7,9,2,4,5,1,10"
14674,commdev-image-keyboard-response,482,1149421,learnblock2,1208.4000000953674,img/planet2_left.png,2,Community 3,NA,FALSE,j,f,NA,NA,NA,2,6,"12,13,11,3,6,8,15,14,7,9,2,4,5,1,10"
14674,commdev-image-keyboard-response,483,1150672,learnblock2,1141.6000003814697,img/planet6_right.png,6,Community 1,NA,FALSE,f,j,NA,NA,NA,2,6,"12,13,11,3,6,8,15,14,7,9,2,4,5,1,10"
14674,commdev-image-keyboard-response,484,1151923,learnblock2,null,img/planet12_left.png,12,Community 1,NA,FALSE,null,f,NA,NA,NA,2,6,"12,13,11,3,6,8,15,14,7,9,2,4,5,1,10"
14674,commdev-image-keyboard-response,485,1153174,learnblock2,110.90000009536743,img/planet6_right.png,6,Community 1,NA,TRUE,j,j,NA,NA,NA,2,6,"12,13,11,3,6,8,15,14,7,9,2,4,5,1,10"
14674,commdev-image-keyboard-response,486,1154426,learnblock2,235.59999990463257,img/planet11_left.png,11,Community 1,NA,TRUE,f,f,NA,NA,NA,2,6,"12,13,11,3,6,8,15,14,7,9,2,4,5,1,10"
14674,commdev-image-keyboard-response,487,1155678,learnblock2,935.4000000953674,img/planet12_right.png,12,Community 1,NA,TRUE,j,j,NA,NA,NA,2,6,"12,13,11,3,6,8,15,14,7,9,2,4,5,1,10"
14674,commdev-image-keyboard-response,488,1156929,learnblock2,1220.1000003814697,img/planet3_right.png,3,Community 1,NA,FALSE,f,j,NA,NA,NA,2,6,"12,13,11,3,6,8,15,14,7,9,2,4,5,1,10"
14674,commdev-image-keyboard-response,489,1158181,learnblock2,null,img/planet13_left.png,13,Community 1,NA,FALSE,null,f,NA,NA,NA,2,6,"12,13,11,3,6,8,15,14,7,9,2,4,5,1,10"
14674,commdev-image-keyboard-response,490,1159433,learnblock2,284.59999990463257,img/planet3_left.png,3,Community 1,NA,FALSE,j,f,NA,NA,NA,2,6,"12,13,11,3,6,8,15,14,7,9,2,4,5,1,10"
14674,commdev-image-keyboard-response,491,1160685,learnblock2,361.09999990463257,img/planet12_left.png,12,Community 1,NA,TRUE,f,f,NA,NA,NA,2,6,"12,13,11,3,6,8,15,14,7,9,2,4,5,1,10"
14674,commdev-image-keyboard-response,492,1161936,learnblock2,437,img/planet13_left.png,13,Community 1,NA,FALSE,j,f,NA,NA,NA,2,6,"12,13,11,3,6,8,15,14,7,9,2,4,5,1,10"
14674,commdev-image-keyboard-response,493,1163188,learnblock2,161.5,img/planet12_right.png,12,Community 1,NA,FALSE,f,j,NA,NA,NA,2,6,"12,13,11,3,6,8,15,14,7,9,2,4,5,1,10"
14674,commdev-image-keyboard-response,494,1164439,learnblock2,894,img/planet13_right.png,13,Community 1,NA,FALSE,f,j,NA,NA,NA,2,6,"12,13,11,3,6,8,15,14,7,9,2,4,5,1,10"
14674,commdev-image-keyboard-response,495,1165691,learnblock2,746.8000001907349,img/planet3_right.png,3,Community 1,NA,FALSE,f,j,NA,NA,NA,2,6,"12,13,11,3,6,8,15,14,7,9,2,4,5,1,10"
14674,commdev-image-keyboard-response,496,1166944,learnblock2,390.5,img/planet11_left.png,11,Community 1,NA,FALSE,j,f,NA,NA,NA,2,6,"12,13,11,3,6,8,15,14,7,9,2,4,5,1,10"
14674,commdev-image-keyboard-response,497,1168195,learnblock2,33.90000009536743,img/planet12_right.png,12,Community 1,NA,TRUE,j,j,NA,NA,NA,2,6,"12,13,11,3,6,8,15,14,7,9,2,4,5,1,10"
14674,commdev-image-keyboard-response,498,1169446,learnblock2,142.5,img/planet3_right.png,3,Community 1,NA,TRUE,j,j,NA,NA,NA,2,6,"12,13,11,3,6,8,15,14,7,9,2,4,5,1,10"
14674,commdev-image-keyboard-response,499,1170697,learnblock2,860.0999999046326,img/planet11_left.png,11,Community 1,NA,FALSE,j,f,NA,NA,NA,2,6,"12,13,11,3,6,8,15,14,7,9,2,4,5,1,10"
14674,commdev-image-keyboard-response,500,1171948,learnblock2,264.80000019073486,img/planet12_right.png,12,Community 1,NA,FALSE,f,j,NA,NA,NA,2,6,"12,13,11,3,6,8,15,14,7,9,2,4,5,1,10"
14674,commdev-image-keyboard-response,501,1173199,learnblock2,294.09999990463257,img/planet6_right.png,6,Community 1,NA,FALSE,f,j,NA,NA,NA,2,6,"12,13,11,3,6,8,15,14,7,9,2,4,5,1,10"
14674,commdev-image-keyboard-response,502,1174450,learnblock2,483.2000002861023,img/planet12_right.png,12,Community 1,NA,FALSE,f,j,NA,NA,NA,2,6,"12,13,11,3,6,8,15,14,7,9,2,4,5,1,10"
14674,commdev-image-keyboard-response,503,1175701,learnblock2,480.40000009536743,img/planet6_right.png,6,Community 1,NA,TRUE,j,j,NA,NA,NA,2,6,"12,13,11,3,6,8,15,14,7,9,2,4,5,1,10"
14674,commdev-image-keyboard-response,504,1176952,learnblock2,381.19999980926514,img/planet13_right.png,13,Community 1,NA,FALSE,f,j,NA,NA,NA,2,6,"12,13,11,3,6,8,15,14,7,9,2,4,5,1,10"
14674,commdev-image-keyboard-response,505,1178203,learnblock2,154.30000019073486,img/planet11_right.png,11,Community 1,NA,FALSE,f,j,NA,NA,NA,2,6,"12,13,11,3,6,8,15,14,7,9,2,4,5,1,10"
14674,commdev-image-keyboard-response,506,1179454,learnblock2,327.59999990463257,img/planet6_right.png,6,Community 1,NA,FALSE,f,j,NA,NA,NA,2,6,"12,13,11,3,6,8,15,14,7,9,2,4,5,1,10"
14674,commdev-image-keyboard-response,507,1180705,learnblock2,4,img/planet11_left.png,11,Community 1,NA,TRUE,f,f,NA,NA,NA,2,6,"12,13,11,3,6,8,15,14,7,9,2,4,5,1,10"
14674,commdev-image-keyboard-response,508,1181956,learnblock2,1217.3000001907349,img/planet12_left.png,12,Community 1,NA,TRUE,f,f,NA,NA,NA,2,6,"12,13,11,3,6,8,15,14,7,9,2,4,5,1,10"
14674,commdev-image-keyboard-response,509,1183208,learnblock2,669.5999999046326,img/planet6_right.png,6,Community 1,NA,FALSE,f,j,NA,NA,NA,2,6,"12,13,11,3,6,8,15,14,7,9,2,4,5,1,10"
14674,commdev-image-keyboard-response,510,1184459,learnblock2,202.2000002861023,img/planet11_right.png,11,Community 1,NA,FALSE,f,j,NA,NA,NA,2,6,"12,13,11,3,6,8,15,14,7,9,2,4,5,1,10"
14674,commdev-image-keyboard-response,511,1185710,learnblock2,7.399999618530273,img/planet12_left.png,12,Community 1,NA,TRUE,f,f,NA,NA,NA,2,6,"12,13,11,3,6,8,15,14,7,9,2,4,5,1,10"
14674,commdev-image-keyboard-response,512,1186961,learnblock2,292.1000003814697,img/planet11_right.png,11,Community 1,NA,TRUE,j,j,NA,NA,NA,2,6,"12,13,11,3,6,8,15,14,7,9,2,4,5,1,10"
14674,commdev-image-keyboard-response,513,1188211,learnblock2,225.30000019073486,img/planet13_right.png,13,Community 1,NA,FALSE,f,j,NA,NA,NA,2,6,"12,13,11,3,6,8,15,14,7,9,2,4,5,1,10"
14674,commdev-image-keyboard-response,514,1189463,learnblock2,null,img/planet6_left.png,6,Community 1,NA,FALSE,null,f,NA,NA,NA,2,6,"12,13,11,3,6,8,15,14,7,9,2,4,5,1,10"
14674,commdev-image-keyboard-response,515,1190715,learnblock2,null,img/planet11_right.png,11,Community 1,NA,FALSE,null,j,NA,NA,NA,2,6,"12,13,11,3,6,8,15,14,7,9,2,4,5,1,10"
14674,commdev-image-keyboard-response,516,1191965,learnblock2,null,img/planet3_left.png,3,Community 1,NA,FALSE,null,f,NA,NA,NA,2,6,"12,13,11,3,6,8,15,14,7,9,2,4,5,1,10"
14674,commdev-image-keyboard-response,517,1193217,learnblock2,null,img/planet8_left.png,8,Community 2,NA,FALSE,null,f,NA,NA,NA,2,6,"12,13,11,3,6,8,15,14,7,9,2,4,5,1,10"
14674,commdev-image-keyboard-response,518,1194468,learnblock2,null,img/planet3_left.png,3,Community 1,NA,FALSE,null,f,NA,NA,NA,2,6,"12,13,11,3,6,8,15,14,7,9,2,4,5,1,10"
14674,commdev-image-keyboard-response,519,1195735,learnblock2,null,img/planet11_left.png,11,Community 1,NA,FALSE,null,f,NA,NA,NA,2,6,"12,13,11,3,6,8,15,14,7,9,2,4,5,1,10"
14674,commdev-image-keyboard-response,520,1197000,learnblock2,null,img/planet13_left.png,13,Community 1,NA,FALSE,null,f,NA,NA,NA,2,6,"12,13,11,3,6,8,15,14,7,9,2,4,5,1,10"
14674,commdev-image-keyboard-response,521,1198251,learnblock2,489.80000019073486,img/planet3_right.png,3,Community 1,NA,TRUE,j,j,NA,NA,NA,2,6,"12,13,11,3,6,8,15,14,7,9,2,4,5,1,10"
14674,commdev-image-keyboard-response,522,1199503,learnblock2,118.7000002861023,img/planet13_right.png,13,Community 1,NA,TRUE,j,j,NA,NA,NA,2,6,"12,13,11,3,6,8,15,14,7,9,2,4,5,1,10"
14674,commdev-image-keyboard-response,523,1200753,learnblock2,99.90000009536743,img/planet6_left.png,6,Community 1,NA,FALSE,j,f,NA,NA,NA,2,6,"12,13,11,3,6,8,15,14,7,9,2,4,5,1,10"
14674,commdev-image-keyboard-response,524,1202005,learnblock2,160.7999997138977,img/planet13_right.png,13,Community 1,NA,TRUE,j,j,NA,NA,NA,2,6,"12,13,11,3,6,8,15,14,7,9,2,4,5,1,10"
14674,commdev-image-keyboard-response,525,1203257,learnblock2,93.5,img/planet11_right.png,11,Community 1,NA,FALSE,f,j,NA,NA,NA,2,6,"12,13,11,3,6,8,15,14,7,9,2,4,5,1,10"
14674,commdev-image-keyboard-response,526,1204508,learnblock2,41.09999990463257,img/planet3_right.png,3,Community 1,NA,TRUE,j,j,NA,NA,NA,2,6,"12,13,11,3,6,8,15,14,7,9,2,4,5,1,10"
14674,commdev-image-keyboard-response,527,1205758,learnblock2,102.40000009536743,img/planet12_left.png,12,Community 1,NA,FALSE,j,f,NA,NA,NA,2,6,"12,13,11,3,6,8,15,14,7,9,2,4,5,1,10"
14674,commdev-image-keyboard-response,528,1207009,learnblock2,67.40000009536743,img/planet6_left.png,6,Community 1,NA,FALSE,j,f,NA,NA,NA,2,6,"12,13,11,3,6,8,15,14,7,9,2,4,5,1,10"
14674,commdev-image-keyboard-response,529,1208261,learnblock2,64.90000009536743,img/planet11_right.png,11,Community 1,NA,TRUE,j,j,NA,NA,NA,2,6,"12,13,11,3,6,8,15,14,7,9,2,4,5,1,10"
14674,commdev-image-keyboard-response,530,1209512,learnblock2,92.59999990463257,img/planet6_left.png,6,Community 1,NA,TRUE,f,f,NA,NA,NA,2,6,"12,13,11,3,6,8,15,14,7,9,2,4,5,1,10"
14674,commdev-image-keyboard-response,531,1210763,learnblock2,57.69999980926514,img/planet2_left.png,2,Community 3,NA,FALSE,j,f,NA,NA,NA,2,6,"12,13,11,3,6,8,15,14,7,9,2,4,5,1,10"
14674,commdev-image-keyboard-response,532,1212014,learnblock2,102.90000009536743,img/planet10_right.png,10,Community 3,NA,TRUE,j,j,NA,NA,NA,2,6,"12,13,11,3,6,8,15,14,7,9,2,4,5,1,10"
14674,commdev-image-keyboard-response,533,1213265,learnblock2,580.1999998092651,img/planet5_right.png,5,Community 3,NA,FALSE,f,j,NA,NA,NA,2,6,"12,13,11,3,6,8,15,14,7,9,2,4,5,1,10"
14674,commdev-image-keyboard-response,534,1214517,learnblock2,1217.0999999046326,img/planet10_right.png,10,Community 3,NA,FALSE,f,j,NA,NA,NA,2,6,"12,13,11,3,6,8,15,14,7,9,2,4,5,1,10"
14674,commdev-image-keyboard-response,535,1215768,learnblock2,157.80000019073486,img/planet2_left.png,2,Community 3,NA,FALSE,j,f,NA,NA,NA,2,6,"12,13,11,3,6,8,15,14,7,9,2,4,5,1,10"
14674,commdev-image-keyboard-response,536,1217019,learnblock2,11,img/planet6_left.png,6,Community 1,NA,TRUE,f,f,NA,NA,NA,2,6,"12,13,11,3,6,8,15,14,7,9,2,4,5,1,10"
14674,commdev-image-keyboard-response,537,1218270,learnblock2,23.800000190734863,img/planet12_left.png,12,Community 1,NA,FALSE,j,f,NA,NA,NA,2,6,"12,13,11,3,6,8,15,14,7,9,2,4,5,1,10"
14674,commdev-image-keyboard-response,538,1219521,learnblock2,260.90000009536743,img/planet3_left.png,3,Community 1,NA,FALSE,j,f,NA,NA,NA,2,6,"12,13,11,3,6,8,15,14,7,9,2,4,5,1,10"
14674,commdev-image-keyboard-response,539,1220773,learnblock2,225.09999990463257,img/planet8_left.png,8,Community 2,NA,FALSE,j,f,NA,NA,NA,2,6,"12,13,11,3,6,8,15,14,7,9,2,4,5,1,10"
14674,commdev-image-keyboard-response,540,1222024,learnblock2,null,img/planet9_left.png,9,Community 2,NA,FALSE,null,f,NA,NA,NA,2,6,"12,13,11,3,6,8,15,14,7,9,2,4,5,1,10"
14674,commdev-image-keyboard-response,541,1223274,learnblock2,11,img/planet15_left.png,15,Community 2,NA,TRUE,f,f,NA,NA,NA,2,6,"12,13,11,3,6,8,15,14,7,9,2,4,5,1,10"
14674,commdev-image-keyboard-response,542,1224525,learnblock2,71.90000009536743,img/planet8_right.png,8,Community 2,NA,FALSE,f,j,NA,NA,NA,2,6,"12,13,11,3,6,8,15,14,7,9,2,4,5,1,10"
14674,commdev-image-keyboard-response,543,1225777,learnblock2,4.900000095367432,img/planet7_left.png,7,Community 2,NA,FALSE,j,f,NA,NA,NA,2,6,"12,13,11,3,6,8,15,14,7,9,2,4,5,1,10"
14674,commdev-image-keyboard-response,544,1227028,learnblock2,177.59999990463257,img/planet8_right.png,8,Community 2,NA,TRUE,j,j,NA,NA,NA,2,6,"12,13,11,3,6,8,15,14,7,9,2,4,5,1,10"
14674,commdev-image-keyboard-response,545,1228279,learnblock2,46,img/planet15_left.png,15,Community 2,NA,FALSE,j,f,NA,NA,NA,2,6,"12,13,11,3,6,8,15,14,7,9,2,4,5,1,10"
14674,commdev-image-keyboard-response,546,1229530,learnblock2,251.40000009536743,img/planet9_left.png,9,Community 2,NA,FALSE,j,f,NA,NA,NA,2,6,"12,13,11,3,6,8,15,14,7,9,2,4,5,1,10"
14674,commdev-image-keyboard-response,547,1230781,learnblock2,168.5,img/planet14_right.png,14,Community 2,NA,TRUE,j,j,NA,NA,NA,2,6,"12,13,11,3,6,8,15,14,7,9,2,4,5,1,10"
14674,commdev-image-keyboard-response,548,1232033,learnblock2,101,img/planet15_right.png,15,Community 2,NA,TRUE,j,j,NA,NA,NA,2,6,"12,13,11,3,6,8,15,14,7,9,2,4,5,1,10"
14674,commdev-image-keyboard-response,549,1233284,learnblock2,65.30000019073486,img/planet14_left.png,14,Community 2,NA,FALSE,j,f,NA,NA,NA,2,6,"12,13,11,3,6,8,15,14,7,9,2,4,5,1,10"
14674,commdev-image-keyboard-response,550,1234535,learnblock2,189.7000002861023,img/planet7_right.png,7,Community 2,NA,TRUE,j,j,NA,NA,NA,2,6,"12,13,11,3,6,8,15,14,7,9,2,4,5,1,10"
14674,commdev-image-keyboard-response,551,1235787,learnblock2,203,img/planet8_left.png,8,Community 2,NA,FALSE,j,f,NA,NA,NA,2,6,"12,13,11,3,6,8,15,14,7,9,2,4,5,1,10"
14674,commdev-image-keyboard-response,552,1237038,learnblock2,87.80000019073486,img/planet7_right.png,7,Community 2,NA,TRUE,j,j,NA,NA,NA,2,6,"12,13,11,3,6,8,15,14,7,9,2,4,5,1,10"
14674,commdev-image-keyboard-response,553,1238290,learnblock2,180.40000009536743,img/planet14_right.png,14,Community 2,NA,TRUE,j,j,NA,NA,NA,2,6,"12,13,11,3,6,8,15,14,7,9,2,4,5,1,10"
14674,commdev-image-keyboard-response,554,1239542,learnblock2,95.59999990463257,img/planet9_left.png,9,Community 2,NA,FALSE,j,f,NA,NA,NA,2,6,"12,13,11,3,6,8,15,14,7,9,2,4,5,1,10"
14674,commdev-image-keyboard-response,555,1240794,learnblock2,60.299999713897705,img/planet7_right.png,7,Community 2,NA,TRUE,j,j,NA,NA,NA,2,6,"12,13,11,3,6,8,15,14,7,9,2,4,5,1,10"
14674,commdev-image-keyboard-response,556,1242045,learnblock2,23.90000009536743,img/planet14_left.png,14,Community 2,NA,FALSE,j,f,NA,NA,NA,2,6,"12,13,11,3,6,8,15,14,7,9,2,4,5,1,10"
14674,commdev-image-keyboard-response,557,1243297,learnblock2,85.30000019073486,img/planet4_right.png,4,Community 3,NA,TRUE,j,j,NA,NA,NA,2,6,"12,13,11,3,6,8,15,14,7,9,2,4,5,1,10"
14674,commdev-image-keyboard-response,558,1244549,learnblock2,33.5,img/planet14_left.png,14,Community 2,NA,TRUE,f,f,NA,NA,NA,2,6,"12,13,11,3,6,8,15,14,7,9,2,4,5,1,10"
14674,commdev-image-keyboard-response,559,1245804,learnblock2,61.69999980926514,img/planet9_left.png,9,Community 2,NA,FALSE,j,f,NA,NA,NA,2,6,"12,13,11,3,6,8,15,14,7,9,2,4,5,1,10"
14674,commdev-image-keyboard-response,560,1247056,learnblock2,198,img/planet7_left.png,7,Community 2,NA,FALSE,j,f,NA,NA,NA,2,6,"12,13,11,3,6,8,15,14,7,9,2,4,5,1,10"
14674,commdev-image-keyboard-response,561,1248307,learnblock2,738.5999999046326,img/planet14_left.png,14,Community 2,NA,FALSE,j,f,NA,NA,NA,2,6,"12,13,11,3,6,8,15,14,7,9,2,4,5,1,10"
14674,commdev-image-keyboard-response,562,1249558,learnblock2,175.40000009536743,img/planet7_right.png,7,Community 2,NA,FALSE,f,j,NA,NA,NA,2,6,"12,13,11,3,6,8,15,14,7,9,2,4,5,1,10"
14674,commdev-image-keyboard-response,563,1250811,learnblock2,92,img/planet9_left.png,9,Community 2,NA,FALSE,j,f,NA,NA,NA,2,6,"12,13,11,3,6,8,15,14,7,9,2,4,5,1,10"
14674,commdev-image-keyboard-response,564,1252062,learnblock2,167.30000019073486,img/planet14_right.png,14,Community 2,NA,TRUE,j,j,NA,NA,NA,2,6,"12,13,11,3,6,8,15,14,7,9,2,4,5,1,10"
14674,commdev-image-keyboard-response,565,1253314,learnblock2,115.90000009536743,img/planet7_right.png,7,Community 2,NA,FALSE,f,j,NA,NA,NA,2,6,"12,13,11,3,6,8,15,14,7,9,2,4,5,1,10"
14674,commdev-image-keyboard-response,566,1254565,learnblock2,112.5,img/planet15_left.png,15,Community 2,NA,FALSE,j,f,NA,NA,NA,2,6,"12,13,11,3,6,8,15,14,7,9,2,4,5,1,10"
14674,commdev-image-keyboard-response,567,1255816,learnblock2,365.59999990463257,img/planet14_right.png,14,Community 2,NA,TRUE,j,j,NA,NA,NA,2,6,"12,13,11,3,6,8,15,14,7,9,2,4,5,1,10"
14674,commdev-image-keyboard-response,568,1257068,learnblock2,681.8000001907349,img/planet15_left.png,15,Community 2,NA,FALSE,j,f,NA,NA,NA,2,6,"12,13,11,3,6,8,15,14,7,9,2,4,5,1,10"
14674,commdev-image-keyboard-response,569,1258320,learnblock2,133.90000009536743,img/planet7_right.png,7,Community 2,NA,FALSE,f,j,NA,NA,NA,2,6,"12,13,11,3,6,8,15,14,7,9,2,4,5,1,10"
14674,commdev-image-keyboard-response,570,1259570,learnblock2,null,img/planet9_right.png,9,Community 2,NA,FALSE,null,j,NA,NA,NA,2,6,"12,13,11,3,6,8,15,14,7,9,2,4,5,1,10"
14674,commdev-image-keyboard-response,571,1260821,learnblock2,1024,img/planet14_right.png,14,Community 2,NA,FALSE,f,j,NA,NA,NA,2,6,"12,13,11,3,6,8,15,14,7,9,2,4,5,1,10"
14674,commdev-image-keyboard-response,572,1262073,learnblock2,301.2000002861023,img/planet15_right.png,15,Community 2,NA,FALSE,f,j,NA,NA,NA,2,6,"12,13,11,3,6,8,15,14,7,9,2,4,5,1,10"
14674,commdev-image-keyboard-response,573,1263325,learnblock2,265.5,img/planet14_left.png,14,Community 2,NA,TRUE,f,f,NA,NA,NA,2,6,"12,13,11,3,6,8,15,14,7,9,2,4,5,1,10"
14674,commdev-image-keyboard-response,574,1264577,learnblock2,468.80000019073486,img/planet7_right.png,7,Community 2,NA,FALSE,f,j,NA,NA,NA,2,6,"12,13,11,3,6,8,15,14,7,9,2,4,5,1,10"
14674,commdev-image-keyboard-response,575,1265828,learnblock2,481.5,img/planet8_left.png,8,Community 2,NA,TRUE,f,f,NA,NA,NA,2,6,"12,13,11,3,6,8,15,14,7,9,2,4,5,1,10"
14674,commdev-image-keyboard-response,576,1267079,learnblock2,942.5,img/planet15_left.png,15,Community 2,NA,TRUE,f,f,NA,NA,NA,2,6,"12,13,11,3,6,8,15,14,7,9,2,4,5,1,10"
14674,commdev-image-keyboard-response,577,1268330,learnblock2,843.5999999046326,img/planet9_left.png,9,Community 2,NA,TRUE,f,f,NA,NA,NA,2,6,"12,13,11,3,6,8,15,14,7,9,2,4,5,1,10"
14674,commdev-image-keyboard-response,578,1269581,learnblock2,119.90000009536743,img/planet15_left.png,15,Community 2,NA,TRUE,f,f,NA,NA,NA,2,6,"12,13,11,3,6,8,15,14,7,9,2,4,5,1,10"
14674,commdev-image-keyboard-response,579,1270832,learnblock2,468.90000009536743,img/planet9_right.png,9,Community 2,NA,FALSE,f,j,NA,NA,NA,2,6,"12,13,11,3,6,8,15,14,7,9,2,4,5,1,10"
14674,commdev-image-keyboard-response,580,1272084,learnblock2,146.09999990463257,img/planet7_left.png,7,Community 2,NA,TRUE,f,f,NA,NA,NA,2,6,"12,13,11,3,6,8,15,14,7,9,2,4,5,1,10"
14674,commdev-image-keyboard-response,581,1273335,learnblock2,1150.9000000953674,img/planet9_right.png,9,Community 2,NA,TRUE,j,j,NA,NA,NA,2,6,"12,13,11,3,6,8,15,14,7,9,2,4,5,1,10"
14674,commdev-image-keyboard-response,582,1274585,learnblock2,91.7999997138977,img/planet7_left.png,7,Community 2,NA,FALSE,j,f,NA,NA,NA,2,6,"12,13,11,3,6,8,15,14,7,9,2,4,5,1,10"
14674,commdev-image-keyboard-response,583,1275837,learnblock2,169.5,img/planet15_right.png,15,Community 2,NA,TRUE,j,j,NA,NA,NA,2,6,"12,13,11,3,6,8,15,14,7,9,2,4,5,1,10"
14674,commdev-image-keyboard-response,584,1277087,learnblock2,101.80000019073486,img/planet7_right.png,7,Community 2,NA,FALSE,f,j,NA,NA,NA,2,6,"12,13,11,3,6,8,15,14,7,9,2,4,5,1,10"
14674,commdev-image-keyboard-response,585,1278338,learnblock2,114.80000019073486,img/planet8_left.png,8,Community 2,NA,FALSE,j,f,NA,NA,NA,2,6,"12,13,11,3,6,8,15,14,7,9,2,4,5,1,10"
14674,commdev-image-keyboard-response,586,1279590,learnblock2,80.19999980926514,img/planet9_left.png,9,Community 2,NA,FALSE,j,f,NA,NA,NA,2,6,"12,13,11,3,6,8,15,14,7,9,2,4,5,1,10"
14674,commdev-image-keyboard-response,587,1280841,learnblock2,236.5,img/planet14_left.png,14,Community 2,NA,FALSE,j,f,NA,NA,NA,2,6,"12,13,11,3,6,8,15,14,7,9,2,4,5,1,10"
14674,commdev-image-keyboard-response,588,1282093,learnblock2,249,img/planet7_right.png,7,Community 2,NA,FALSE,f,j,NA,NA,NA,2,6,"12,13,11,3,6,8,15,14,7,9,2,4,5,1,10"
14674,commdev-image-keyboard-response,589,1283344,learnblock2,261.59999990463257,img/planet8_right.png,8,Community 2,NA,FALSE,f,j,NA,NA,NA,2,6,"12,13,11,3,6,8,15,14,7,9,2,4,5,1,10"
14674,commdev-image-keyboard-response,590,1284595,learnblock2,514.4000000953674,img/planet9_right.png,9,Community 2,NA,TRUE,j,j,NA,NA,NA,2,6,"12,13,11,3,6,8,15,14,7,9,2,4,5,1,10"
14674,commdev-image-keyboard-response,591,1285848,learnblock2,126.80000019073486,img/planet8_left.png,8,Community 2,NA,TRUE,f,f,NA,NA,NA,2,6,"12,13,11,3,6,8,15,14,7,9,2,4,5,1,10"
14674,commdev-image-keyboard-response,592,1287099,learnblock2,171,img/planet9_left.png,9,Community 2,NA,TRUE,f,f,NA,NA,NA,2,6,"12,13,11,3,6,8,15,14,7,9,2,4,5,1,10"
