subject_id,trial_type,trial_index,time_elapsed,block,rt,stimulus,planet,community,response,correct,key_press,learning_correct_response,parse,init_locations,final_locations,browser_interactions,num_comp,planet_map
14224,commdev-instructions,7,32046,NA,3865.7000000029802,"<p>In this game, you are a scientist on board a space shuttle. </p><p> On each mission, you will visit planets all across the universe.</p><img src=""img/controlroom.jpg"" width=300vw>",NA,NA,NA,NA,NA,NA,NA,NA,NA,NA,6,"5,13,12,8,9,6,1,7,4,2,14,11,10,3,15"
14224,commdev-instructions,8,34726,NA,606.1999999955297,"<p>Here are a few planets you might see:</p><img src=""img/practice1.png"" width=200vw><img src=""img/practice2.png"" width=200vw><img src=""img/practice3.png"" width=200vw>",NA,NA,NA,NA,NA,NA,NA,NA,NA,NA,6,"5,13,12,8,9,6,1,7,4,2,14,11,10,3,15"
14224,commdev-instructions,9,45046,NA,2916.1999999955297,"<p>Your job as a scientist is to record which direction the winds are moving on each planet.</p><p>There are two types of wind directions:</p><img src=""img/practice1_left.png"" width=200vw><img src=""img/practice1_right.png"" width=200vw>",NA,NA,NA,NA,NA,NA,NA,NA,NA,NA,6,"5,13,12,8,9,6,1,7,4,2,14,11,10,3,15"
14224,commdev-instructions,10,51374,NA,1434.3999999985099,"<p>If the winds are moving this way, press the letter <strong>F</strong> on the keyboard as fast as you can.</p><img src=""img/leftwind.png"" width=250vw>",NA,NA,NA,NA,NA,NA,NA,NA,NA,NA,6,"5,13,12,8,9,6,1,7,4,2,14,11,10,3,15"
14224,commdev-instructions,11,57094,NA,1214.3999999985099,"<p>If the winds are moving this way, press the letter <strong>J</strong> on the keyboard as fast as you can.</p><img src=""img/rightwind.png"" width=350vw>",NA,NA,NA,NA,NA,NA,NA,NA,NA,NA,6,"5,13,12,8,9,6,1,7,4,2,14,11,10,3,15"
14224,commdev-instructions,12,63902,NA,2372.4000000059605,<p>You will have 1 second to respond. Try to respond before the time runs out!,NA,NA,NA,NA,NA,NA,NA,NA,NA,NA,6,"5,13,12,8,9,6,1,7,4,2,14,11,10,3,15"
14224,commdev-instructions,13,138406,NA,69066.70000000298,<p>The planets you will visit will look different from each other.</p><p>You should respond <strong>only</strong> based on wind direction.,NA,NA,NA,NA,NA,NA,NA,NA,NA,NA,6,"5,13,12,8,9,6,1,7,4,2,14,11,10,3,15"
14224,commdev-instructions,14,145039,NA,1088.2000000029802,"<p> Ready to start the practice round? </p><p> Remember, press <strong>F</strong> or <strong>J</strong> depending on the wind direction.<br><img src=""img/categorize_planet_example.png""",NA,NA,NA,NA,NA,NA,NA,NA,NA,NA,6,"5,13,12,8,9,6,1,7,4,2,14,11,10,3,15"
14224,commdev-instructions,26,195456,NA,657.8999999985099,"<p>Great, now try a short practice mission. </p><p> This time, you will have 1 second to respond and you won't know whether you pressed the right or wrong key for each planet.</p>",NA,NA,NA,NA,NA,NA,NA,NA,NA,NA,6,"5,13,12,8,9,6,1,7,4,2,14,11,10,3,15"
14224,commdev-image-keyboard-response,27,196839,practice,457.1000000014901,img/practice3_right.png,NA,Number not found in mappings,NA,TRUE,j,j,NA,NA,NA,NA,6,"5,13,12,8,9,6,1,7,4,2,14,11,10,3,15"
14224,commdev-image-keyboard-response,28,198093,practice,727.5999999940395,img/practice4_right.png,NA,Number not found in mappings,NA,TRUE,j,j,NA,NA,NA,NA,6,"5,13,12,8,9,6,1,7,4,2,14,11,10,3,15"
14224,commdev-image-keyboard-response,29,199348,practice,793.3999999985099,img/practice2_left.png,NA,Number not found in mappings,NA,TRUE,f,f,NA,NA,NA,NA,6,"5,13,12,8,9,6,1,7,4,2,14,11,10,3,15"
14224,commdev-image-keyboard-response,30,200609,practice,570.4000000059605,img/practice4_left.png,NA,Number not found in mappings,NA,TRUE,f,f,NA,NA,NA,NA,6,"5,13,12,8,9,6,1,7,4,2,14,11,10,3,15"
14224,commdev-image-keyboard-response,31,201861,practice,469.30000000447035,img/practice3_right.png,NA,Number not found in mappings,NA,TRUE,j,j,NA,NA,NA,NA,6,"5,13,12,8,9,6,1,7,4,2,14,11,10,3,15"
14224,commdev-image-keyboard-response,32,203116,practice,681.6000000014901,img/practice2_left.png,NA,Number not found in mappings,NA,TRUE,f,f,NA,NA,NA,NA,6,"5,13,12,8,9,6,1,7,4,2,14,11,10,3,15"
14224,commdev-image-keyboard-response,33,204374,practice,545.8999999985099,img/practice3_right.png,NA,Number not found in mappings,NA,TRUE,j,j,NA,NA,NA,NA,6,"5,13,12,8,9,6,1,7,4,2,14,11,10,3,15"
14224,commdev-image-keyboard-response,34,205635,practice,600.9000000059605,img/practice4_right.png,NA,Number not found in mappings,NA,TRUE,j,j,NA,NA,NA,NA,6,"5,13,12,8,9,6,1,7,4,2,14,11,10,3,15"
14224,commdev-instructions,35,221527,NA,6338.39999999851,"<p>Great job with the practice round.</p><p>During real missions, you won't know whether you pressed the right or wrong key for each planet.</p><p>But between missions, we will tell you how you did overall.</p>",NA,NA,NA,NA,NA,NA,NA,NA,NA,NA,6,"5,13,12,8,9,6,1,7,4,2,14,11,10,3,15"
14224,commdev-instructions,36,230359,NA,590.1000000014901,<p>Try your best! You will be paid a bonus based on how many correct responses you make!</p><p>Responses that are too slow will not count toward your bonus.</p>,NA,NA,NA,NA,NA,NA,NA,NA,NA,NA,6,"5,13,12,8,9,6,1,7,4,2,14,11,10,3,15"
14224,commdev-instructions,37,236998,NA,430.09999999403954,"<p>You are almost ready to start the real game.</p><p> First, we are going to ask you some questions about how the game works.</p>",NA,NA,NA,NA,NA,NA,NA,NA,NA,NA,6,"5,13,12,8,9,6,1,7,4,2,14,11,10,3,15"
14224,commdev-instructions,46,319167,NA,798,"<p> Nice work! It is now time to start the real game.<p></p>You will go on two missions to record wind directions of different planets.<p></p>Each one will take about 5 minutes. You will get to take a break between missions.<p><p> Remember, press <strong>F</strong> or <strong>J</strong> depending on the wind direction. Good luck!<br><img src=""img/categorize_planet_example.png""",NA,NA,NA,NA,NA,NA,NA,NA,NA,NA,6,"5,13,12,8,9,6,1,7,4,2,14,11,10,3,15"
14224,commdev-image-keyboard-response,48,324280,learnblock1,null,img/planet10_left.png,10,Community 3,NA,FALSE,null,f,NA,NA,NA,NA,6,"5,13,12,8,9,6,1,7,4,2,14,11,10,3,15"
14224,commdev-image-keyboard-response,49,325531,learnblock1,918.6000000014901,img/planet14_right.png,14,Community 3,NA,TRUE,j,j,NA,NA,NA,NA,6,"5,13,12,8,9,6,1,7,4,2,14,11,10,3,15"
14224,commdev-image-keyboard-response,50,326795,learnblock1,490.80000000447035,img/planet10_left.png,10,Community 3,NA,TRUE,f,f,NA,NA,NA,NA,6,"5,13,12,8,9,6,1,7,4,2,14,11,10,3,15"
14224,commdev-image-keyboard-response,51,328048,learnblock1,571.8000000044703,img/planet15_right.png,15,Community 3,NA,TRUE,j,j,NA,NA,NA,NA,6,"5,13,12,8,9,6,1,7,4,2,14,11,10,3,15"
14224,commdev-image-keyboard-response,52,329313,learnblock1,846,img/planet3_right.png,3,Community 3,NA,TRUE,j,j,NA,NA,NA,NA,6,"5,13,12,8,9,6,1,7,4,2,14,11,10,3,15"
14224,commdev-image-keyboard-response,53,330574,learnblock1,669.6000000014901,img/planet15_left.png,15,Community 3,NA,TRUE,f,f,NA,NA,NA,NA,6,"5,13,12,8,9,6,1,7,4,2,14,11,10,3,15"
14224,commdev-image-keyboard-response,54,331835,learnblock1,584.7000000029802,img/planet3_right.png,3,Community 3,NA,TRUE,j,j,NA,NA,NA,NA,6,"5,13,12,8,9,6,1,7,4,2,14,11,10,3,15"
14224,commdev-image-keyboard-response,55,333093,learnblock1,586.8000000044703,img/planet15_left.png,15,Community 3,NA,TRUE,f,f,NA,NA,NA,NA,6,"5,13,12,8,9,6,1,7,4,2,14,11,10,3,15"
14224,commdev-image-keyboard-response,56,334345,learnblock1,529.5,img/planet3_right.png,3,Community 3,NA,TRUE,j,j,NA,NA,NA,NA,6,"5,13,12,8,9,6,1,7,4,2,14,11,10,3,15"
14224,commdev-image-keyboard-response,57,335609,learnblock1,661.8999999985099,img/planet11_left.png,11,Community 3,NA,TRUE,f,f,NA,NA,NA,NA,6,"5,13,12,8,9,6,1,7,4,2,14,11,10,3,15"
14224,commdev-image-keyboard-response,58,336871,learnblock1,580.8999999985099,img/planet3_right.png,3,Community 3,NA,TRUE,j,j,NA,NA,NA,NA,6,"5,13,12,8,9,6,1,7,4,2,14,11,10,3,15"
14224,commdev-image-keyboard-response,59,338133,learnblock1,543.2999999970198,img/planet11_left.png,11,Community 3,NA,TRUE,f,f,NA,NA,NA,NA,6,"5,13,12,8,9,6,1,7,4,2,14,11,10,3,15"
14224,commdev-image-keyboard-response,60,339395,learnblock1,585.7000000029802,img/planet7_right.png,7,Community 2,NA,TRUE,j,j,NA,NA,NA,NA,6,"5,13,12,8,9,6,1,7,4,2,14,11,10,3,15"
14224,commdev-image-keyboard-response,61,340654,learnblock1,643.5999999940395,img/planet1_right.png,1,Community 2,NA,TRUE,j,j,NA,NA,NA,NA,6,"5,13,12,8,9,6,1,7,4,2,14,11,10,3,15"
14224,commdev-image-keyboard-response,62,341914,learnblock1,728.3999999985099,img/planet6_left.png,6,Community 2,NA,TRUE,f,f,NA,NA,NA,NA,6,"5,13,12,8,9,6,1,7,4,2,14,11,10,3,15"
14224,commdev-image-keyboard-response,63,343174,learnblock1,916.7999999970198,img/planet8_right.png,8,Community 1,NA,TRUE,j,j,NA,NA,NA,NA,6,"5,13,12,8,9,6,1,7,4,2,14,11,10,3,15"
14224,commdev-image-keyboard-response,64,344434,learnblock1,592.5,img/planet13_right.png,13,Community 1,NA,TRUE,j,j,NA,NA,NA,NA,6,"5,13,12,8,9,6,1,7,4,2,14,11,10,3,15"
14224,commdev-image-keyboard-response,65,345690,learnblock1,564.1000000014901,img/planet5_right.png,5,Community 1,NA,TRUE,j,j,NA,NA,NA,NA,6,"5,13,12,8,9,6,1,7,4,2,14,11,10,3,15"
14224,commdev-image-keyboard-response,66,346948,learnblock1,651.5,img/planet13_right.png,13,Community 1,NA,TRUE,j,j,NA,NA,NA,NA,6,"5,13,12,8,9,6,1,7,4,2,14,11,10,3,15"
14224,commdev-image-keyboard-response,67,348208,learnblock1,626.5,img/planet5_right.png,5,Community 1,NA,TRUE,j,j,NA,NA,NA,NA,6,"5,13,12,8,9,6,1,7,4,2,14,11,10,3,15"
14224,commdev-image-keyboard-response,68,349459,learnblock1,630.3999999985099,img/planet12_right.png,12,Community 1,NA,TRUE,j,j,NA,NA,NA,NA,6,"5,13,12,8,9,6,1,7,4,2,14,11,10,3,15"
14224,commdev-image-keyboard-response,69,350712,learnblock1,635.1000000014901,img/planet5_right.png,5,Community 1,NA,TRUE,j,j,NA,NA,NA,NA,6,"5,13,12,8,9,6,1,7,4,2,14,11,10,3,15"
14224,commdev-image-keyboard-response,70,351963,learnblock1,638.9000000059605,img/planet13_right.png,13,Community 1,NA,TRUE,j,j,NA,NA,NA,NA,6,"5,13,12,8,9,6,1,7,4,2,14,11,10,3,15"
14224,commdev-image-keyboard-response,71,353214,learnblock1,747.5999999940395,img/planet8_left.png,8,Community 1,NA,TRUE,f,f,NA,NA,NA,NA,6,"5,13,12,8,9,6,1,7,4,2,14,11,10,3,15"
14224,commdev-image-keyboard-response,72,354466,learnblock1,599.8999999985099,img/planet13_right.png,13,Community 1,NA,TRUE,j,j,NA,NA,NA,NA,6,"5,13,12,8,9,6,1,7,4,2,14,11,10,3,15"
14224,commdev-image-keyboard-response,73,355718,learnblock1,571.8999999985099,img/planet5_right.png,5,Community 1,NA,TRUE,j,j,NA,NA,NA,NA,6,"5,13,12,8,9,6,1,7,4,2,14,11,10,3,15"
14224,commdev-image-keyboard-response,74,356969,learnblock1,608.6999999955297,img/planet9_right.png,9,Community 1,NA,TRUE,j,j,NA,NA,NA,NA,6,"5,13,12,8,9,6,1,7,4,2,14,11,10,3,15"
14224,commdev-image-keyboard-response,75,358220,learnblock1,null,img/planet14_left.png,14,Community 3,NA,FALSE,null,f,NA,NA,NA,NA,6,"5,13,12,8,9,6,1,7,4,2,14,11,10,3,15"
14224,commdev-image-keyboard-response,76,359472,learnblock1,634.2999999970198,img/planet10_right.png,10,Community 3,NA,TRUE,j,j,NA,NA,NA,NA,6,"5,13,12,8,9,6,1,7,4,2,14,11,10,3,15"
14224,commdev-image-keyboard-response,77,360723,learnblock1,686.8000000044703,img/planet11_right.png,11,Community 3,NA,TRUE,j,j,NA,NA,NA,NA,6,"5,13,12,8,9,6,1,7,4,2,14,11,10,3,15"
14224,commdev-image-keyboard-response,78,361975,learnblock1,531.0999999940395,img/planet10_right.png,10,Community 3,NA,TRUE,j,j,NA,NA,NA,NA,6,"5,13,12,8,9,6,1,7,4,2,14,11,10,3,15"
14224,commdev-image-keyboard-response,79,363227,learnblock1,631.3999999985099,img/planet15_right.png,15,Community 3,NA,TRUE,j,j,NA,NA,NA,NA,6,"5,13,12,8,9,6,1,7,4,2,14,11,10,3,15"
14224,commdev-image-keyboard-response,80,364479,learnblock1,659.5,img/planet11_right.png,11,Community 3,NA,TRUE,j,j,NA,NA,NA,NA,6,"5,13,12,8,9,6,1,7,4,2,14,11,10,3,15"
14224,commdev-image-keyboard-response,81,365730,learnblock1,551.8999999985099,img/planet7_left.png,7,Community 2,NA,FALSE,j,f,NA,NA,NA,NA,6,"5,13,12,8,9,6,1,7,4,2,14,11,10,3,15"
14224,commdev-image-keyboard-response,82,366994,learnblock1,860.2000000029802,img/planet2_left.png,2,Community 2,NA,TRUE,f,f,NA,NA,NA,NA,6,"5,13,12,8,9,6,1,7,4,2,14,11,10,3,15"
14224,commdev-image-keyboard-response,83,368245,learnblock1,620.7000000029802,img/planet7_left.png,7,Community 2,NA,TRUE,f,f,NA,NA,NA,NA,6,"5,13,12,8,9,6,1,7,4,2,14,11,10,3,15"
14224,commdev-image-keyboard-response,84,369496,learnblock1,689.7000000029802,img/planet4_left.png,4,Community 2,NA,TRUE,f,f,NA,NA,NA,NA,6,"5,13,12,8,9,6,1,7,4,2,14,11,10,3,15"
14224,commdev-image-keyboard-response,85,370749,learnblock1,550.2999999970198,img/planet2_right.png,2,Community 2,NA,TRUE,j,j,NA,NA,NA,NA,6,"5,13,12,8,9,6,1,7,4,2,14,11,10,3,15"
14224,commdev-image-keyboard-response,86,372001,learnblock1,729.8999999985099,img/planet7_left.png,7,Community 2,NA,TRUE,f,f,NA,NA,NA,NA,6,"5,13,12,8,9,6,1,7,4,2,14,11,10,3,15"
14224,commdev-image-keyboard-response,87,373253,learnblock1,709.5999999940395,img/planet4_left.png,4,Community 2,NA,TRUE,f,f,NA,NA,NA,NA,6,"5,13,12,8,9,6,1,7,4,2,14,11,10,3,15"
14224,commdev-image-keyboard-response,88,374505,learnblock1,713.8999999985099,img/planet2_right.png,2,Community 2,NA,TRUE,j,j,NA,NA,NA,NA,6,"5,13,12,8,9,6,1,7,4,2,14,11,10,3,15"
14224,commdev-image-keyboard-response,89,375757,learnblock1,774,img/planet6_left.png,6,Community 2,NA,TRUE,f,f,NA,NA,NA,NA,6,"5,13,12,8,9,6,1,7,4,2,14,11,10,3,15"
14224,commdev-image-keyboard-response,90,377021,learnblock1,610.1999999955297,img/planet8_right.png,8,Community 1,NA,TRUE,j,j,NA,NA,NA,NA,6,"5,13,12,8,9,6,1,7,4,2,14,11,10,3,15"
14224,commdev-image-keyboard-response,91,378272,learnblock1,690,img/planet13_right.png,13,Community 1,NA,TRUE,j,j,NA,NA,NA,NA,6,"5,13,12,8,9,6,1,7,4,2,14,11,10,3,15"
14224,commdev-image-keyboard-response,92,379524,learnblock1,798.7000000029802,img/planet5_left.png,5,Community 1,NA,FALSE,j,f,NA,NA,NA,NA,6,"5,13,12,8,9,6,1,7,4,2,14,11,10,3,15"
14224,commdev-image-keyboard-response,93,380777,learnblock1,66.30000000447035,img/planet13_right.png,13,Community 1,NA,FALSE,f,j,NA,NA,NA,NA,6,"5,13,12,8,9,6,1,7,4,2,14,11,10,3,15"
14224,commdev-image-keyboard-response,94,382028,learnblock1,558.2999999970198,img/planet8_left.png,8,Community 1,NA,TRUE,f,f,NA,NA,NA,NA,6,"5,13,12,8,9,6,1,7,4,2,14,11,10,3,15"
14224,commdev-image-keyboard-response,95,383293,learnblock1,618.8000000044703,img/planet6_right.png,6,Community 2,NA,TRUE,j,j,NA,NA,NA,NA,6,"5,13,12,8,9,6,1,7,4,2,14,11,10,3,15"
14224,commdev-image-keyboard-response,96,384544,learnblock1,569.1999999955297,img/planet2_right.png,2,Community 2,NA,TRUE,j,j,NA,NA,NA,NA,6,"5,13,12,8,9,6,1,7,4,2,14,11,10,3,15"
14224,commdev-image-keyboard-response,97,385796,learnblock1,725.8000000044703,img/planet4_left.png,4,Community 2,NA,TRUE,f,f,NA,NA,NA,NA,6,"5,13,12,8,9,6,1,7,4,2,14,11,10,3,15"
14224,commdev-image-keyboard-response,98,387048,learnblock1,690,img/planet7_left.png,7,Community 2,NA,TRUE,f,f,NA,NA,NA,NA,6,"5,13,12,8,9,6,1,7,4,2,14,11,10,3,15"
14224,commdev-image-keyboard-response,99,388299,learnblock1,622.6999999955297,img/planet11_left.png,11,Community 3,NA,TRUE,f,f,NA,NA,NA,NA,6,"5,13,12,8,9,6,1,7,4,2,14,11,10,3,15"
14224,commdev-image-keyboard-response,100,389552,learnblock1,699.1999999955297,img/planet3_left.png,3,Community 3,NA,TRUE,f,f,NA,NA,NA,NA,6,"5,13,12,8,9,6,1,7,4,2,14,11,10,3,15"
14224,commdev-image-keyboard-response,101,390803,learnblock1,735,img/planet14_left.png,14,Community 3,NA,TRUE,f,f,NA,NA,NA,NA,6,"5,13,12,8,9,6,1,7,4,2,14,11,10,3,15"
14224,commdev-image-keyboard-response,102,392054,learnblock1,643.5,img/planet10_left.png,10,Community 3,NA,TRUE,f,f,NA,NA,NA,NA,6,"5,13,12,8,9,6,1,7,4,2,14,11,10,3,15"
14224,commdev-image-keyboard-response,103,393306,learnblock1,536.2999999970198,img/planet11_right.png,11,Community 3,NA,TRUE,j,j,NA,NA,NA,NA,6,"5,13,12,8,9,6,1,7,4,2,14,11,10,3,15"
14224,commdev-image-keyboard-response,104,394557,learnblock1,660.6999999955297,img/planet7_right.png,7,Community 2,NA,TRUE,j,j,NA,NA,NA,NA,6,"5,13,12,8,9,6,1,7,4,2,14,11,10,3,15"
14224,commdev-image-keyboard-response,105,395813,learnblock1,816.3000000044703,img/planet11_right.png,11,Community 3,NA,TRUE,j,j,NA,NA,NA,NA,6,"5,13,12,8,9,6,1,7,4,2,14,11,10,3,15"
14224,commdev-image-keyboard-response,106,397064,learnblock1,697.6000000014901,img/planet3_right.png,3,Community 3,NA,TRUE,j,j,NA,NA,NA,NA,6,"5,13,12,8,9,6,1,7,4,2,14,11,10,3,15"
14224,commdev-image-keyboard-response,107,398316,learnblock1,622.1999999955297,img/planet14_right.png,14,Community 3,NA,TRUE,j,j,NA,NA,NA,NA,6,"5,13,12,8,9,6,1,7,4,2,14,11,10,3,15"
14224,commdev-image-keyboard-response,108,399568,learnblock1,626.5999999940395,img/planet9_right.png,9,Community 1,NA,TRUE,j,j,NA,NA,NA,NA,6,"5,13,12,8,9,6,1,7,4,2,14,11,10,3,15"
14224,commdev-image-keyboard-response,109,400820,learnblock1,606.8999999985099,img/planet12_right.png,12,Community 1,NA,TRUE,j,j,NA,NA,NA,NA,6,"5,13,12,8,9,6,1,7,4,2,14,11,10,3,15"
14224,commdev-image-keyboard-response,110,402072,learnblock1,650.6999999955297,img/planet9_right.png,9,Community 1,NA,TRUE,j,j,NA,NA,NA,NA,6,"5,13,12,8,9,6,1,7,4,2,14,11,10,3,15"
14224,commdev-image-keyboard-response,111,403324,learnblock1,590.7999999970198,img/planet14_left.png,14,Community 3,NA,TRUE,f,f,NA,NA,NA,NA,6,"5,13,12,8,9,6,1,7,4,2,14,11,10,3,15"
14224,commdev-image-keyboard-response,112,404576,learnblock1,578.4000000059605,img/planet10_right.png,10,Community 3,NA,TRUE,j,j,NA,NA,NA,NA,6,"5,13,12,8,9,6,1,7,4,2,14,11,10,3,15"
14224,commdev-image-keyboard-response,113,405828,learnblock1,663,img/planet14_right.png,14,Community 3,NA,TRUE,j,j,NA,NA,NA,NA,6,"5,13,12,8,9,6,1,7,4,2,14,11,10,3,15"
14224,commdev-image-keyboard-response,114,407079,learnblock1,682.6999999955297,img/planet15_right.png,15,Community 3,NA,TRUE,j,j,NA,NA,NA,NA,6,"5,13,12,8,9,6,1,7,4,2,14,11,10,3,15"
14224,commdev-image-keyboard-response,115,408342,learnblock1,687.6000000014901,img/planet14_right.png,14,Community 3,NA,TRUE,j,j,NA,NA,NA,NA,6,"5,13,12,8,9,6,1,7,4,2,14,11,10,3,15"
14224,commdev-image-keyboard-response,116,409594,learnblock1,847.8999999985099,img/planet3_left.png,3,Community 3,NA,TRUE,f,f,NA,NA,NA,NA,6,"5,13,12,8,9,6,1,7,4,2,14,11,10,3,15"
14224,commdev-image-keyboard-response,117,410845,learnblock1,699.6999999955297,img/planet14_right.png,14,Community 3,NA,TRUE,j,j,NA,NA,NA,NA,6,"5,13,12,8,9,6,1,7,4,2,14,11,10,3,15"
14224,commdev-image-keyboard-response,118,412097,learnblock1,689.6000000014901,img/planet15_left.png,15,Community 3,NA,TRUE,f,f,NA,NA,NA,NA,6,"5,13,12,8,9,6,1,7,4,2,14,11,10,3,15"
14224,commdev-image-keyboard-response,119,413348,learnblock1,701.6000000014901,img/planet10_left.png,10,Community 3,NA,TRUE,f,f,NA,NA,NA,NA,6,"5,13,12,8,9,6,1,7,4,2,14,11,10,3,15"
14224,commdev-image-keyboard-response,120,414600,learnblock1,634.2999999970198,img/planet11_left.png,11,Community 3,NA,TRUE,f,f,NA,NA,NA,NA,6,"5,13,12,8,9,6,1,7,4,2,14,11,10,3,15"
14224,commdev-image-keyboard-response,121,415852,learnblock1,702.6000000014901,img/planet3_left.png,3,Community 3,NA,TRUE,f,f,NA,NA,NA,NA,6,"5,13,12,8,9,6,1,7,4,2,14,11,10,3,15"
14224,commdev-image-keyboard-response,122,417103,learnblock1,602.6999999955297,img/planet11_left.png,11,Community 3,NA,TRUE,f,f,NA,NA,NA,NA,6,"5,13,12,8,9,6,1,7,4,2,14,11,10,3,15"
14224,commdev-image-keyboard-response,123,418369,learnblock1,663.2000000029802,img/planet7_left.png,7,Community 2,NA,TRUE,f,f,NA,NA,NA,NA,6,"5,13,12,8,9,6,1,7,4,2,14,11,10,3,15"
14224,commdev-image-keyboard-response,124,419621,learnblock1,604.5999999940395,img/planet2_left.png,2,Community 2,NA,TRUE,f,f,NA,NA,NA,NA,6,"5,13,12,8,9,6,1,7,4,2,14,11,10,3,15"
14224,commdev-image-keyboard-response,125,420873,learnblock1,641.0999999940395,img/planet6_left.png,6,Community 2,NA,TRUE,f,f,NA,NA,NA,NA,6,"5,13,12,8,9,6,1,7,4,2,14,11,10,3,15"
14224,commdev-image-keyboard-response,126,422125,learnblock1,597.0999999940395,img/planet8_left.png,8,Community 1,NA,TRUE,f,f,NA,NA,NA,NA,6,"5,13,12,8,9,6,1,7,4,2,14,11,10,3,15"
14224,commdev-image-keyboard-response,127,423377,learnblock1,729,img/planet13_right.png,13,Community 1,NA,TRUE,j,j,NA,NA,NA,NA,6,"5,13,12,8,9,6,1,7,4,2,14,11,10,3,15"
14224,commdev-image-keyboard-response,128,424628,learnblock1,621.7000000029802,img/planet12_left.png,12,Community 1,NA,FALSE,j,f,NA,NA,NA,NA,6,"5,13,12,8,9,6,1,7,4,2,14,11,10,3,15"
14224,commdev-image-keyboard-response,129,425880,learnblock1,665.8999999985099,img/planet13_left.png,13,Community 1,NA,TRUE,f,f,NA,NA,NA,NA,6,"5,13,12,8,9,6,1,7,4,2,14,11,10,3,15"
14224,commdev-image-keyboard-response,130,427131,learnblock1,719,img/planet9_right.png,9,Community 1,NA,TRUE,j,j,NA,NA,NA,NA,6,"5,13,12,8,9,6,1,7,4,2,14,11,10,3,15"
14224,commdev-image-keyboard-response,131,428383,learnblock1,666.7999999970198,img/planet13_right.png,13,Community 1,NA,TRUE,j,j,NA,NA,NA,NA,6,"5,13,12,8,9,6,1,7,4,2,14,11,10,3,15"
14224,commdev-image-keyboard-response,132,429634,learnblock1,591.6999999955297,img/planet9_left.png,9,Community 1,NA,TRUE,f,f,NA,NA,NA,NA,6,"5,13,12,8,9,6,1,7,4,2,14,11,10,3,15"
14224,commdev-image-keyboard-response,133,430886,learnblock1,1115.7000000029802,img/planet13_left.png,13,Community 1,NA,TRUE,f,f,NA,NA,NA,NA,6,"5,13,12,8,9,6,1,7,4,2,14,11,10,3,15"
14224,commdev-image-keyboard-response,134,432138,learnblock1,664.3999999985099,img/planet5_right.png,5,Community 1,NA,TRUE,j,j,NA,NA,NA,NA,6,"5,13,12,8,9,6,1,7,4,2,14,11,10,3,15"
14224,commdev-image-keyboard-response,135,433390,learnblock1,580.4000000059605,img/planet9_right.png,9,Community 1,NA,TRUE,j,j,NA,NA,NA,NA,6,"5,13,12,8,9,6,1,7,4,2,14,11,10,3,15"
14224,commdev-image-keyboard-response,136,434642,learnblock1,672.3999999985099,img/planet14_left.png,14,Community 3,NA,TRUE,f,f,NA,NA,NA,NA,6,"5,13,12,8,9,6,1,7,4,2,14,11,10,3,15"
14224,commdev-image-keyboard-response,137,435893,learnblock1,820.8999999985099,img/planet15_right.png,15,Community 3,NA,TRUE,j,j,NA,NA,NA,NA,6,"5,13,12,8,9,6,1,7,4,2,14,11,10,3,15"
14224,commdev-image-keyboard-response,138,437145,learnblock1,809.8000000044703,img/planet11_right.png,11,Community 3,NA,TRUE,j,j,NA,NA,NA,NA,6,"5,13,12,8,9,6,1,7,4,2,14,11,10,3,15"
14224,commdev-image-keyboard-response,139,438396,learnblock1,829.7999999970198,img/planet3_right.png,3,Community 3,NA,TRUE,j,j,NA,NA,NA,NA,6,"5,13,12,8,9,6,1,7,4,2,14,11,10,3,15"
14224,commdev-image-keyboard-response,140,439648,learnblock1,666.1999999955297,img/planet11_left.png,11,Community 3,NA,TRUE,f,f,NA,NA,NA,NA,6,"5,13,12,8,9,6,1,7,4,2,14,11,10,3,15"
14224,commdev-image-keyboard-response,141,440900,learnblock1,654.3999999985099,img/planet7_left.png,7,Community 2,NA,TRUE,f,f,NA,NA,NA,NA,6,"5,13,12,8,9,6,1,7,4,2,14,11,10,3,15"
14224,commdev-image-keyboard-response,142,442151,learnblock1,586.6000000014901,img/planet11_left.png,11,Community 3,NA,TRUE,f,f,NA,NA,NA,NA,6,"5,13,12,8,9,6,1,7,4,2,14,11,10,3,15"
14224,commdev-image-keyboard-response,143,443414,learnblock1,823.1000000014901,img/planet7_left.png,7,Community 2,NA,FALSE,j,f,NA,NA,NA,NA,6,"5,13,12,8,9,6,1,7,4,2,14,11,10,3,15"
14224,commdev-image-keyboard-response,144,444666,learnblock1,720.6000000014901,img/planet4_right.png,4,Community 2,NA,TRUE,j,j,NA,NA,NA,NA,6,"5,13,12,8,9,6,1,7,4,2,14,11,10,3,15"
14224,commdev-image-keyboard-response,145,445917,learnblock1,821.2000000029802,img/planet1_right.png,1,Community 2,NA,TRUE,j,j,NA,NA,NA,NA,6,"5,13,12,8,9,6,1,7,4,2,14,11,10,3,15"
14224,commdev-image-keyboard-response,146,447169,learnblock1,753.1999999955297,img/planet7_right.png,7,Community 2,NA,TRUE,j,j,NA,NA,NA,NA,6,"5,13,12,8,9,6,1,7,4,2,14,11,10,3,15"
14224,commdev-image-keyboard-response,147,448421,learnblock1,749.2999999970198,img/planet11_left.png,11,Community 3,NA,TRUE,f,f,NA,NA,NA,NA,6,"5,13,12,8,9,6,1,7,4,2,14,11,10,3,15"
14224,commdev-image-keyboard-response,148,449672,learnblock1,593.7000000029802,img/planet15_right.png,15,Community 3,NA,TRUE,j,j,NA,NA,NA,NA,6,"5,13,12,8,9,6,1,7,4,2,14,11,10,3,15"
14224,commdev-image-keyboard-response,149,450924,learnblock1,526.1000000014901,img/planet10_left.png,10,Community 3,NA,TRUE,f,f,NA,NA,NA,NA,6,"5,13,12,8,9,6,1,7,4,2,14,11,10,3,15"
14224,commdev-image-keyboard-response,150,452176,learnblock1,482.29999999701977,img/planet3_right.png,3,Community 3,NA,TRUE,j,j,NA,NA,NA,NA,6,"5,13,12,8,9,6,1,7,4,2,14,11,10,3,15"
14224,commdev-image-keyboard-response,151,453442,learnblock1,390.69999999552965,img/planet15_right.png,15,Community 3,NA,FALSE,f,j,NA,NA,NA,NA,6,"5,13,12,8,9,6,1,7,4,2,14,11,10,3,15"
14224,commdev-image-keyboard-response,152,454694,learnblock1,627.9000000059605,img/planet10_right.png,10,Community 3,NA,TRUE,j,j,NA,NA,NA,NA,6,"5,13,12,8,9,6,1,7,4,2,14,11,10,3,15"
14224,commdev-image-keyboard-response,153,455945,learnblock1,752.5999999940395,img/planet11_right.png,11,Community 3,NA,FALSE,f,j,NA,NA,NA,NA,6,"5,13,12,8,9,6,1,7,4,2,14,11,10,3,15"
14224,commdev-image-keyboard-response,154,457196,learnblock1,693.2999999970198,img/planet10_right.png,10,Community 3,NA,TRUE,j,j,NA,NA,NA,NA,6,"5,13,12,8,9,6,1,7,4,2,14,11,10,3,15"
14224,commdev-image-keyboard-response,155,458448,learnblock1,634.1000000014901,img/planet15_left.png,15,Community 3,NA,TRUE,f,f,NA,NA,NA,NA,6,"5,13,12,8,9,6,1,7,4,2,14,11,10,3,15"
14224,commdev-image-keyboard-response,156,459700,learnblock1,766,img/planet10_left.png,10,Community 3,NA,FALSE,j,f,NA,NA,NA,NA,6,"5,13,12,8,9,6,1,7,4,2,14,11,10,3,15"
14224,commdev-image-keyboard-response,157,460953,learnblock1,826.3999999985099,img/planet14_left.png,14,Community 3,NA,TRUE,f,f,NA,NA,NA,NA,6,"5,13,12,8,9,6,1,7,4,2,14,11,10,3,15"
14224,commdev-image-keyboard-response,158,462204,learnblock1,701.2000000029802,img/planet15_right.png,15,Community 3,NA,TRUE,j,j,NA,NA,NA,NA,6,"5,13,12,8,9,6,1,7,4,2,14,11,10,3,15"
14224,commdev-image-keyboard-response,159,463457,learnblock1,609.6000000014901,img/planet14_left.png,14,Community 3,NA,TRUE,f,f,NA,NA,NA,NA,6,"5,13,12,8,9,6,1,7,4,2,14,11,10,3,15"
14224,commdev-image-keyboard-response,160,464710,learnblock1,549.8999999985099,img/planet10_right.png,10,Community 3,NA,TRUE,j,j,NA,NA,NA,NA,6,"5,13,12,8,9,6,1,7,4,2,14,11,10,3,15"
14224,commdev-image-keyboard-response,161,465963,learnblock1,576.5,img/planet14_left.png,14,Community 3,NA,TRUE,f,f,NA,NA,NA,NA,6,"5,13,12,8,9,6,1,7,4,2,14,11,10,3,15"
14224,commdev-image-keyboard-response,162,467214,learnblock1,515.7999999970198,img/planet9_right.png,9,Community 1,NA,TRUE,j,j,NA,NA,NA,NA,6,"5,13,12,8,9,6,1,7,4,2,14,11,10,3,15"
14224,commdev-image-keyboard-response,163,468477,learnblock1,512.6999999955297,img/planet14_left.png,14,Community 3,NA,TRUE,f,f,NA,NA,NA,NA,6,"5,13,12,8,9,6,1,7,4,2,14,11,10,3,15"
14224,commdev-image-keyboard-response,164,469729,learnblock1,513.8000000044703,img/planet9_right.png,9,Community 1,NA,TRUE,j,j,NA,NA,NA,NA,6,"5,13,12,8,9,6,1,7,4,2,14,11,10,3,15"
14224,commdev-image-keyboard-response,165,470980,learnblock1,749.7999999970198,img/planet12_right.png,12,Community 1,NA,TRUE,j,j,NA,NA,NA,NA,6,"5,13,12,8,9,6,1,7,4,2,14,11,10,3,15"
14224,commdev-image-keyboard-response,166,472236,learnblock1,1042.7000000029802,img/planet8_right.png,8,Community 1,NA,TRUE,j,j,NA,NA,NA,NA,6,"5,13,12,8,9,6,1,7,4,2,14,11,10,3,15"
14224,commdev-image-keyboard-response,167,473487,learnblock1,835.2999999970198,img/planet6_left.png,6,Community 2,NA,TRUE,f,f,NA,NA,NA,NA,6,"5,13,12,8,9,6,1,7,4,2,14,11,10,3,15"
14224,commdev-image-keyboard-response,168,474738,learnblock1,919.5,img/planet1_left.png,1,Community 2,NA,FALSE,j,f,NA,NA,NA,NA,6,"5,13,12,8,9,6,1,7,4,2,14,11,10,3,15"
14224,commdev-image-keyboard-response,169,475990,learnblock1,612.1999999955297,img/planet2_left.png,2,Community 2,NA,TRUE,f,f,NA,NA,NA,NA,6,"5,13,12,8,9,6,1,7,4,2,14,11,10,3,15"
14224,commdev-image-keyboard-response,170,477241,learnblock1,640.2999999970198,img/planet1_left.png,1,Community 2,NA,TRUE,f,f,NA,NA,NA,NA,6,"5,13,12,8,9,6,1,7,4,2,14,11,10,3,15"
14224,commdev-image-keyboard-response,171,478493,learnblock1,613.1000000014901,img/planet6_right.png,6,Community 2,NA,TRUE,j,j,NA,NA,NA,NA,6,"5,13,12,8,9,6,1,7,4,2,14,11,10,3,15"
14224,commdev-image-keyboard-response,172,479745,learnblock1,721.5,img/planet8_left.png,8,Community 1,NA,FALSE,j,f,NA,NA,NA,NA,6,"5,13,12,8,9,6,1,7,4,2,14,11,10,3,15"
14224,commdev-image-keyboard-response,173,480996,learnblock1,709.8999999985099,img/planet12_right.png,12,Community 1,NA,TRUE,j,j,NA,NA,NA,NA,6,"5,13,12,8,9,6,1,7,4,2,14,11,10,3,15"
14224,commdev-image-keyboard-response,174,482247,learnblock1,658.5,img/planet9_right.png,9,Community 1,NA,TRUE,j,j,NA,NA,NA,NA,6,"5,13,12,8,9,6,1,7,4,2,14,11,10,3,15"
14224,commdev-image-keyboard-response,175,483500,learnblock1,607.3999999985099,img/planet5_left.png,5,Community 1,NA,TRUE,f,f,NA,NA,NA,NA,6,"5,13,12,8,9,6,1,7,4,2,14,11,10,3,15"
14224,commdev-image-keyboard-response,176,484751,learnblock1,618.7000000029802,img/planet8_right.png,8,Community 1,NA,TRUE,j,j,NA,NA,NA,NA,6,"5,13,12,8,9,6,1,7,4,2,14,11,10,3,15"
14224,commdev-image-keyboard-response,177,486003,learnblock1,663.6000000014901,img/planet13_left.png,13,Community 1,NA,TRUE,f,f,NA,NA,NA,NA,6,"5,13,12,8,9,6,1,7,4,2,14,11,10,3,15"
14224,commdev-image-keyboard-response,178,487254,learnblock1,723.3999999985099,img/planet5_left.png,5,Community 1,NA,TRUE,f,f,NA,NA,NA,NA,6,"5,13,12,8,9,6,1,7,4,2,14,11,10,3,15"
14224,commdev-image-keyboard-response,179,488506,learnblock1,688.1000000014901,img/planet9_right.png,9,Community 1,NA,TRUE,j,j,NA,NA,NA,NA,6,"5,13,12,8,9,6,1,7,4,2,14,11,10,3,15"
14224,commdev-image-keyboard-response,180,489758,learnblock1,756.8999999985099,img/planet12_left.png,12,Community 1,NA,TRUE,f,f,NA,NA,NA,NA,6,"5,13,12,8,9,6,1,7,4,2,14,11,10,3,15"
14224,commdev-image-keyboard-response,181,491018,learnblock1,729,img/planet13_right.png,13,Community 1,NA,TRUE,j,j,NA,NA,NA,NA,6,"5,13,12,8,9,6,1,7,4,2,14,11,10,3,15"
14224,commdev-image-keyboard-response,182,492270,learnblock1,620.2000000029802,img/planet9_left.png,9,Community 1,NA,TRUE,f,f,NA,NA,NA,NA,6,"5,13,12,8,9,6,1,7,4,2,14,11,10,3,15"
14224,commdev-image-keyboard-response,183,493522,learnblock1,665,img/planet13_right.png,13,Community 1,NA,TRUE,j,j,NA,NA,NA,NA,6,"5,13,12,8,9,6,1,7,4,2,14,11,10,3,15"
14224,commdev-image-keyboard-response,184,494774,learnblock1,588.6000000014901,img/planet12_left.png,12,Community 1,NA,TRUE,f,f,NA,NA,NA,NA,6,"5,13,12,8,9,6,1,7,4,2,14,11,10,3,15"
14224,commdev-image-keyboard-response,185,496026,learnblock1,736.5,img/planet5_right.png,5,Community 1,NA,TRUE,j,j,NA,NA,NA,NA,6,"5,13,12,8,9,6,1,7,4,2,14,11,10,3,15"
14224,commdev-image-keyboard-response,186,497278,learnblock1,628.6000000014901,img/planet12_right.png,12,Community 1,NA,TRUE,j,j,NA,NA,NA,NA,6,"5,13,12,8,9,6,1,7,4,2,14,11,10,3,15"
14224,commdev-image-keyboard-response,187,498539,learnblock1,609.1000000014901,img/planet13_left.png,13,Community 1,NA,TRUE,f,f,NA,NA,NA,NA,6,"5,13,12,8,9,6,1,7,4,2,14,11,10,3,15"
14224,commdev-image-keyboard-response,188,499791,learnblock1,642.6999999955297,img/planet8_left.png,8,Community 1,NA,TRUE,f,f,NA,NA,NA,NA,6,"5,13,12,8,9,6,1,7,4,2,14,11,10,3,15"
14224,commdev-image-keyboard-response,189,501043,learnblock1,535.6999999955297,img/planet6_right.png,6,Community 2,NA,TRUE,j,j,NA,NA,NA,NA,6,"5,13,12,8,9,6,1,7,4,2,14,11,10,3,15"
14224,commdev-image-keyboard-response,190,502295,learnblock1,579,img/planet8_left.png,8,Community 1,NA,TRUE,f,f,NA,NA,NA,NA,6,"5,13,12,8,9,6,1,7,4,2,14,11,10,3,15"
14224,commdev-image-keyboard-response,191,503546,learnblock1,679.6000000014901,img/planet6_right.png,6,Community 2,NA,TRUE,j,j,NA,NA,NA,NA,6,"5,13,12,8,9,6,1,7,4,2,14,11,10,3,15"
14224,commdev-image-keyboard-response,192,504798,learnblock1,507.69999999552965,img/planet4_left.png,4,Community 2,NA,TRUE,f,f,NA,NA,NA,NA,6,"5,13,12,8,9,6,1,7,4,2,14,11,10,3,15"
14224,commdev-image-keyboard-response,193,506050,learnblock1,728.3999999985099,img/planet7_right.png,7,Community 2,NA,TRUE,j,j,NA,NA,NA,NA,6,"5,13,12,8,9,6,1,7,4,2,14,11,10,3,15"
14224,commdev-image-keyboard-response,194,507301,learnblock1,716.5,img/planet4_right.png,4,Community 2,NA,TRUE,j,j,NA,NA,NA,NA,6,"5,13,12,8,9,6,1,7,4,2,14,11,10,3,15"
14224,commdev-image-keyboard-response,195,508553,learnblock1,696.7999999970198,img/planet1_right.png,1,Community 2,NA,TRUE,j,j,NA,NA,NA,NA,6,"5,13,12,8,9,6,1,7,4,2,14,11,10,3,15"
14224,commdev-image-keyboard-response,196,509804,learnblock1,637.3999999985099,img/planet7_left.png,7,Community 2,NA,TRUE,f,f,NA,NA,NA,NA,6,"5,13,12,8,9,6,1,7,4,2,14,11,10,3,15"
14224,commdev-image-keyboard-response,197,511055,learnblock1,705.6000000014901,img/planet4_left.png,4,Community 2,NA,TRUE,f,f,NA,NA,NA,NA,6,"5,13,12,8,9,6,1,7,4,2,14,11,10,3,15"
14224,commdev-image-keyboard-response,198,512307,learnblock1,606.8999999985099,img/planet1_left.png,1,Community 2,NA,TRUE,f,f,NA,NA,NA,NA,6,"5,13,12,8,9,6,1,7,4,2,14,11,10,3,15"
14224,commdev-image-keyboard-response,199,513559,learnblock1,468.1000000014901,img/planet2_right.png,2,Community 2,NA,TRUE,j,j,NA,NA,NA,NA,6,"5,13,12,8,9,6,1,7,4,2,14,11,10,3,15"
14224,commdev-image-keyboard-response,200,514811,learnblock1,559.1000000014901,img/planet7_left.png,7,Community 2,NA,TRUE,f,f,NA,NA,NA,NA,6,"5,13,12,8,9,6,1,7,4,2,14,11,10,3,15"
14224,commdev-image-keyboard-response,201,516063,learnblock1,523.1000000014901,img/planet11_left.png,11,Community 3,NA,TRUE,f,f,NA,NA,NA,NA,6,"5,13,12,8,9,6,1,7,4,2,14,11,10,3,15"
14224,commdev-image-keyboard-response,202,517314,learnblock1,647.2999999970198,img/planet10_right.png,10,Community 3,NA,TRUE,j,j,NA,NA,NA,NA,6,"5,13,12,8,9,6,1,7,4,2,14,11,10,3,15"
14224,commdev-image-keyboard-response,203,518566,learnblock1,899.6000000014901,img/planet14_right.png,14,Community 3,NA,TRUE,j,j,NA,NA,NA,NA,6,"5,13,12,8,9,6,1,7,4,2,14,11,10,3,15"
14224,commdev-image-keyboard-response,204,519818,learnblock1,727.7999999970198,img/planet10_right.png,10,Community 3,NA,TRUE,j,j,NA,NA,NA,NA,6,"5,13,12,8,9,6,1,7,4,2,14,11,10,3,15"
14224,commdev-image-keyboard-response,205,521069,learnblock1,829,img/planet3_left.png,3,Community 3,NA,TRUE,f,f,NA,NA,NA,NA,6,"5,13,12,8,9,6,1,7,4,2,14,11,10,3,15"
14224,commdev-image-keyboard-response,206,522322,learnblock1,880.8999999985099,img/planet10_right.png,10,Community 3,NA,FALSE,f,j,NA,NA,NA,NA,6,"5,13,12,8,9,6,1,7,4,2,14,11,10,3,15"
14224,commdev-image-keyboard-response,207,523574,learnblock1,763.3000000044703,img/planet11_right.png,11,Community 3,NA,TRUE,j,j,NA,NA,NA,NA,6,"5,13,12,8,9,6,1,7,4,2,14,11,10,3,15"
14224,commdev-image-keyboard-response,208,524825,learnblock1,1208.6000000014901,img/planet7_left.png,7,Community 2,NA,TRUE,f,f,NA,NA,NA,NA,6,"5,13,12,8,9,6,1,7,4,2,14,11,10,3,15"
14224,commdev-image-keyboard-response,209,526077,learnblock1,852.2000000029802,img/planet4_right.png,4,Community 2,NA,FALSE,f,j,NA,NA,NA,NA,6,"5,13,12,8,9,6,1,7,4,2,14,11,10,3,15"
14224,commdev-image-keyboard-response,210,527336,learnblock1,745,img/planet1_left.png,1,Community 2,NA,FALSE,j,f,NA,NA,NA,NA,6,"5,13,12,8,9,6,1,7,4,2,14,11,10,3,15"
14224,commdev-image-keyboard-response,211,528587,learnblock1,46.399999998509884,img/planet6_right.png,6,Community 2,NA,FALSE,f,j,NA,NA,NA,NA,6,"5,13,12,8,9,6,1,7,4,2,14,11,10,3,15"
14224,commdev-image-keyboard-response,212,529839,learnblock1,602.7999999970198,img/planet1_left.png,1,Community 2,NA,TRUE,f,f,NA,NA,NA,NA,6,"5,13,12,8,9,6,1,7,4,2,14,11,10,3,15"
14224,commdev-image-keyboard-response,213,531091,learnblock1,614.8999999985099,img/planet2_right.png,2,Community 2,NA,TRUE,j,j,NA,NA,NA,NA,6,"5,13,12,8,9,6,1,7,4,2,14,11,10,3,15"
14224,commdev-image-keyboard-response,214,532342,learnblock1,747.6000000014901,img/planet6_left.png,6,Community 2,NA,TRUE,f,f,NA,NA,NA,NA,6,"5,13,12,8,9,6,1,7,4,2,14,11,10,3,15"
14224,commdev-image-keyboard-response,215,533594,learnblock1,735.6000000014901,img/planet2_right.png,2,Community 2,NA,TRUE,j,j,NA,NA,NA,NA,6,"5,13,12,8,9,6,1,7,4,2,14,11,10,3,15"
14224,commdev-image-keyboard-response,216,534845,learnblock1,572.3999999985099,img/planet1_left.png,1,Community 2,NA,TRUE,f,f,NA,NA,NA,NA,6,"5,13,12,8,9,6,1,7,4,2,14,11,10,3,15"
14224,commdev-image-keyboard-response,217,536097,learnblock1,576.7999999970198,img/planet2_right.png,2,Community 2,NA,TRUE,j,j,NA,NA,NA,NA,6,"5,13,12,8,9,6,1,7,4,2,14,11,10,3,15"
14224,commdev-image-keyboard-response,218,537349,learnblock1,677.2000000029802,img/planet1_right.png,1,Community 2,NA,TRUE,j,j,NA,NA,NA,NA,6,"5,13,12,8,9,6,1,7,4,2,14,11,10,3,15"
14224,commdev-image-keyboard-response,219,538601,learnblock1,665.2000000029802,img/planet4_right.png,4,Community 2,NA,TRUE,j,j,NA,NA,NA,NA,6,"5,13,12,8,9,6,1,7,4,2,14,11,10,3,15"
14224,commdev-image-keyboard-response,220,539853,learnblock1,709.1999999955297,img/planet6_left.png,6,Community 2,NA,TRUE,f,f,NA,NA,NA,NA,6,"5,13,12,8,9,6,1,7,4,2,14,11,10,3,15"
14224,commdev-image-keyboard-response,221,541104,learnblock1,737.2999999970198,img/planet2_left.png,2,Community 2,NA,TRUE,f,f,NA,NA,NA,NA,6,"5,13,12,8,9,6,1,7,4,2,14,11,10,3,15"
14224,commdev-image-keyboard-response,222,542359,learnblock1,670.1000000014901,img/planet7_left.png,7,Community 2,NA,TRUE,f,f,NA,NA,NA,NA,6,"5,13,12,8,9,6,1,7,4,2,14,11,10,3,15"
14224,commdev-image-keyboard-response,223,543611,learnblock1,703,img/planet4_right.png,4,Community 2,NA,TRUE,j,j,NA,NA,NA,NA,6,"5,13,12,8,9,6,1,7,4,2,14,11,10,3,15"
14224,commdev-image-keyboard-response,224,544862,learnblock1,843.1000000014901,img/planet2_right.png,2,Community 2,NA,TRUE,j,j,NA,NA,NA,NA,6,"5,13,12,8,9,6,1,7,4,2,14,11,10,3,15"
14224,commdev-image-keyboard-response,225,546114,learnblock1,767.5,img/planet6_right.png,6,Community 2,NA,TRUE,j,j,NA,NA,NA,NA,6,"5,13,12,8,9,6,1,7,4,2,14,11,10,3,15"
14224,commdev-image-keyboard-response,226,547366,learnblock1,739.7000000029802,img/planet2_right.png,2,Community 2,NA,TRUE,j,j,NA,NA,NA,NA,6,"5,13,12,8,9,6,1,7,4,2,14,11,10,3,15"
14224,commdev-image-keyboard-response,227,548617,learnblock1,784.6000000014901,img/planet7_left.png,7,Community 2,NA,FALSE,j,f,NA,NA,NA,NA,6,"5,13,12,8,9,6,1,7,4,2,14,11,10,3,15"
14224,commdev-image-keyboard-response,228,549869,learnblock1,100.79999999701977,img/planet1_left.png,1,Community 2,NA,TRUE,f,f,NA,NA,NA,NA,6,"5,13,12,8,9,6,1,7,4,2,14,11,10,3,15"
14224,commdev-image-keyboard-response,229,551121,learnblock1,600.7999999970198,img/planet2_left.png,2,Community 2,NA,TRUE,f,f,NA,NA,NA,NA,6,"5,13,12,8,9,6,1,7,4,2,14,11,10,3,15"
14224,commdev-image-keyboard-response,230,552372,learnblock1,533.3999999985099,img/planet1_left.png,1,Community 2,NA,TRUE,f,f,NA,NA,NA,NA,6,"5,13,12,8,9,6,1,7,4,2,14,11,10,3,15"
14224,commdev-image-keyboard-response,231,553624,learnblock1,650.2000000029802,img/planet7_left.png,7,Community 2,NA,TRUE,f,f,NA,NA,NA,NA,6,"5,13,12,8,9,6,1,7,4,2,14,11,10,3,15"
14224,commdev-image-keyboard-response,232,554877,learnblock1,637.8000000044703,img/planet1_right.png,1,Community 2,NA,TRUE,j,j,NA,NA,NA,NA,6,"5,13,12,8,9,6,1,7,4,2,14,11,10,3,15"
14224,commdev-image-keyboard-response,233,556129,learnblock1,697.5,img/planet7_right.png,7,Community 2,NA,TRUE,j,j,NA,NA,NA,NA,6,"5,13,12,8,9,6,1,7,4,2,14,11,10,3,15"
14224,commdev-image-keyboard-response,234,557391,learnblock1,637,img/planet2_left.png,2,Community 2,NA,TRUE,f,f,NA,NA,NA,NA,6,"5,13,12,8,9,6,1,7,4,2,14,11,10,3,15"
14224,commdev-image-keyboard-response,235,558643,learnblock1,807.5,img/planet6_right.png,6,Community 2,NA,TRUE,j,j,NA,NA,NA,NA,6,"5,13,12,8,9,6,1,7,4,2,14,11,10,3,15"
14224,commdev-image-keyboard-response,236,559895,learnblock1,1027.5,img/planet4_right.png,4,Community 2,NA,TRUE,j,j,NA,NA,NA,NA,6,"5,13,12,8,9,6,1,7,4,2,14,11,10,3,15"
14224,commdev-image-keyboard-response,237,561146,learnblock1,559.3000000044703,img/planet2_left.png,2,Community 2,NA,TRUE,f,f,NA,NA,NA,NA,6,"5,13,12,8,9,6,1,7,4,2,14,11,10,3,15"
14224,commdev-image-keyboard-response,238,562398,learnblock1,884.1999999955297,img/planet6_left.png,6,Community 2,NA,TRUE,f,f,NA,NA,NA,NA,6,"5,13,12,8,9,6,1,7,4,2,14,11,10,3,15"
14224,commdev-image-keyboard-response,239,563650,learnblock1,832.2999999970198,img/planet2_right.png,2,Community 2,NA,TRUE,j,j,NA,NA,NA,NA,6,"5,13,12,8,9,6,1,7,4,2,14,11,10,3,15"
14224,commdev-image-keyboard-response,240,564902,learnblock1,811.3999999985099,img/planet4_right.png,4,Community 2,NA,TRUE,j,j,NA,NA,NA,NA,6,"5,13,12,8,9,6,1,7,4,2,14,11,10,3,15"
14224,commdev-image-keyboard-response,241,566154,learnblock1,728.7000000029802,img/planet1_left.png,1,Community 2,NA,TRUE,f,f,NA,NA,NA,NA,6,"5,13,12,8,9,6,1,7,4,2,14,11,10,3,15"
14224,commdev-image-keyboard-response,242,567406,learnblock1,740.7999999970198,img/planet7_right.png,7,Community 2,NA,TRUE,j,j,NA,NA,NA,NA,6,"5,13,12,8,9,6,1,7,4,2,14,11,10,3,15"
14224,commdev-image-keyboard-response,243,568657,learnblock1,769.1000000014901,img/planet11_right.png,11,Community 3,NA,TRUE,j,j,NA,NA,NA,NA,6,"5,13,12,8,9,6,1,7,4,2,14,11,10,3,15"
14224,commdev-image-keyboard-response,244,569909,learnblock1,813.5,img/planet15_right.png,15,Community 3,NA,TRUE,j,j,NA,NA,NA,NA,6,"5,13,12,8,9,6,1,7,4,2,14,11,10,3,15"
14224,commdev-image-keyboard-response,245,571160,learnblock1,849.2999999970198,img/planet3_right.png,3,Community 3,NA,TRUE,j,j,NA,NA,NA,NA,6,"5,13,12,8,9,6,1,7,4,2,14,11,10,3,15"
14224,commdev-image-keyboard-response,246,572412,learnblock1,766.3000000044703,img/planet10_right.png,10,Community 3,NA,TRUE,j,j,NA,NA,NA,NA,6,"5,13,12,8,9,6,1,7,4,2,14,11,10,3,15"
14224,commdev-image-keyboard-response,247,573663,learnblock1,698.6000000014901,img/planet15_left.png,15,Community 3,NA,FALSE,j,f,NA,NA,NA,NA,6,"5,13,12,8,9,6,1,7,4,2,14,11,10,3,15"
14224,commdev-image-keyboard-response,248,574915,learnblock1,623.2000000029802,img/planet11_left.png,11,Community 3,NA,FALSE,j,f,NA,NA,NA,NA,6,"5,13,12,8,9,6,1,7,4,2,14,11,10,3,15"
14224,commdev-image-keyboard-response,249,576167,learnblock1,595.3999999985099,img/planet15_left.png,15,Community 3,NA,FALSE,j,f,NA,NA,NA,NA,6,"5,13,12,8,9,6,1,7,4,2,14,11,10,3,15"
14224,commdev-image-keyboard-response,250,577431,learnblock1,639.6000000014901,img/planet11_left.png,11,Community 3,NA,FALSE,j,f,NA,NA,NA,NA,6,"5,13,12,8,9,6,1,7,4,2,14,11,10,3,15"
14224,commdev-image-keyboard-response,251,578683,learnblock1,551.5,img/planet3_right.png,3,Community 3,NA,TRUE,j,j,NA,NA,NA,NA,6,"5,13,12,8,9,6,1,7,4,2,14,11,10,3,15"
14224,commdev-image-keyboard-response,252,579935,learnblock1,612.2000000029802,img/planet15_left.png,15,Community 3,NA,TRUE,f,f,NA,NA,NA,NA,6,"5,13,12,8,9,6,1,7,4,2,14,11,10,3,15"
14224,commdev-image-keyboard-response,253,581189,learnblock1,623.5,img/planet3_left.png,3,Community 3,NA,FALSE,j,f,NA,NA,NA,NA,6,"5,13,12,8,9,6,1,7,4,2,14,11,10,3,15"
14224,commdev-image-keyboard-response,254,582442,learnblock1,89.10000000149012,img/planet10_left.png,10,Community 3,NA,TRUE,f,f,NA,NA,NA,NA,6,"5,13,12,8,9,6,1,7,4,2,14,11,10,3,15"
14224,commdev-image-keyboard-response,255,583693,learnblock1,28.899999998509884,img/planet15_right.png,15,Community 3,NA,FALSE,f,j,NA,NA,NA,NA,6,"5,13,12,8,9,6,1,7,4,2,14,11,10,3,15"
14224,commdev-image-keyboard-response,256,584945,learnblock1,825.3999999985099,img/planet3_left.png,3,Community 3,NA,TRUE,f,f,NA,NA,NA,NA,6,"5,13,12,8,9,6,1,7,4,2,14,11,10,3,15"
14224,commdev-image-keyboard-response,257,586197,learnblock1,717.6999999955297,img/planet14_left.png,14,Community 3,NA,TRUE,f,f,NA,NA,NA,NA,6,"5,13,12,8,9,6,1,7,4,2,14,11,10,3,15"
14224,commdev-image-keyboard-response,258,587449,learnblock1,681.3999999985099,img/planet10_right.png,10,Community 3,NA,TRUE,j,j,NA,NA,NA,NA,6,"5,13,12,8,9,6,1,7,4,2,14,11,10,3,15"
14224,commdev-image-keyboard-response,259,588700,learnblock1,661.6999999955297,img/planet11_right.png,11,Community 3,NA,TRUE,j,j,NA,NA,NA,NA,6,"5,13,12,8,9,6,1,7,4,2,14,11,10,3,15"
14224,commdev-image-keyboard-response,260,589952,learnblock1,714.6000000014901,img/planet3_left.png,3,Community 3,NA,TRUE,f,f,NA,NA,NA,NA,6,"5,13,12,8,9,6,1,7,4,2,14,11,10,3,15"
14224,commdev-image-keyboard-response,261,591204,learnblock1,566.2999999970198,img/planet10_left.png,10,Community 3,NA,TRUE,f,f,NA,NA,NA,NA,6,"5,13,12,8,9,6,1,7,4,2,14,11,10,3,15"
14224,commdev-image-keyboard-response,262,592456,learnblock1,682.3000000044703,img/planet3_left.png,3,Community 3,NA,TRUE,f,f,NA,NA,NA,NA,6,"5,13,12,8,9,6,1,7,4,2,14,11,10,3,15"
14224,commdev-image-keyboard-response,263,593707,learnblock1,775.1000000014901,img/planet11_right.png,11,Community 3,NA,TRUE,j,j,NA,NA,NA,NA,6,"5,13,12,8,9,6,1,7,4,2,14,11,10,3,15"
14224,commdev-image-keyboard-response,264,594958,learnblock1,1051.2999999970198,img/planet15_right.png,15,Community 3,NA,TRUE,j,j,NA,NA,NA,NA,6,"5,13,12,8,9,6,1,7,4,2,14,11,10,3,15"
14224,commdev-image-keyboard-response,265,596210,learnblock1,null,img/planet3_left.png,3,Community 3,NA,FALSE,null,f,NA,NA,NA,NA,6,"5,13,12,8,9,6,1,7,4,2,14,11,10,3,15"
14224,commdev-image-keyboard-response,266,597462,learnblock1,149.10000000149012,img/planet10_right.png,10,Community 3,NA,FALSE,f,j,NA,NA,NA,NA,6,"5,13,12,8,9,6,1,7,4,2,14,11,10,3,15"
14224,commdev-image-keyboard-response,267,598714,learnblock1,680.2999999970198,img/planet15_right.png,15,Community 3,NA,TRUE,j,j,NA,NA,NA,NA,6,"5,13,12,8,9,6,1,7,4,2,14,11,10,3,15"
14224,commdev-image-keyboard-response,268,599965,learnblock1,724.6999999955297,img/planet3_right.png,3,Community 3,NA,TRUE,j,j,NA,NA,NA,NA,6,"5,13,12,8,9,6,1,7,4,2,14,11,10,3,15"
14224,commdev-image-keyboard-response,269,601217,learnblock1,705.1000000014901,img/planet15_right.png,15,Community 3,NA,TRUE,j,j,NA,NA,NA,NA,6,"5,13,12,8,9,6,1,7,4,2,14,11,10,3,15"
14224,commdev-image-keyboard-response,270,602469,learnblock1,549.1999999955297,img/planet10_right.png,10,Community 3,NA,TRUE,j,j,NA,NA,NA,NA,6,"5,13,12,8,9,6,1,7,4,2,14,11,10,3,15"
14224,commdev-image-keyboard-response,271,603721,learnblock1,1073.1000000014901,img/planet15_right.png,15,Community 3,NA,TRUE,j,j,NA,NA,NA,NA,6,"5,13,12,8,9,6,1,7,4,2,14,11,10,3,15"
14224,commdev-image-keyboard-response,272,604973,learnblock1,765.5,img/planet14_right.png,14,Community 3,NA,TRUE,j,j,NA,NA,NA,NA,6,"5,13,12,8,9,6,1,7,4,2,14,11,10,3,15"
14224,commdev-image-keyboard-response,273,606225,learnblock1,777.5,img/planet10_left.png,10,Community 3,NA,TRUE,f,f,NA,NA,NA,NA,6,"5,13,12,8,9,6,1,7,4,2,14,11,10,3,15"
14224,commdev-image-keyboard-response,274,607477,learnblock1,597.8999999985099,img/planet11_left.png,11,Community 3,NA,TRUE,f,f,NA,NA,NA,NA,6,"5,13,12,8,9,6,1,7,4,2,14,11,10,3,15"
14224,commdev-image-keyboard-response,275,608744,learnblock1,601.2000000029802,img/planet10_right.png,10,Community 3,NA,FALSE,f,j,NA,NA,NA,NA,6,"5,13,12,8,9,6,1,7,4,2,14,11,10,3,15"
14224,commdev-image-keyboard-response,276,609995,learnblock1,695.2000000029802,img/planet11_right.png,11,Community 3,NA,TRUE,j,j,NA,NA,NA,NA,6,"5,13,12,8,9,6,1,7,4,2,14,11,10,3,15"
14224,commdev-image-keyboard-response,277,611259,learnblock1,731.6000000014901,img/planet10_right.png,10,Community 3,NA,TRUE,j,j,NA,NA,NA,NA,6,"5,13,12,8,9,6,1,7,4,2,14,11,10,3,15"
14224,commdev-image-keyboard-response,278,612511,learnblock1,611.8999999985099,img/planet3_right.png,3,Community 3,NA,TRUE,j,j,NA,NA,NA,NA,6,"5,13,12,8,9,6,1,7,4,2,14,11,10,3,15"
14224,commdev-image-keyboard-response,279,613763,learnblock1,519.3999999985099,img/planet14_left.png,14,Community 3,NA,TRUE,f,f,NA,NA,NA,NA,6,"5,13,12,8,9,6,1,7,4,2,14,11,10,3,15"
14224,commdev-image-keyboard-response,280,615015,learnblock1,523.3999999985099,img/planet10_left.png,10,Community 3,NA,TRUE,f,f,NA,NA,NA,NA,6,"5,13,12,8,9,6,1,7,4,2,14,11,10,3,15"
14224,commdev-image-keyboard-response,281,616267,learnblock1,583.7000000029802,img/planet14_left.png,14,Community 3,NA,TRUE,f,f,NA,NA,NA,NA,6,"5,13,12,8,9,6,1,7,4,2,14,11,10,3,15"
14224,commdev-image-keyboard-response,282,617518,learnblock1,691.7999999970198,img/planet3_left.png,3,Community 3,NA,TRUE,f,f,NA,NA,NA,NA,6,"5,13,12,8,9,6,1,7,4,2,14,11,10,3,15"
14224,commdev-image-keyboard-response,283,618771,learnblock1,784.1000000014901,img/planet14_left.png,14,Community 3,NA,TRUE,f,f,NA,NA,NA,NA,6,"5,13,12,8,9,6,1,7,4,2,14,11,10,3,15"
14224,commdev-image-keyboard-response,284,620023,learnblock1,779.5,img/planet3_left.png,3,Community 3,NA,TRUE,f,f,NA,NA,NA,NA,6,"5,13,12,8,9,6,1,7,4,2,14,11,10,3,15"
14224,commdev-image-keyboard-response,285,621274,learnblock1,687.5,img/planet11_left.png,11,Community 3,NA,TRUE,f,f,NA,NA,NA,NA,6,"5,13,12,8,9,6,1,7,4,2,14,11,10,3,15"
14224,commdev-image-keyboard-response,286,622526,learnblock1,692.4000000059605,img/planet7_right.png,7,Community 2,NA,TRUE,j,j,NA,NA,NA,NA,6,"5,13,12,8,9,6,1,7,4,2,14,11,10,3,15"
14224,commdev-image-keyboard-response,287,623777,learnblock1,608.9000000059605,img/planet2_left.png,2,Community 2,NA,TRUE,f,f,NA,NA,NA,NA,6,"5,13,12,8,9,6,1,7,4,2,14,11,10,3,15"
14224,commdev-image-keyboard-response,288,625029,learnblock1,757.3999999985099,img/planet6_right.png,6,Community 2,NA,TRUE,j,j,NA,NA,NA,NA,6,"5,13,12,8,9,6,1,7,4,2,14,11,10,3,15"
14224,commdev-image-keyboard-response,289,626281,learnblock1,913.2000000029802,img/planet4_right.png,4,Community 2,NA,TRUE,j,j,NA,NA,NA,NA,6,"5,13,12,8,9,6,1,7,4,2,14,11,10,3,15"
14224,commdev-image-keyboard-response,290,627533,learnblock1,821.7999999970198,img/planet6_right.png,6,Community 2,NA,TRUE,j,j,NA,NA,NA,NA,6,"5,13,12,8,9,6,1,7,4,2,14,11,10,3,15"
14224,commdev-image-keyboard-response,291,628784,learnblock1,937.7999999970198,img/planet1_right.png,1,Community 2,NA,TRUE,j,j,NA,NA,NA,NA,6,"5,13,12,8,9,6,1,7,4,2,14,11,10,3,15"
14224,commdev-image-keyboard-response,292,630037,learnblock1,718.2000000029802,img/planet2_right.png,2,Community 2,NA,TRUE,j,j,NA,NA,NA,NA,6,"5,13,12,8,9,6,1,7,4,2,14,11,10,3,15"
14224,commdev-image-keyboard-response,293,631288,learnblock1,809.7999999970198,img/planet6_left.png,6,Community 2,NA,TRUE,f,f,NA,NA,NA,NA,6,"5,13,12,8,9,6,1,7,4,2,14,11,10,3,15"
14224,commdev-image-keyboard-response,294,632539,learnblock1,718.6000000014901,img/planet2_right.png,2,Community 2,NA,TRUE,j,j,NA,NA,NA,NA,6,"5,13,12,8,9,6,1,7,4,2,14,11,10,3,15"
14224,commdev-image-keyboard-response,295,633792,learnblock1,643.3000000044703,img/planet4_right.png,4,Community 2,NA,TRUE,j,j,NA,NA,NA,NA,6,"5,13,12,8,9,6,1,7,4,2,14,11,10,3,15"
14224,commdev-image-keyboard-response,296,635043,learnblock1,726.5,img/planet7_right.png,7,Community 2,NA,TRUE,j,j,NA,NA,NA,NA,6,"5,13,12,8,9,6,1,7,4,2,14,11,10,3,15"
14224,commdev-image-keyboard-response,297,636295,learnblock1,803.3000000044703,img/planet1_left.png,1,Community 2,NA,TRUE,f,f,NA,NA,NA,NA,6,"5,13,12,8,9,6,1,7,4,2,14,11,10,3,15"
14224,commdev-image-keyboard-response,298,637547,learnblock1,695.8000000044703,img/planet7_right.png,7,Community 2,NA,TRUE,j,j,NA,NA,NA,NA,6,"5,13,12,8,9,6,1,7,4,2,14,11,10,3,15"
14224,commdev-image-keyboard-response,299,638800,learnblock1,683.5,img/planet4_right.png,4,Community 2,NA,TRUE,j,j,NA,NA,NA,NA,6,"5,13,12,8,9,6,1,7,4,2,14,11,10,3,15"
14224,commdev-image-keyboard-response,300,640064,learnblock1,726.8000000044703,img/planet7_right.png,7,Community 2,NA,TRUE,j,j,NA,NA,NA,NA,6,"5,13,12,8,9,6,1,7,4,2,14,11,10,3,15"
14224,commdev-image-keyboard-response,301,641316,learnblock1,686.3999999985099,img/planet2_right.png,2,Community 2,NA,TRUE,j,j,NA,NA,NA,NA,6,"5,13,12,8,9,6,1,7,4,2,14,11,10,3,15"
14224,commdev-image-keyboard-response,302,642567,learnblock1,578.7000000029802,img/planet7_right.png,7,Community 2,NA,TRUE,j,j,NA,NA,NA,NA,6,"5,13,12,8,9,6,1,7,4,2,14,11,10,3,15"
14224,commdev-image-keyboard-response,303,643819,learnblock1,567.3000000044703,img/planet2_left.png,2,Community 2,NA,FALSE,j,f,NA,NA,NA,NA,6,"5,13,12,8,9,6,1,7,4,2,14,11,10,3,15"
14224,commdev-image-keyboard-response,304,645071,learnblock1,667.2000000029802,img/planet1_left.png,1,Community 2,NA,TRUE,f,f,NA,NA,NA,NA,6,"5,13,12,8,9,6,1,7,4,2,14,11,10,3,15"
14224,commdev-image-keyboard-response,305,646331,learnblock1,615.6000000014901,img/planet2_left.png,2,Community 2,NA,TRUE,f,f,NA,NA,NA,NA,6,"5,13,12,8,9,6,1,7,4,2,14,11,10,3,15"
14224,commdev-image-keyboard-response,306,647582,learnblock1,891.6000000014901,img/planet7_left.png,7,Community 2,NA,TRUE,f,f,NA,NA,NA,NA,6,"5,13,12,8,9,6,1,7,4,2,14,11,10,3,15"
14224,commdev-image-keyboard-response,307,648833,learnblock1,856.5999999940395,img/planet2_right.png,2,Community 2,NA,TRUE,j,j,NA,NA,NA,NA,6,"5,13,12,8,9,6,1,7,4,2,14,11,10,3,15"
14224,commdev-image-keyboard-response,308,650084,learnblock1,653.3000000044703,img/planet4_left.png,4,Community 2,NA,TRUE,f,f,NA,NA,NA,NA,6,"5,13,12,8,9,6,1,7,4,2,14,11,10,3,15"
14224,commdev-image-keyboard-response,309,651336,learnblock1,945.8999999985099,img/planet7_left.png,7,Community 2,NA,TRUE,f,f,NA,NA,NA,NA,6,"5,13,12,8,9,6,1,7,4,2,14,11,10,3,15"
14224,commdev-image-keyboard-response,310,652588,learnblock1,838.7000000029802,img/planet11_left.png,11,Community 3,NA,TRUE,f,f,NA,NA,NA,NA,6,"5,13,12,8,9,6,1,7,4,2,14,11,10,3,15"
14224,commdev-image-keyboard-response,311,653840,learnblock1,953.7999999970198,img/planet7_left.png,7,Community 2,NA,TRUE,f,f,NA,NA,NA,NA,6,"5,13,12,8,9,6,1,7,4,2,14,11,10,3,15"
14224,commdev-image-keyboard-response,312,655092,learnblock1,806.8000000044703,img/planet4_right.png,4,Community 2,NA,TRUE,j,j,NA,NA,NA,NA,6,"5,13,12,8,9,6,1,7,4,2,14,11,10,3,15"
14224,commdev-image-keyboard-response,313,656344,learnblock1,723,img/planet1_right.png,1,Community 2,NA,TRUE,j,j,NA,NA,NA,NA,6,"5,13,12,8,9,6,1,7,4,2,14,11,10,3,15"
14224,commdev-image-keyboard-response,314,657595,learnblock1,750.8999999985099,img/planet2_right.png,2,Community 2,NA,TRUE,j,j,NA,NA,NA,NA,6,"5,13,12,8,9,6,1,7,4,2,14,11,10,3,15"
14224,commdev-image-keyboard-response,315,658847,learnblock1,883.3999999985099,img/planet1_right.png,1,Community 2,NA,TRUE,j,j,NA,NA,NA,NA,6,"5,13,12,8,9,6,1,7,4,2,14,11,10,3,15"
14224,commdev-image-keyboard-response,316,660099,learnblock1,775.8000000044703,img/planet6_right.png,6,Community 2,NA,TRUE,j,j,NA,NA,NA,NA,6,"5,13,12,8,9,6,1,7,4,2,14,11,10,3,15"
14224,commdev-image-keyboard-response,317,661352,learnblock1,683.2000000029802,img/planet4_right.png,4,Community 2,NA,TRUE,j,j,NA,NA,NA,NA,6,"5,13,12,8,9,6,1,7,4,2,14,11,10,3,15"
14224,commdev-image-keyboard-response,318,662603,learnblock1,758.8999999985099,img/planet2_left.png,2,Community 2,NA,TRUE,f,f,NA,NA,NA,NA,6,"5,13,12,8,9,6,1,7,4,2,14,11,10,3,15"
14224,commdev-image-keyboard-response,319,663855,learnblock1,627.3999999985099,img/planet4_left.png,4,Community 2,NA,TRUE,f,f,NA,NA,NA,NA,6,"5,13,12,8,9,6,1,7,4,2,14,11,10,3,15"
14224,commdev-image-keyboard-response,320,665107,learnblock1,543.2999999970198,img/planet2_left.png,2,Community 2,NA,TRUE,f,f,NA,NA,NA,NA,6,"5,13,12,8,9,6,1,7,4,2,14,11,10,3,15"
14224,commdev-image-keyboard-response,321,666359,learnblock1,779.9000000059605,img/planet7_right.png,7,Community 2,NA,TRUE,j,j,NA,NA,NA,NA,6,"5,13,12,8,9,6,1,7,4,2,14,11,10,3,15"
14224,commdev-image-keyboard-response,322,667611,learnblock1,743.7000000029802,img/planet1_left.png,1,Community 2,NA,TRUE,f,f,NA,NA,NA,NA,6,"5,13,12,8,9,6,1,7,4,2,14,11,10,3,15"
14224,commdev-image-keyboard-response,323,668864,learnblock1,747.3000000044703,img/planet7_left.png,7,Community 2,NA,TRUE,f,f,NA,NA,NA,NA,6,"5,13,12,8,9,6,1,7,4,2,14,11,10,3,15"
14224,commdev-image-keyboard-response,324,670115,learnblock1,823.2999999970198,img/planet4_left.png,4,Community 2,NA,TRUE,f,f,NA,NA,NA,NA,6,"5,13,12,8,9,6,1,7,4,2,14,11,10,3,15"
14224,commdev-image-keyboard-response,325,671367,learnblock1,618.8999999985099,img/planet1_right.png,1,Community 2,NA,TRUE,j,j,NA,NA,NA,NA,6,"5,13,12,8,9,6,1,7,4,2,14,11,10,3,15"
14224,commdev-image-keyboard-response,326,672619,learnblock1,616,img/planet4_left.png,4,Community 2,NA,TRUE,f,f,NA,NA,NA,NA,6,"5,13,12,8,9,6,1,7,4,2,14,11,10,3,15"
14224,commdev-image-keyboard-response,327,673872,learnblock1,715.5,img/planet7_right.png,7,Community 2,NA,TRUE,j,j,NA,NA,NA,NA,6,"5,13,12,8,9,6,1,7,4,2,14,11,10,3,15"
14224,commdev-image-keyboard-response,328,675123,learnblock1,718.7000000029802,img/planet4_right.png,4,Community 2,NA,TRUE,j,j,NA,NA,NA,NA,6,"5,13,12,8,9,6,1,7,4,2,14,11,10,3,15"
14224,commdev-image-keyboard-response,329,676375,learnblock1,715.1999999955297,img/planet7_right.png,7,Community 2,NA,TRUE,j,j,NA,NA,NA,NA,6,"5,13,12,8,9,6,1,7,4,2,14,11,10,3,15"
14224,commdev-image-keyboard-response,330,677627,learnblock1,655.5,img/planet1_left.png,1,Community 2,NA,TRUE,f,f,NA,NA,NA,NA,6,"5,13,12,8,9,6,1,7,4,2,14,11,10,3,15"
14224,commdev-image-keyboard-response,331,678879,learnblock1,691.8000000044703,img/planet4_left.png,4,Community 2,NA,TRUE,f,f,NA,NA,NA,NA,6,"5,13,12,8,9,6,1,7,4,2,14,11,10,3,15"
14224,commdev-image-keyboard-response,332,680130,learnblock1,639.6999999955297,img/planet2_left.png,2,Community 2,NA,TRUE,f,f,NA,NA,NA,NA,6,"5,13,12,8,9,6,1,7,4,2,14,11,10,3,15"
14224,commdev-image-keyboard-response,333,681381,learnblock1,676.2000000029802,img/planet6_left.png,6,Community 2,NA,TRUE,f,f,NA,NA,NA,NA,6,"5,13,12,8,9,6,1,7,4,2,14,11,10,3,15"
14224,commdev-image-keyboard-response,334,682633,learnblock1,785.3999999985099,img/planet1_right.png,1,Community 2,NA,TRUE,j,j,NA,NA,NA,NA,6,"5,13,12,8,9,6,1,7,4,2,14,11,10,3,15"
14224,commdev-image-keyboard-response,335,683885,learnblock1,613.5,img/planet4_left.png,4,Community 2,NA,TRUE,f,f,NA,NA,NA,NA,6,"5,13,12,8,9,6,1,7,4,2,14,11,10,3,15"
14224,commdev-image-keyboard-response,336,685137,learnblock1,825.1000000014901,img/planet6_left.png,6,Community 2,NA,TRUE,f,f,NA,NA,NA,NA,6,"5,13,12,8,9,6,1,7,4,2,14,11,10,3,15"
14224,commdev-image-keyboard-response,337,686389,learnblock1,661.7000000029802,img/planet2_left.png,2,Community 2,NA,TRUE,f,f,NA,NA,NA,NA,6,"5,13,12,8,9,6,1,7,4,2,14,11,10,3,15"
14224,commdev-image-keyboard-response,338,687648,learnblock1,658.2000000029802,img/planet4_right.png,4,Community 2,NA,TRUE,j,j,NA,NA,NA,NA,6,"5,13,12,8,9,6,1,7,4,2,14,11,10,3,15"
14224,commdev-image-keyboard-response,339,688900,learnblock1,574.8000000044703,img/planet7_left.png,7,Community 2,NA,TRUE,f,f,NA,NA,NA,NA,6,"5,13,12,8,9,6,1,7,4,2,14,11,10,3,15"
14224,commdev-image-keyboard-response,340,690164,learnblock1,506.8999999985099,img/planet2_right.png,2,Community 2,NA,TRUE,j,j,NA,NA,NA,NA,6,"5,13,12,8,9,6,1,7,4,2,14,11,10,3,15"
14224,commdev-image-keyboard-response,341,691416,learnblock1,562.3999999985099,img/planet6_left.png,6,Community 2,NA,TRUE,f,f,NA,NA,NA,NA,6,"5,13,12,8,9,6,1,7,4,2,14,11,10,3,15"
14224,commdev-image-keyboard-response,342,692668,learnblock1,759,img/planet1_right.png,1,Community 2,NA,TRUE,j,j,NA,NA,NA,NA,6,"5,13,12,8,9,6,1,7,4,2,14,11,10,3,15"
14224,commdev-image-keyboard-response,343,693919,learnblock1,770.8000000044703,img/planet6_right.png,6,Community 2,NA,TRUE,j,j,NA,NA,NA,NA,6,"5,13,12,8,9,6,1,7,4,2,14,11,10,3,15"
14224,commdev-image-keyboard-response,344,695172,learnblock1,639.5,img/planet4_left.png,4,Community 2,NA,TRUE,f,f,NA,NA,NA,NA,6,"5,13,12,8,9,6,1,7,4,2,14,11,10,3,15"
14224,commdev-image-keyboard-response,345,696424,learnblock1,635.2999999970198,img/planet6_left.png,6,Community 2,NA,TRUE,f,f,NA,NA,NA,NA,6,"5,13,12,8,9,6,1,7,4,2,14,11,10,3,15"
14224,commdev-image-keyboard-response,346,697676,learnblock1,686.8999999985099,img/planet4_left.png,4,Community 2,NA,TRUE,f,f,NA,NA,NA,NA,6,"5,13,12,8,9,6,1,7,4,2,14,11,10,3,15"
14224,commdev-image-keyboard-response,347,698928,learnblock1,546,img/planet2_right.png,2,Community 2,NA,FALSE,f,j,NA,NA,NA,NA,6,"5,13,12,8,9,6,1,7,4,2,14,11,10,3,15"
14224,commdev-image-keyboard-response,351,743052,learnblock2,837.7000000029802,img/planet10_right.png,10,Community 3,NA,TRUE,j,j,NA,NA,NA,NA,6,"5,13,12,8,9,6,1,7,4,2,14,11,10,3,15"
14224,commdev-image-keyboard-response,352,744304,learnblock2,698.1000000014901,img/planet3_left.png,3,Community 3,NA,FALSE,j,f,NA,NA,NA,NA,6,"5,13,12,8,9,6,1,7,4,2,14,11,10,3,15"
14224,commdev-image-keyboard-response,353,745556,learnblock2,638.7999999970198,img/planet11_left.png,11,Community 3,NA,TRUE,f,f,NA,NA,NA,NA,6,"5,13,12,8,9,6,1,7,4,2,14,11,10,3,15"
14224,commdev-image-keyboard-response,354,746807,learnblock2,602.7000000029802,img/planet7_right.png,7,Community 2,NA,FALSE,f,j,NA,NA,NA,NA,6,"5,13,12,8,9,6,1,7,4,2,14,11,10,3,15"
14224,commdev-image-keyboard-response,355,748064,learnblock2,639.5,img/planet1_left.png,1,Community 2,NA,TRUE,f,f,NA,NA,NA,NA,6,"5,13,12,8,9,6,1,7,4,2,14,11,10,3,15"
14224,commdev-image-keyboard-response,356,749330,learnblock2,542.8000000044703,img/planet4_right.png,4,Community 2,NA,TRUE,j,j,NA,NA,NA,NA,6,"5,13,12,8,9,6,1,7,4,2,14,11,10,3,15"
14224,commdev-image-keyboard-response,357,750582,learnblock2,692.9000000059605,img/planet7_left.png,7,Community 2,NA,TRUE,f,f,NA,NA,NA,NA,6,"5,13,12,8,9,6,1,7,4,2,14,11,10,3,15"
14224,commdev-image-keyboard-response,358,751834,learnblock2,584.5,img/planet1_right.png,1,Community 2,NA,TRUE,j,j,NA,NA,NA,NA,6,"5,13,12,8,9,6,1,7,4,2,14,11,10,3,15"
14224,commdev-image-keyboard-response,359,753085,learnblock2,716.7000000029802,img/planet7_left.png,7,Community 2,NA,TRUE,f,f,NA,NA,NA,NA,6,"5,13,12,8,9,6,1,7,4,2,14,11,10,3,15"
14224,commdev-image-keyboard-response,360,754337,learnblock2,625,img/planet4_right.png,4,Community 2,NA,TRUE,j,j,NA,NA,NA,NA,6,"5,13,12,8,9,6,1,7,4,2,14,11,10,3,15"
14224,commdev-image-keyboard-response,361,755590,learnblock2,670.5,img/planet7_left.png,7,Community 2,NA,TRUE,f,f,NA,NA,NA,NA,6,"5,13,12,8,9,6,1,7,4,2,14,11,10,3,15"
14224,commdev-image-keyboard-response,362,756842,learnblock2,656.6999999955297,img/planet4_left.png,4,Community 2,NA,TRUE,f,f,NA,NA,NA,NA,6,"5,13,12,8,9,6,1,7,4,2,14,11,10,3,15"
14224,commdev-image-keyboard-response,363,758094,learnblock2,652.6000000014901,img/planet7_left.png,7,Community 2,NA,TRUE,f,f,NA,NA,NA,NA,6,"5,13,12,8,9,6,1,7,4,2,14,11,10,3,15"
14224,commdev-image-keyboard-response,364,759345,learnblock2,577.0999999940395,img/planet11_left.png,11,Community 3,NA,TRUE,f,f,NA,NA,NA,NA,6,"5,13,12,8,9,6,1,7,4,2,14,11,10,3,15"
14224,commdev-image-keyboard-response,365,760598,learnblock2,677.2000000029802,img/planet10_right.png,10,Community 3,NA,TRUE,j,j,NA,NA,NA,NA,6,"5,13,12,8,9,6,1,7,4,2,14,11,10,3,15"
14224,commdev-image-keyboard-response,366,761850,learnblock2,744.7000000029802,img/planet11_right.png,11,Community 3,NA,TRUE,j,j,NA,NA,NA,NA,6,"5,13,12,8,9,6,1,7,4,2,14,11,10,3,15"
14224,commdev-image-keyboard-response,367,763101,learnblock2,605.1000000014901,img/planet3_left.png,3,Community 3,NA,TRUE,f,f,NA,NA,NA,NA,6,"5,13,12,8,9,6,1,7,4,2,14,11,10,3,15"
14224,commdev-image-keyboard-response,368,764353,learnblock2,585.7000000029802,img/planet10_left.png,10,Community 3,NA,TRUE,f,f,NA,NA,NA,NA,6,"5,13,12,8,9,6,1,7,4,2,14,11,10,3,15"
14224,commdev-image-keyboard-response,369,765605,learnblock2,597,img/planet11_right.png,11,Community 3,NA,TRUE,j,j,NA,NA,NA,NA,6,"5,13,12,8,9,6,1,7,4,2,14,11,10,3,15"
14224,commdev-image-keyboard-response,370,766856,learnblock2,674.2999999970198,img/planet3_right.png,3,Community 3,NA,TRUE,j,j,NA,NA,NA,NA,6,"5,13,12,8,9,6,1,7,4,2,14,11,10,3,15"
14224,commdev-image-keyboard-response,371,768108,learnblock2,574,img/planet11_left.png,11,Community 3,NA,TRUE,f,f,NA,NA,NA,NA,6,"5,13,12,8,9,6,1,7,4,2,14,11,10,3,15"
14224,commdev-image-keyboard-response,372,769360,learnblock2,554.2000000029802,img/planet7_left.png,7,Community 2,NA,TRUE,f,f,NA,NA,NA,NA,6,"5,13,12,8,9,6,1,7,4,2,14,11,10,3,15"
14224,commdev-image-keyboard-response,373,770611,learnblock2,518.8999999985099,img/planet11_left.png,11,Community 3,NA,TRUE,f,f,NA,NA,NA,NA,6,"5,13,12,8,9,6,1,7,4,2,14,11,10,3,15"
14224,commdev-image-keyboard-response,374,771863,learnblock2,610.8999999985099,img/planet3_right.png,3,Community 3,NA,TRUE,j,j,NA,NA,NA,NA,6,"5,13,12,8,9,6,1,7,4,2,14,11,10,3,15"
14224,commdev-image-keyboard-response,375,773116,learnblock2,631.0999999940395,img/planet10_right.png,10,Community 3,NA,TRUE,j,j,NA,NA,NA,NA,6,"5,13,12,8,9,6,1,7,4,2,14,11,10,3,15"
14224,commdev-image-keyboard-response,376,774368,learnblock2,674.7000000029802,img/planet11_left.png,11,Community 3,NA,TRUE,f,f,NA,NA,NA,NA,6,"5,13,12,8,9,6,1,7,4,2,14,11,10,3,15"
14224,commdev-image-keyboard-response,377,775621,learnblock2,534.1000000014901,img/planet10_left.png,10,Community 3,NA,TRUE,f,f,NA,NA,NA,NA,6,"5,13,12,8,9,6,1,7,4,2,14,11,10,3,15"
14224,commdev-image-keyboard-response,378,776872,learnblock2,513.9000000059605,img/planet11_left.png,11,Community 3,NA,TRUE,f,f,NA,NA,NA,NA,6,"5,13,12,8,9,6,1,7,4,2,14,11,10,3,15"
14224,commdev-image-keyboard-response,379,778124,learnblock2,670.6000000014901,img/planet7_left.png,7,Community 2,NA,TRUE,f,f,NA,NA,NA,NA,6,"5,13,12,8,9,6,1,7,4,2,14,11,10,3,15"
14224,commdev-image-keyboard-response,380,779376,learnblock2,714.7999999970198,img/planet1_right.png,1,Community 2,NA,TRUE,j,j,NA,NA,NA,NA,6,"5,13,12,8,9,6,1,7,4,2,14,11,10,3,15"
14224,commdev-image-keyboard-response,381,780627,learnblock2,791.1000000014901,img/planet6_left.png,6,Community 2,NA,TRUE,f,f,NA,NA,NA,NA,6,"5,13,12,8,9,6,1,7,4,2,14,11,10,3,15"
14224,commdev-image-keyboard-response,382,781878,learnblock2,707.6999999955297,img/planet2_right.png,2,Community 2,NA,TRUE,j,j,NA,NA,NA,NA,6,"5,13,12,8,9,6,1,7,4,2,14,11,10,3,15"
14224,commdev-image-keyboard-response,383,783130,learnblock2,768.5,img/planet4_right.png,4,Community 2,NA,TRUE,j,j,NA,NA,NA,NA,6,"5,13,12,8,9,6,1,7,4,2,14,11,10,3,15"
14224,commdev-image-keyboard-response,384,784382,learnblock2,708.3000000044703,img/planet2_left.png,2,Community 2,NA,TRUE,f,f,NA,NA,NA,NA,6,"5,13,12,8,9,6,1,7,4,2,14,11,10,3,15"
14224,commdev-image-keyboard-response,385,785647,learnblock2,664.8000000044703,img/planet6_right.png,6,Community 2,NA,TRUE,j,j,NA,NA,NA,NA,6,"5,13,12,8,9,6,1,7,4,2,14,11,10,3,15"
14224,commdev-image-keyboard-response,386,786899,learnblock2,583,img/planet2_left.png,2,Community 2,NA,TRUE,f,f,NA,NA,NA,NA,6,"5,13,12,8,9,6,1,7,4,2,14,11,10,3,15"
14224,commdev-image-keyboard-response,387,788151,learnblock2,683.5,img/planet1_left.png,1,Community 2,NA,TRUE,f,f,NA,NA,NA,NA,6,"5,13,12,8,9,6,1,7,4,2,14,11,10,3,15"
14224,commdev-image-keyboard-response,388,789403,learnblock2,615.6000000014901,img/planet6_right.png,6,Community 2,NA,TRUE,j,j,NA,NA,NA,NA,6,"5,13,12,8,9,6,1,7,4,2,14,11,10,3,15"
14224,commdev-image-keyboard-response,389,790656,learnblock2,1059.3000000044703,img/planet4_left.png,4,Community 2,NA,TRUE,f,f,NA,NA,NA,NA,6,"5,13,12,8,9,6,1,7,4,2,14,11,10,3,15"
14224,commdev-image-keyboard-response,390,791908,learnblock2,775,img/planet7_left.png,7,Community 2,NA,TRUE,f,f,NA,NA,NA,NA,6,"5,13,12,8,9,6,1,7,4,2,14,11,10,3,15"
14224,commdev-image-keyboard-response,391,793161,learnblock2,617.7000000029802,img/planet4_left.png,4,Community 2,NA,TRUE,f,f,NA,NA,NA,NA,6,"5,13,12,8,9,6,1,7,4,2,14,11,10,3,15"
14224,commdev-image-keyboard-response,392,794416,learnblock2,566,img/planet2_left.png,2,Community 2,NA,TRUE,f,f,NA,NA,NA,NA,6,"5,13,12,8,9,6,1,7,4,2,14,11,10,3,15"
14224,commdev-image-keyboard-response,393,795669,learnblock2,806.1000000014901,img/planet6_left.png,6,Community 2,NA,TRUE,f,f,NA,NA,NA,NA,6,"5,13,12,8,9,6,1,7,4,2,14,11,10,3,15"
14224,commdev-image-keyboard-response,394,796926,learnblock2,834.2000000029802,img/planet8_left.png,8,Community 1,NA,TRUE,f,f,NA,NA,NA,NA,6,"5,13,12,8,9,6,1,7,4,2,14,11,10,3,15"
14224,commdev-image-keyboard-response,395,798190,learnblock2,753.1000000014901,img/planet12_right.png,12,Community 1,NA,TRUE,j,j,NA,NA,NA,NA,6,"5,13,12,8,9,6,1,7,4,2,14,11,10,3,15"
14224,commdev-image-keyboard-response,396,799441,learnblock2,1137.3000000044703,img/planet5_left.png,5,Community 1,NA,TRUE,f,f,NA,NA,NA,NA,6,"5,13,12,8,9,6,1,7,4,2,14,11,10,3,15"
14224,commdev-image-keyboard-response,397,800692,learnblock2,789.8000000044703,img/planet13_left.png,13,Community 1,NA,TRUE,f,f,NA,NA,NA,NA,6,"5,13,12,8,9,6,1,7,4,2,14,11,10,3,15"
14224,commdev-image-keyboard-response,398,801944,learnblock2,650.3999999985099,img/planet9_left.png,9,Community 1,NA,TRUE,f,f,NA,NA,NA,NA,6,"5,13,12,8,9,6,1,7,4,2,14,11,10,3,15"
14224,commdev-image-keyboard-response,399,803196,learnblock2,886.2000000029802,img/planet5_left.png,5,Community 1,NA,TRUE,f,f,NA,NA,NA,NA,6,"5,13,12,8,9,6,1,7,4,2,14,11,10,3,15"
14224,commdev-image-keyboard-response,400,804448,learnblock2,642.6999999955297,img/planet12_right.png,12,Community 1,NA,TRUE,j,j,NA,NA,NA,NA,6,"5,13,12,8,9,6,1,7,4,2,14,11,10,3,15"
14224,commdev-image-keyboard-response,401,805699,learnblock2,551,img/planet8_right.png,8,Community 1,NA,TRUE,j,j,NA,NA,NA,NA,6,"5,13,12,8,9,6,1,7,4,2,14,11,10,3,15"
14224,commdev-image-keyboard-response,402,806952,learnblock2,691.3999999985099,img/planet6_left.png,6,Community 2,NA,TRUE,f,f,NA,NA,NA,NA,6,"5,13,12,8,9,6,1,7,4,2,14,11,10,3,15"
14224,commdev-image-keyboard-response,403,808204,learnblock2,566.9000000059605,img/planet8_right.png,8,Community 1,NA,TRUE,j,j,NA,NA,NA,NA,6,"5,13,12,8,9,6,1,7,4,2,14,11,10,3,15"
14224,commdev-image-keyboard-response,404,809456,learnblock2,594.7999999970198,img/planet5_left.png,5,Community 1,NA,TRUE,f,f,NA,NA,NA,NA,6,"5,13,12,8,9,6,1,7,4,2,14,11,10,3,15"
14224,commdev-image-keyboard-response,405,810707,learnblock2,519.5,img/planet12_left.png,12,Community 1,NA,FALSE,j,f,NA,NA,NA,NA,6,"5,13,12,8,9,6,1,7,4,2,14,11,10,3,15"
14224,commdev-image-keyboard-response,406,811959,learnblock2,763.2999999970198,img/planet8_right.png,8,Community 1,NA,TRUE,j,j,NA,NA,NA,NA,6,"5,13,12,8,9,6,1,7,4,2,14,11,10,3,15"
14224,commdev-image-keyboard-response,407,813211,learnblock2,647.9000000059605,img/planet13_left.png,13,Community 1,NA,TRUE,f,f,NA,NA,NA,NA,6,"5,13,12,8,9,6,1,7,4,2,14,11,10,3,15"
14224,commdev-image-keyboard-response,408,814462,learnblock2,676.1000000014901,img/planet5_right.png,5,Community 1,NA,TRUE,j,j,NA,NA,NA,NA,6,"5,13,12,8,9,6,1,7,4,2,14,11,10,3,15"
14224,commdev-image-keyboard-response,409,815714,learnblock2,592.8000000044703,img/planet13_right.png,13,Community 1,NA,TRUE,j,j,NA,NA,NA,NA,6,"5,13,12,8,9,6,1,7,4,2,14,11,10,3,15"
14224,commdev-image-keyboard-response,410,816965,learnblock2,589.1000000014901,img/planet9_right.png,9,Community 1,NA,TRUE,j,j,NA,NA,NA,NA,6,"5,13,12,8,9,6,1,7,4,2,14,11,10,3,15"
14224,commdev-image-keyboard-response,411,818218,learnblock2,696.8000000044703,img/planet13_right.png,13,Community 1,NA,TRUE,j,j,NA,NA,NA,NA,6,"5,13,12,8,9,6,1,7,4,2,14,11,10,3,15"
14224,commdev-image-keyboard-response,412,819470,learnblock2,685.2999999970198,img/planet8_right.png,8,Community 1,NA,TRUE,j,j,NA,NA,NA,NA,6,"5,13,12,8,9,6,1,7,4,2,14,11,10,3,15"
14224,commdev-image-keyboard-response,413,820722,learnblock2,600.6000000014901,img/planet5_left.png,5,Community 1,NA,TRUE,f,f,NA,NA,NA,NA,6,"5,13,12,8,9,6,1,7,4,2,14,11,10,3,15"
14224,commdev-image-keyboard-response,414,821974,learnblock2,716.8000000044703,img/planet13_right.png,13,Community 1,NA,TRUE,j,j,NA,NA,NA,NA,6,"5,13,12,8,9,6,1,7,4,2,14,11,10,3,15"
14224,commdev-image-keyboard-response,415,823226,learnblock2,1184.5,img/planet8_left.png,8,Community 1,NA,TRUE,f,f,NA,NA,NA,NA,6,"5,13,12,8,9,6,1,7,4,2,14,11,10,3,15"
14224,commdev-image-keyboard-response,416,824477,learnblock2,109.5,img/planet6_left.png,6,Community 2,NA,TRUE,f,f,NA,NA,NA,NA,6,"5,13,12,8,9,6,1,7,4,2,14,11,10,3,15"
14224,commdev-image-keyboard-response,417,825735,learnblock2,2.1999999955296516,img/planet2_right.png,2,Community 2,NA,FALSE,f,j,NA,NA,NA,NA,6,"5,13,12,8,9,6,1,7,4,2,14,11,10,3,15"
14224,commdev-image-keyboard-response,418,826987,learnblock2,583.4000000059605,img/planet4_left.png,4,Community 2,NA,TRUE,f,f,NA,NA,NA,NA,6,"5,13,12,8,9,6,1,7,4,2,14,11,10,3,15"
14224,commdev-image-keyboard-response,419,828239,learnblock2,651.7999999970198,img/planet1_right.png,1,Community 2,NA,TRUE,j,j,NA,NA,NA,NA,6,"5,13,12,8,9,6,1,7,4,2,14,11,10,3,15"
14224,commdev-image-keyboard-response,420,829501,learnblock2,647.6999999955297,img/planet6_left.png,6,Community 2,NA,TRUE,f,f,NA,NA,NA,NA,6,"5,13,12,8,9,6,1,7,4,2,14,11,10,3,15"
14224,commdev-image-keyboard-response,421,830753,learnblock2,969.6000000014901,img/planet8_left.png,8,Community 1,NA,TRUE,f,f,NA,NA,NA,NA,6,"5,13,12,8,9,6,1,7,4,2,14,11,10,3,15"
14224,commdev-image-keyboard-response,422,832006,learnblock2,733.4000000059605,img/planet5_left.png,5,Community 1,NA,TRUE,f,f,NA,NA,NA,NA,6,"5,13,12,8,9,6,1,7,4,2,14,11,10,3,15"
14224,commdev-image-keyboard-response,423,833257,learnblock2,689.1999999955297,img/planet13_right.png,13,Community 1,NA,TRUE,j,j,NA,NA,NA,NA,6,"5,13,12,8,9,6,1,7,4,2,14,11,10,3,15"
14224,commdev-image-keyboard-response,424,834509,learnblock2,653.2999999970198,img/planet5_left.png,5,Community 1,NA,FALSE,j,f,NA,NA,NA,NA,6,"5,13,12,8,9,6,1,7,4,2,14,11,10,3,15"
14224,commdev-image-keyboard-response,425,835761,learnblock2,801.3000000044703,img/planet9_left.png,9,Community 1,NA,TRUE,f,f,NA,NA,NA,NA,6,"5,13,12,8,9,6,1,7,4,2,14,11,10,3,15"
14224,commdev-image-keyboard-response,426,837013,learnblock2,789.1000000014901,img/planet5_right.png,5,Community 1,NA,TRUE,j,j,NA,NA,NA,NA,6,"5,13,12,8,9,6,1,7,4,2,14,11,10,3,15"
14224,commdev-image-keyboard-response,427,838265,learnblock2,713.6999999955297,img/planet12_right.png,12,Community 1,NA,TRUE,j,j,NA,NA,NA,NA,6,"5,13,12,8,9,6,1,7,4,2,14,11,10,3,15"
14224,commdev-image-keyboard-response,428,839517,learnblock2,805.5,img/planet9_right.png,9,Community 1,NA,TRUE,j,j,NA,NA,NA,NA,6,"5,13,12,8,9,6,1,7,4,2,14,11,10,3,15"
14224,commdev-image-keyboard-response,429,840770,learnblock2,785.2999999970198,img/planet12_left.png,12,Community 1,NA,TRUE,f,f,NA,NA,NA,NA,6,"5,13,12,8,9,6,1,7,4,2,14,11,10,3,15"
14224,commdev-image-keyboard-response,430,842022,learnblock2,684.7999999970198,img/planet9_left.png,9,Community 1,NA,TRUE,f,f,NA,NA,NA,NA,6,"5,13,12,8,9,6,1,7,4,2,14,11,10,3,15"
14224,commdev-image-keyboard-response,431,843273,learnblock2,777.1000000014901,img/planet14_left.png,14,Community 3,NA,TRUE,f,f,NA,NA,NA,NA,6,"5,13,12,8,9,6,1,7,4,2,14,11,10,3,15"
14224,commdev-image-keyboard-response,432,844525,learnblock2,654.1000000014901,img/planet3_right.png,3,Community 3,NA,TRUE,j,j,NA,NA,NA,NA,6,"5,13,12,8,9,6,1,7,4,2,14,11,10,3,15"
14224,commdev-image-keyboard-response,433,845777,learnblock2,665.5,img/planet10_right.png,10,Community 3,NA,TRUE,j,j,NA,NA,NA,NA,6,"5,13,12,8,9,6,1,7,4,2,14,11,10,3,15"
14224,commdev-image-keyboard-response,434,847030,learnblock2,725.6000000014901,img/planet11_right.png,11,Community 3,NA,TRUE,j,j,NA,NA,NA,NA,6,"5,13,12,8,9,6,1,7,4,2,14,11,10,3,15"
14224,commdev-image-keyboard-response,435,848283,learnblock2,672.9000000059605,img/planet3_left.png,3,Community 3,NA,TRUE,f,f,NA,NA,NA,NA,6,"5,13,12,8,9,6,1,7,4,2,14,11,10,3,15"
14224,commdev-image-keyboard-response,436,849534,learnblock2,null,img/planet14_left.png,14,Community 3,NA,FALSE,null,f,NA,NA,NA,NA,6,"5,13,12,8,9,6,1,7,4,2,14,11,10,3,15"
14224,commdev-image-keyboard-response,437,850786,learnblock2,688.8999999985099,img/planet15_right.png,15,Community 3,NA,TRUE,j,j,NA,NA,NA,NA,6,"5,13,12,8,9,6,1,7,4,2,14,11,10,3,15"
14224,commdev-image-keyboard-response,438,852038,learnblock2,724.5999999940395,img/planet10_right.png,10,Community 3,NA,TRUE,j,j,NA,NA,NA,NA,6,"5,13,12,8,9,6,1,7,4,2,14,11,10,3,15"
14224,commdev-image-keyboard-response,439,853289,learnblock2,809.1999999955297,img/planet15_left.png,15,Community 3,NA,TRUE,f,f,NA,NA,NA,NA,6,"5,13,12,8,9,6,1,7,4,2,14,11,10,3,15"
14224,commdev-image-keyboard-response,440,854541,learnblock2,550.1000000014901,img/planet3_right.png,3,Community 3,NA,TRUE,j,j,NA,NA,NA,NA,6,"5,13,12,8,9,6,1,7,4,2,14,11,10,3,15"
14224,commdev-image-keyboard-response,441,855795,learnblock2,666,img/planet14_right.png,14,Community 3,NA,TRUE,j,j,NA,NA,NA,NA,6,"5,13,12,8,9,6,1,7,4,2,14,11,10,3,15"
14224,commdev-image-keyboard-response,442,857047,learnblock2,595.3000000044703,img/planet9_left.png,9,Community 1,NA,FALSE,j,f,NA,NA,NA,NA,6,"5,13,12,8,9,6,1,7,4,2,14,11,10,3,15"
14224,commdev-image-keyboard-response,443,858300,learnblock2,735.6000000014901,img/planet5_left.png,5,Community 1,NA,FALSE,j,f,NA,NA,NA,NA,6,"5,13,12,8,9,6,1,7,4,2,14,11,10,3,15"
14224,commdev-image-keyboard-response,444,859552,learnblock2,618.8999999985099,img/planet13_right.png,13,Community 1,NA,TRUE,j,j,NA,NA,NA,NA,6,"5,13,12,8,9,6,1,7,4,2,14,11,10,3,15"
14224,commdev-image-keyboard-response,445,860803,learnblock2,846.8000000044703,img/planet8_left.png,8,Community 1,NA,TRUE,f,f,NA,NA,NA,NA,6,"5,13,12,8,9,6,1,7,4,2,14,11,10,3,15"
14224,commdev-image-keyboard-response,446,862055,learnblock2,619.5,img/planet13_left.png,13,Community 1,NA,TRUE,f,f,NA,NA,NA,NA,6,"5,13,12,8,9,6,1,7,4,2,14,11,10,3,15"
14224,commdev-image-keyboard-response,447,863307,learnblock2,815.6999999955297,img/planet5_right.png,5,Community 1,NA,TRUE,j,j,NA,NA,NA,NA,6,"5,13,12,8,9,6,1,7,4,2,14,11,10,3,15"
14224,commdev-image-keyboard-response,448,864560,learnblock2,683.2000000029802,img/planet13_right.png,13,Community 1,NA,TRUE,j,j,NA,NA,NA,NA,6,"5,13,12,8,9,6,1,7,4,2,14,11,10,3,15"
14224,commdev-image-keyboard-response,449,865811,learnblock2,678.6999999955297,img/planet9_right.png,9,Community 1,NA,TRUE,j,j,NA,NA,NA,NA,6,"5,13,12,8,9,6,1,7,4,2,14,11,10,3,15"
14224,commdev-image-keyboard-response,450,867063,learnblock2,811.5,img/planet14_right.png,14,Community 3,NA,TRUE,j,j,NA,NA,NA,NA,6,"5,13,12,8,9,6,1,7,4,2,14,11,10,3,15"
14224,commdev-image-keyboard-response,451,868315,learnblock2,631.6000000014901,img/planet3_left.png,3,Community 3,NA,TRUE,f,f,NA,NA,NA,NA,6,"5,13,12,8,9,6,1,7,4,2,14,11,10,3,15"
14224,commdev-image-keyboard-response,452,869568,learnblock2,619.5,img/planet15_left.png,15,Community 3,NA,TRUE,f,f,NA,NA,NA,NA,6,"5,13,12,8,9,6,1,7,4,2,14,11,10,3,15"
14224,commdev-image-keyboard-response,453,870820,learnblock2,751.2999999970198,img/planet11_right.png,11,Community 3,NA,TRUE,j,j,NA,NA,NA,NA,6,"5,13,12,8,9,6,1,7,4,2,14,11,10,3,15"
14224,commdev-image-keyboard-response,454,872072,learnblock2,754.6000000014901,img/planet3_left.png,3,Community 3,NA,TRUE,f,f,NA,NA,NA,NA,6,"5,13,12,8,9,6,1,7,4,2,14,11,10,3,15"
14224,commdev-image-keyboard-response,455,873323,learnblock2,694.6999999955297,img/planet14_left.png,14,Community 3,NA,TRUE,f,f,NA,NA,NA,NA,6,"5,13,12,8,9,6,1,7,4,2,14,11,10,3,15"
14224,commdev-image-keyboard-response,456,874575,learnblock2,771,img/planet3_right.png,3,Community 3,NA,TRUE,j,j,NA,NA,NA,NA,6,"5,13,12,8,9,6,1,7,4,2,14,11,10,3,15"
14224,commdev-image-keyboard-response,457,875827,learnblock2,823.5,img/planet15_right.png,15,Community 3,NA,TRUE,j,j,NA,NA,NA,NA,6,"5,13,12,8,9,6,1,7,4,2,14,11,10,3,15"
14224,commdev-image-keyboard-response,458,877079,learnblock2,763.8999999985099,img/planet10_left.png,10,Community 3,NA,TRUE,f,f,NA,NA,NA,NA,6,"5,13,12,8,9,6,1,7,4,2,14,11,10,3,15"
14224,commdev-image-keyboard-response,459,878331,learnblock2,696.1999999955297,img/planet14_left.png,14,Community 3,NA,TRUE,f,f,NA,NA,NA,NA,6,"5,13,12,8,9,6,1,7,4,2,14,11,10,3,15"
14224,commdev-image-keyboard-response,460,879583,learnblock2,691.7999999970198,img/planet3_left.png,3,Community 3,NA,TRUE,f,f,NA,NA,NA,NA,6,"5,13,12,8,9,6,1,7,4,2,14,11,10,3,15"
14224,commdev-image-keyboard-response,461,880835,learnblock2,727.7999999970198,img/planet11_right.png,11,Community 3,NA,TRUE,j,j,NA,NA,NA,NA,6,"5,13,12,8,9,6,1,7,4,2,14,11,10,3,15"
14224,commdev-image-keyboard-response,462,882087,learnblock2,603.8999999985099,img/planet15_left.png,15,Community 3,NA,TRUE,f,f,NA,NA,NA,NA,6,"5,13,12,8,9,6,1,7,4,2,14,11,10,3,15"
14224,commdev-image-keyboard-response,463,883338,learnblock2,752,img/planet11_right.png,11,Community 3,NA,TRUE,j,j,NA,NA,NA,NA,6,"5,13,12,8,9,6,1,7,4,2,14,11,10,3,15"
14224,commdev-image-keyboard-response,464,884590,learnblock2,660.5999999940395,img/planet10_left.png,10,Community 3,NA,TRUE,f,f,NA,NA,NA,NA,6,"5,13,12,8,9,6,1,7,4,2,14,11,10,3,15"
14224,commdev-image-keyboard-response,465,885843,learnblock2,1208.3999999985099,img/planet11_left.png,11,Community 3,NA,TRUE,f,f,NA,NA,NA,NA,6,"5,13,12,8,9,6,1,7,4,2,14,11,10,3,15"
14224,commdev-image-keyboard-response,466,887095,learnblock2,674.6999999955297,img/planet15_left.png,15,Community 3,NA,TRUE,f,f,NA,NA,NA,NA,6,"5,13,12,8,9,6,1,7,4,2,14,11,10,3,15"
14224,commdev-image-keyboard-response,467,888347,learnblock2,839.6999999955297,img/planet11_left.png,11,Community 3,NA,TRUE,f,f,NA,NA,NA,NA,6,"5,13,12,8,9,6,1,7,4,2,14,11,10,3,15"
14224,commdev-image-keyboard-response,468,889600,learnblock2,635.7999999970198,img/planet10_left.png,10,Community 3,NA,TRUE,f,f,NA,NA,NA,NA,6,"5,13,12,8,9,6,1,7,4,2,14,11,10,3,15"
14224,commdev-image-keyboard-response,469,890852,learnblock2,687.1999999955297,img/planet14_left.png,14,Community 3,NA,TRUE,f,f,NA,NA,NA,NA,6,"5,13,12,8,9,6,1,7,4,2,14,11,10,3,15"
14224,commdev-image-keyboard-response,470,892104,learnblock2,610.6000000014901,img/planet10_right.png,10,Community 3,NA,TRUE,j,j,NA,NA,NA,NA,6,"5,13,12,8,9,6,1,7,4,2,14,11,10,3,15"
14224,commdev-image-keyboard-response,471,893356,learnblock2,591.1999999955297,img/planet11_right.png,11,Community 3,NA,TRUE,j,j,NA,NA,NA,NA,6,"5,13,12,8,9,6,1,7,4,2,14,11,10,3,15"
14224,commdev-image-keyboard-response,472,894608,learnblock2,587.1999999955297,img/planet10_left.png,10,Community 3,NA,TRUE,f,f,NA,NA,NA,NA,6,"5,13,12,8,9,6,1,7,4,2,14,11,10,3,15"
14224,commdev-image-keyboard-response,473,895861,learnblock2,694.8000000044703,img/planet3_left.png,3,Community 3,NA,TRUE,f,f,NA,NA,NA,NA,6,"5,13,12,8,9,6,1,7,4,2,14,11,10,3,15"
14224,commdev-image-keyboard-response,474,897112,learnblock2,538.0999999940395,img/planet10_right.png,10,Community 3,NA,TRUE,j,j,NA,NA,NA,NA,6,"5,13,12,8,9,6,1,7,4,2,14,11,10,3,15"
14224,commdev-image-keyboard-response,475,898364,learnblock2,686.7999999970198,img/planet3_left.png,3,Community 3,NA,TRUE,f,f,NA,NA,NA,NA,6,"5,13,12,8,9,6,1,7,4,2,14,11,10,3,15"
14224,commdev-image-keyboard-response,476,899616,learnblock2,514.2999999970198,img/planet15_left.png,15,Community 3,NA,TRUE,f,f,NA,NA,NA,NA,6,"5,13,12,8,9,6,1,7,4,2,14,11,10,3,15"
14224,commdev-image-keyboard-response,477,900868,learnblock2,478.5,img/planet10_right.png,10,Community 3,NA,TRUE,j,j,NA,NA,NA,NA,6,"5,13,12,8,9,6,1,7,4,2,14,11,10,3,15"
14224,commdev-image-keyboard-response,478,902120,learnblock2,730.4000000059605,img/planet14_left.png,14,Community 3,NA,TRUE,f,f,NA,NA,NA,NA,6,"5,13,12,8,9,6,1,7,4,2,14,11,10,3,15"
14224,commdev-image-keyboard-response,479,903373,learnblock2,550.3000000044703,img/planet10_left.png,10,Community 3,NA,TRUE,f,f,NA,NA,NA,NA,6,"5,13,12,8,9,6,1,7,4,2,14,11,10,3,15"
14224,commdev-image-keyboard-response,480,904624,learnblock2,506.20000000298023,img/planet11_right.png,11,Community 3,NA,TRUE,j,j,NA,NA,NA,NA,6,"5,13,12,8,9,6,1,7,4,2,14,11,10,3,15"
14224,commdev-image-keyboard-response,481,905876,learnblock2,718.1999999955297,img/planet10_left.png,10,Community 3,NA,TRUE,f,f,NA,NA,NA,NA,6,"5,13,12,8,9,6,1,7,4,2,14,11,10,3,15"
14224,commdev-image-keyboard-response,482,907127,learnblock2,627.1999999955297,img/planet15_right.png,15,Community 3,NA,TRUE,j,j,NA,NA,NA,NA,6,"5,13,12,8,9,6,1,7,4,2,14,11,10,3,15"
14224,commdev-image-keyboard-response,483,908380,learnblock2,703.3000000044703,img/planet14_right.png,14,Community 3,NA,TRUE,j,j,NA,NA,NA,NA,6,"5,13,12,8,9,6,1,7,4,2,14,11,10,3,15"
14224,commdev-image-keyboard-response,484,909644,learnblock2,746.8999999985099,img/planet15_right.png,15,Community 3,NA,TRUE,j,j,NA,NA,NA,NA,6,"5,13,12,8,9,6,1,7,4,2,14,11,10,3,15"
14224,commdev-image-keyboard-response,485,910895,learnblock2,747,img/planet3_right.png,3,Community 3,NA,TRUE,j,j,NA,NA,NA,NA,6,"5,13,12,8,9,6,1,7,4,2,14,11,10,3,15"
14224,commdev-image-keyboard-response,486,912147,learnblock2,591.6999999955297,img/planet11_left.png,11,Community 3,NA,TRUE,f,f,NA,NA,NA,NA,6,"5,13,12,8,9,6,1,7,4,2,14,11,10,3,15"
14224,commdev-image-keyboard-response,487,913398,learnblock2,748.2999999970198,img/planet3_right.png,3,Community 3,NA,TRUE,j,j,NA,NA,NA,NA,6,"5,13,12,8,9,6,1,7,4,2,14,11,10,3,15"
14224,commdev-image-keyboard-response,488,914649,learnblock2,592.7999999970198,img/planet11_left.png,11,Community 3,NA,TRUE,f,f,NA,NA,NA,NA,6,"5,13,12,8,9,6,1,7,4,2,14,11,10,3,15"
14224,commdev-image-keyboard-response,489,915901,learnblock2,493.29999999701977,img/planet3_right.png,3,Community 3,NA,TRUE,j,j,NA,NA,NA,NA,6,"5,13,12,8,9,6,1,7,4,2,14,11,10,3,15"
14224,commdev-image-keyboard-response,490,917153,learnblock2,825.5,img/planet11_right.png,11,Community 3,NA,TRUE,j,j,NA,NA,NA,NA,6,"5,13,12,8,9,6,1,7,4,2,14,11,10,3,15"
14224,commdev-image-keyboard-response,491,918406,learnblock2,693.3999999985099,img/planet3_right.png,3,Community 3,NA,TRUE,j,j,NA,NA,NA,NA,6,"5,13,12,8,9,6,1,7,4,2,14,11,10,3,15"
14224,commdev-image-keyboard-response,492,919657,learnblock2,625.1000000014901,img/planet15_right.png,15,Community 3,NA,TRUE,j,j,NA,NA,NA,NA,6,"5,13,12,8,9,6,1,7,4,2,14,11,10,3,15"
14224,commdev-image-keyboard-response,493,920909,learnblock2,637.6999999955297,img/planet3_right.png,3,Community 3,NA,TRUE,j,j,NA,NA,NA,NA,6,"5,13,12,8,9,6,1,7,4,2,14,11,10,3,15"
14224,commdev-image-keyboard-response,494,922161,learnblock2,601.7000000029802,img/planet14_left.png,14,Community 3,NA,TRUE,f,f,NA,NA,NA,NA,6,"5,13,12,8,9,6,1,7,4,2,14,11,10,3,15"
14224,commdev-image-keyboard-response,495,923413,learnblock2,614.1999999955297,img/planet15_right.png,15,Community 3,NA,TRUE,j,j,NA,NA,NA,NA,6,"5,13,12,8,9,6,1,7,4,2,14,11,10,3,15"
14224,commdev-image-keyboard-response,496,924665,learnblock2,569.7999999970198,img/planet11_left.png,11,Community 3,NA,TRUE,f,f,NA,NA,NA,NA,6,"5,13,12,8,9,6,1,7,4,2,14,11,10,3,15"
14224,commdev-image-keyboard-response,497,925917,learnblock2,573.5999999940395,img/planet3_right.png,3,Community 3,NA,TRUE,j,j,NA,NA,NA,NA,6,"5,13,12,8,9,6,1,7,4,2,14,11,10,3,15"
14224,commdev-image-keyboard-response,498,927176,learnblock2,649.5,img/planet10_right.png,10,Community 3,NA,TRUE,j,j,NA,NA,NA,NA,6,"5,13,12,8,9,6,1,7,4,2,14,11,10,3,15"
14224,commdev-image-keyboard-response,499,928427,learnblock2,535,img/planet11_left.png,11,Community 3,NA,FALSE,j,f,NA,NA,NA,NA,6,"5,13,12,8,9,6,1,7,4,2,14,11,10,3,15"
14224,commdev-image-keyboard-response,500,929679,learnblock2,611.2000000029802,img/planet3_left.png,3,Community 3,NA,TRUE,f,f,NA,NA,NA,NA,6,"5,13,12,8,9,6,1,7,4,2,14,11,10,3,15"
14224,commdev-image-keyboard-response,501,930932,learnblock2,615.6999999955297,img/planet15_right.png,15,Community 3,NA,TRUE,j,j,NA,NA,NA,NA,6,"5,13,12,8,9,6,1,7,4,2,14,11,10,3,15"
14224,commdev-image-keyboard-response,502,932184,learnblock2,523,img/planet11_left.png,11,Community 3,NA,TRUE,f,f,NA,NA,NA,NA,6,"5,13,12,8,9,6,1,7,4,2,14,11,10,3,15"
14224,commdev-image-keyboard-response,503,933435,learnblock2,671.6000000014901,img/planet7_right.png,7,Community 2,NA,TRUE,j,j,NA,NA,NA,NA,6,"5,13,12,8,9,6,1,7,4,2,14,11,10,3,15"
14224,commdev-image-keyboard-response,504,934687,learnblock2,508.1000000014901,img/planet11_left.png,11,Community 3,NA,TRUE,f,f,NA,NA,NA,NA,6,"5,13,12,8,9,6,1,7,4,2,14,11,10,3,15"
14224,commdev-image-keyboard-response,505,935938,learnblock2,535.8999999985099,img/planet10_right.png,10,Community 3,NA,TRUE,j,j,NA,NA,NA,NA,6,"5,13,12,8,9,6,1,7,4,2,14,11,10,3,15"
14224,commdev-image-keyboard-response,506,937192,learnblock2,588.3999999985099,img/planet15_right.png,15,Community 3,NA,TRUE,j,j,NA,NA,NA,NA,6,"5,13,12,8,9,6,1,7,4,2,14,11,10,3,15"
14224,commdev-image-keyboard-response,507,938443,learnblock2,567.2000000029802,img/planet3_right.png,3,Community 3,NA,TRUE,j,j,NA,NA,NA,NA,6,"5,13,12,8,9,6,1,7,4,2,14,11,10,3,15"
14224,commdev-image-keyboard-response,508,939696,learnblock2,674.8999999985099,img/planet14_right.png,14,Community 3,NA,TRUE,j,j,NA,NA,NA,NA,6,"5,13,12,8,9,6,1,7,4,2,14,11,10,3,15"
14224,commdev-image-keyboard-response,509,940947,learnblock2,623,img/planet3_right.png,3,Community 3,NA,TRUE,j,j,NA,NA,NA,NA,6,"5,13,12,8,9,6,1,7,4,2,14,11,10,3,15"
14224,commdev-image-keyboard-response,510,942200,learnblock2,610.8000000044703,img/planet11_right.png,11,Community 3,NA,TRUE,j,j,NA,NA,NA,NA,6,"5,13,12,8,9,6,1,7,4,2,14,11,10,3,15"
14224,commdev-image-keyboard-response,511,943453,learnblock2,526.3999999985099,img/planet7_right.png,7,Community 2,NA,TRUE,j,j,NA,NA,NA,NA,6,"5,13,12,8,9,6,1,7,4,2,14,11,10,3,15"
14224,commdev-image-keyboard-response,512,944705,learnblock2,538,img/planet4_right.png,4,Community 2,NA,TRUE,j,j,NA,NA,NA,NA,6,"5,13,12,8,9,6,1,7,4,2,14,11,10,3,15"
14224,commdev-image-keyboard-response,513,945957,learnblock2,462.1000000014901,img/planet2_left.png,2,Community 2,NA,TRUE,f,f,NA,NA,NA,NA,6,"5,13,12,8,9,6,1,7,4,2,14,11,10,3,15"
14224,commdev-image-keyboard-response,514,947209,learnblock2,489.79999999701977,img/planet1_right.png,1,Community 2,NA,TRUE,j,j,NA,NA,NA,NA,6,"5,13,12,8,9,6,1,7,4,2,14,11,10,3,15"
14224,commdev-image-keyboard-response,515,948460,learnblock2,622.3999999985099,img/planet4_left.png,4,Community 2,NA,TRUE,f,f,NA,NA,NA,NA,6,"5,13,12,8,9,6,1,7,4,2,14,11,10,3,15"
14224,commdev-image-keyboard-response,516,949712,learnblock2,698,img/planet1_left.png,1,Community 2,NA,TRUE,f,f,NA,NA,NA,NA,6,"5,13,12,8,9,6,1,7,4,2,14,11,10,3,15"
14224,commdev-image-keyboard-response,517,950965,learnblock2,646.1999999955297,img/planet2_right.png,2,Community 2,NA,TRUE,j,j,NA,NA,NA,NA,6,"5,13,12,8,9,6,1,7,4,2,14,11,10,3,15"
14224,commdev-image-keyboard-response,518,952216,learnblock2,642,img/planet7_left.png,7,Community 2,NA,TRUE,f,f,NA,NA,NA,NA,6,"5,13,12,8,9,6,1,7,4,2,14,11,10,3,15"
14224,commdev-image-keyboard-response,519,953469,learnblock2,678.3999999985099,img/planet4_left.png,4,Community 2,NA,TRUE,f,f,NA,NA,NA,NA,6,"5,13,12,8,9,6,1,7,4,2,14,11,10,3,15"
14224,commdev-image-keyboard-response,520,954722,learnblock2,689.3000000044703,img/planet6_left.png,6,Community 2,NA,TRUE,f,f,NA,NA,NA,NA,6,"5,13,12,8,9,6,1,7,4,2,14,11,10,3,15"
14224,commdev-image-keyboard-response,521,955973,learnblock2,741.1999999955297,img/planet2_right.png,2,Community 2,NA,TRUE,j,j,NA,NA,NA,NA,6,"5,13,12,8,9,6,1,7,4,2,14,11,10,3,15"
14224,commdev-image-keyboard-response,522,957225,learnblock2,601.8999999985099,img/planet4_left.png,4,Community 2,NA,TRUE,f,f,NA,NA,NA,NA,6,"5,13,12,8,9,6,1,7,4,2,14,11,10,3,15"
14224,commdev-image-keyboard-response,523,958478,learnblock2,725.3999999985099,img/planet7_right.png,7,Community 2,NA,TRUE,j,j,NA,NA,NA,NA,6,"5,13,12,8,9,6,1,7,4,2,14,11,10,3,15"
14224,commdev-image-keyboard-response,524,959729,learnblock2,480.79999999701977,img/planet11_right.png,11,Community 3,NA,FALSE,f,j,NA,NA,NA,NA,6,"5,13,12,8,9,6,1,7,4,2,14,11,10,3,15"
14224,commdev-image-keyboard-response,525,960981,learnblock2,693.5999999940395,img/planet3_left.png,3,Community 3,NA,TRUE,f,f,NA,NA,NA,NA,6,"5,13,12,8,9,6,1,7,4,2,14,11,10,3,15"
14224,commdev-image-keyboard-response,526,962233,learnblock2,594,img/planet14_left.png,14,Community 3,NA,TRUE,f,f,NA,NA,NA,NA,6,"5,13,12,8,9,6,1,7,4,2,14,11,10,3,15"
14224,commdev-image-keyboard-response,527,963485,learnblock2,598.2999999970198,img/planet9_right.png,9,Community 1,NA,TRUE,j,j,NA,NA,NA,NA,6,"5,13,12,8,9,6,1,7,4,2,14,11,10,3,15"
14224,commdev-image-keyboard-response,528,964737,learnblock2,697.9000000059605,img/planet12_left.png,12,Community 1,NA,TRUE,f,f,NA,NA,NA,NA,6,"5,13,12,8,9,6,1,7,4,2,14,11,10,3,15"
14224,commdev-image-keyboard-response,529,965989,learnblock2,725.7999999970198,img/planet13_left.png,13,Community 1,NA,TRUE,f,f,NA,NA,NA,NA,6,"5,13,12,8,9,6,1,7,4,2,14,11,10,3,15"
14224,commdev-image-keyboard-response,530,967241,learnblock2,642.0999999940395,img/planet9_right.png,9,Community 1,NA,TRUE,j,j,NA,NA,NA,NA,6,"5,13,12,8,9,6,1,7,4,2,14,11,10,3,15"
14224,commdev-image-keyboard-response,531,968493,learnblock2,661.8999999985099,img/planet5_right.png,5,Community 1,NA,TRUE,j,j,NA,NA,NA,NA,6,"5,13,12,8,9,6,1,7,4,2,14,11,10,3,15"
14224,commdev-image-keyboard-response,532,969745,learnblock2,665.7000000029802,img/planet13_left.png,13,Community 1,NA,TRUE,f,f,NA,NA,NA,NA,6,"5,13,12,8,9,6,1,7,4,2,14,11,10,3,15"
14224,commdev-image-keyboard-response,533,970997,learnblock2,606,img/planet9_right.png,9,Community 1,NA,TRUE,j,j,NA,NA,NA,NA,6,"5,13,12,8,9,6,1,7,4,2,14,11,10,3,15"
14224,commdev-image-keyboard-response,534,972250,learnblock2,681.2999999970198,img/planet5_left.png,5,Community 1,NA,TRUE,f,f,NA,NA,NA,NA,6,"5,13,12,8,9,6,1,7,4,2,14,11,10,3,15"
14224,commdev-image-keyboard-response,535,973501,learnblock2,621,img/planet12_right.png,12,Community 1,NA,TRUE,j,j,NA,NA,NA,NA,6,"5,13,12,8,9,6,1,7,4,2,14,11,10,3,15"
14224,commdev-image-keyboard-response,536,974753,learnblock2,609.3000000044703,img/planet9_left.png,9,Community 1,NA,TRUE,f,f,NA,NA,NA,NA,6,"5,13,12,8,9,6,1,7,4,2,14,11,10,3,15"
14224,commdev-image-keyboard-response,537,976005,learnblock2,670.1000000014901,img/planet14_left.png,14,Community 3,NA,TRUE,f,f,NA,NA,NA,NA,6,"5,13,12,8,9,6,1,7,4,2,14,11,10,3,15"
14224,commdev-image-keyboard-response,538,977257,learnblock2,658.2999999970198,img/planet15_right.png,15,Community 3,NA,TRUE,j,j,NA,NA,NA,NA,6,"5,13,12,8,9,6,1,7,4,2,14,11,10,3,15"
14224,commdev-image-keyboard-response,539,978510,learnblock2,685.1000000014901,img/planet3_left.png,3,Community 3,NA,TRUE,f,f,NA,NA,NA,NA,6,"5,13,12,8,9,6,1,7,4,2,14,11,10,3,15"
14224,commdev-image-keyboard-response,540,979761,learnblock2,761.5,img/planet15_right.png,15,Community 3,NA,TRUE,j,j,NA,NA,NA,NA,6,"5,13,12,8,9,6,1,7,4,2,14,11,10,3,15"
14224,commdev-image-keyboard-response,541,981013,learnblock2,805.2999999970198,img/planet14_right.png,14,Community 3,NA,TRUE,j,j,NA,NA,NA,NA,6,"5,13,12,8,9,6,1,7,4,2,14,11,10,3,15"
14224,commdev-image-keyboard-response,542,982265,learnblock2,785.2000000029802,img/planet9_left.png,9,Community 1,NA,TRUE,f,f,NA,NA,NA,NA,6,"5,13,12,8,9,6,1,7,4,2,14,11,10,3,15"
14224,commdev-image-keyboard-response,543,983517,learnblock2,717.7999999970198,img/planet5_right.png,5,Community 1,NA,TRUE,j,j,NA,NA,NA,NA,6,"5,13,12,8,9,6,1,7,4,2,14,11,10,3,15"
14224,commdev-image-keyboard-response,544,984769,learnblock2,641.6000000014901,img/planet12_left.png,12,Community 1,NA,TRUE,f,f,NA,NA,NA,NA,6,"5,13,12,8,9,6,1,7,4,2,14,11,10,3,15"
14224,commdev-image-keyboard-response,545,986022,learnblock2,773.6000000014901,img/planet8_left.png,8,Community 1,NA,TRUE,f,f,NA,NA,NA,NA,6,"5,13,12,8,9,6,1,7,4,2,14,11,10,3,15"
14224,commdev-image-keyboard-response,546,987280,learnblock2,681.0999999940395,img/planet13_right.png,13,Community 1,NA,TRUE,j,j,NA,NA,NA,NA,6,"5,13,12,8,9,6,1,7,4,2,14,11,10,3,15"
14224,commdev-image-keyboard-response,547,988532,learnblock2,766.3999999985099,img/planet8_right.png,8,Community 1,NA,TRUE,j,j,NA,NA,NA,NA,6,"5,13,12,8,9,6,1,7,4,2,14,11,10,3,15"
14224,commdev-image-keyboard-response,548,989784,learnblock2,931.1000000014901,img/planet5_right.png,5,Community 1,NA,TRUE,j,j,NA,NA,NA,NA,6,"5,13,12,8,9,6,1,7,4,2,14,11,10,3,15"
14224,commdev-image-keyboard-response,549,991036,learnblock2,686.2000000029802,img/planet9_right.png,9,Community 1,NA,TRUE,j,j,NA,NA,NA,NA,6,"5,13,12,8,9,6,1,7,4,2,14,11,10,3,15"
14224,commdev-image-keyboard-response,550,992289,learnblock2,794.2999999970198,img/planet12_left.png,12,Community 1,NA,TRUE,f,f,NA,NA,NA,NA,6,"5,13,12,8,9,6,1,7,4,2,14,11,10,3,15"
14224,commdev-image-keyboard-response,551,993541,learnblock2,669.8999999985099,img/planet13_left.png,13,Community 1,NA,TRUE,f,f,NA,NA,NA,NA,6,"5,13,12,8,9,6,1,7,4,2,14,11,10,3,15"
14224,commdev-image-keyboard-response,552,994793,learnblock2,752.9000000059605,img/planet12_left.png,12,Community 1,NA,TRUE,f,f,NA,NA,NA,NA,6,"5,13,12,8,9,6,1,7,4,2,14,11,10,3,15"
14224,commdev-image-keyboard-response,553,996044,learnblock2,653.2999999970198,img/planet13_left.png,13,Community 1,NA,TRUE,f,f,NA,NA,NA,NA,6,"5,13,12,8,9,6,1,7,4,2,14,11,10,3,15"
14224,commdev-image-keyboard-response,554,997296,learnblock2,706.1000000014901,img/planet9_right.png,9,Community 1,NA,FALSE,f,j,NA,NA,NA,NA,6,"5,13,12,8,9,6,1,7,4,2,14,11,10,3,15"
14224,commdev-image-keyboard-response,555,998548,learnblock2,654.5999999940395,img/planet13_left.png,13,Community 1,NA,TRUE,f,f,NA,NA,NA,NA,6,"5,13,12,8,9,6,1,7,4,2,14,11,10,3,15"
14224,commdev-image-keyboard-response,556,999800,learnblock2,642.1999999955297,img/planet5_left.png,5,Community 1,NA,TRUE,f,f,NA,NA,NA,NA,6,"5,13,12,8,9,6,1,7,4,2,14,11,10,3,15"
14224,commdev-image-keyboard-response,557,1001052,learnblock2,655,img/planet13_left.png,13,Community 1,NA,TRUE,f,f,NA,NA,NA,NA,6,"5,13,12,8,9,6,1,7,4,2,14,11,10,3,15"
14224,commdev-image-keyboard-response,558,1002303,learnblock2,778.8999999985099,img/planet8_left.png,8,Community 1,NA,TRUE,f,f,NA,NA,NA,NA,6,"5,13,12,8,9,6,1,7,4,2,14,11,10,3,15"
14224,commdev-image-keyboard-response,559,1003555,learnblock2,631.5,img/planet6_right.png,6,Community 2,NA,TRUE,j,j,NA,NA,NA,NA,6,"5,13,12,8,9,6,1,7,4,2,14,11,10,3,15"
14224,commdev-image-keyboard-response,560,1004808,learnblock2,659.6999999955297,img/planet1_right.png,1,Community 2,NA,TRUE,j,j,NA,NA,NA,NA,6,"5,13,12,8,9,6,1,7,4,2,14,11,10,3,15"
14224,commdev-image-keyboard-response,561,1006059,learnblock2,799.3999999985099,img/planet4_left.png,4,Community 2,NA,TRUE,f,f,NA,NA,NA,NA,6,"5,13,12,8,9,6,1,7,4,2,14,11,10,3,15"
14224,commdev-image-keyboard-response,562,1007312,learnblock2,619.3000000044703,img/planet1_right.png,1,Community 2,NA,TRUE,j,j,NA,NA,NA,NA,6,"5,13,12,8,9,6,1,7,4,2,14,11,10,3,15"
14224,commdev-image-keyboard-response,563,1008563,learnblock2,551.1999999955297,img/planet4_left.png,4,Community 2,NA,TRUE,f,f,NA,NA,NA,NA,6,"5,13,12,8,9,6,1,7,4,2,14,11,10,3,15"
14224,commdev-image-keyboard-response,564,1009815,learnblock2,699.7999999970198,img/planet6_left.png,6,Community 2,NA,TRUE,f,f,NA,NA,NA,NA,6,"5,13,12,8,9,6,1,7,4,2,14,11,10,3,15"
14224,commdev-image-keyboard-response,565,1011067,learnblock2,824.5,img/planet8_right.png,8,Community 1,NA,TRUE,j,j,NA,NA,NA,NA,6,"5,13,12,8,9,6,1,7,4,2,14,11,10,3,15"
14224,commdev-image-keyboard-response,566,1012318,learnblock2,788,img/planet6_right.png,6,Community 2,NA,TRUE,j,j,NA,NA,NA,NA,6,"5,13,12,8,9,6,1,7,4,2,14,11,10,3,15"
14224,commdev-image-keyboard-response,567,1013585,learnblock2,728.6000000014901,img/planet1_right.png,1,Community 2,NA,TRUE,j,j,NA,NA,NA,NA,6,"5,13,12,8,9,6,1,7,4,2,14,11,10,3,15"
14224,commdev-image-keyboard-response,568,1014837,learnblock2,677.7999999970198,img/planet7_right.png,7,Community 2,NA,TRUE,j,j,NA,NA,NA,NA,6,"5,13,12,8,9,6,1,7,4,2,14,11,10,3,15"
14224,commdev-image-keyboard-response,569,1016089,learnblock2,744.8000000044703,img/planet2_left.png,2,Community 2,NA,TRUE,f,f,NA,NA,NA,NA,6,"5,13,12,8,9,6,1,7,4,2,14,11,10,3,15"
14224,commdev-image-keyboard-response,570,1017341,learnblock2,597.3999999985099,img/planet7_right.png,7,Community 2,NA,TRUE,j,j,NA,NA,NA,NA,6,"5,13,12,8,9,6,1,7,4,2,14,11,10,3,15"
14224,commdev-image-keyboard-response,571,1018593,learnblock2,657.6000000014901,img/planet1_right.png,1,Community 2,NA,TRUE,j,j,NA,NA,NA,NA,6,"5,13,12,8,9,6,1,7,4,2,14,11,10,3,15"
14224,commdev-image-keyboard-response,572,1019845,learnblock2,749.7000000029802,img/planet7_left.png,7,Community 2,NA,TRUE,f,f,NA,NA,NA,NA,6,"5,13,12,8,9,6,1,7,4,2,14,11,10,3,15"
14224,commdev-image-keyboard-response,573,1021097,learnblock2,569.8999999985099,img/planet2_right.png,2,Community 2,NA,TRUE,j,j,NA,NA,NA,NA,6,"5,13,12,8,9,6,1,7,4,2,14,11,10,3,15"
14224,commdev-image-keyboard-response,574,1022349,learnblock2,582.1000000014901,img/planet1_right.png,1,Community 2,NA,TRUE,j,j,NA,NA,NA,NA,6,"5,13,12,8,9,6,1,7,4,2,14,11,10,3,15"
14224,commdev-image-keyboard-response,575,1023602,learnblock2,529.6000000014901,img/planet4_left.png,4,Community 2,NA,TRUE,f,f,NA,NA,NA,NA,6,"5,13,12,8,9,6,1,7,4,2,14,11,10,3,15"
14224,commdev-image-keyboard-response,576,1024854,learnblock2,653.1000000014901,img/planet7_left.png,7,Community 2,NA,TRUE,f,f,NA,NA,NA,NA,6,"5,13,12,8,9,6,1,7,4,2,14,11,10,3,15"
14224,commdev-image-keyboard-response,577,1026106,learnblock2,553.1999999955297,img/planet2_right.png,2,Community 2,NA,TRUE,j,j,NA,NA,NA,NA,6,"5,13,12,8,9,6,1,7,4,2,14,11,10,3,15"
14224,commdev-image-keyboard-response,578,1027358,learnblock2,564.8999999985099,img/planet6_right.png,6,Community 2,NA,TRUE,j,j,NA,NA,NA,NA,6,"5,13,12,8,9,6,1,7,4,2,14,11,10,3,15"
14224,commdev-image-keyboard-response,579,1028610,learnblock2,592.9000000059605,img/planet1_left.png,1,Community 2,NA,TRUE,f,f,NA,NA,NA,NA,6,"5,13,12,8,9,6,1,7,4,2,14,11,10,3,15"
14224,commdev-image-keyboard-response,580,1029862,learnblock2,652,img/planet2_right.png,2,Community 2,NA,TRUE,j,j,NA,NA,NA,NA,6,"5,13,12,8,9,6,1,7,4,2,14,11,10,3,15"
14224,commdev-image-keyboard-response,581,1031114,learnblock2,617.5,img/planet4_left.png,4,Community 2,NA,TRUE,f,f,NA,NA,NA,NA,6,"5,13,12,8,9,6,1,7,4,2,14,11,10,3,15"
14224,commdev-image-keyboard-response,582,1032365,learnblock2,797,img/planet7_left.png,7,Community 2,NA,TRUE,f,f,NA,NA,NA,NA,6,"5,13,12,8,9,6,1,7,4,2,14,11,10,3,15"
