subject_id,trial_type,trial_index,time_elapsed,block,rt,stimulus,planet,community,response,correct,key_press,learning_correct_response,parse,init_locations,final_locations,browser_interactions,num_comp,planet_map
14269,commdev-instructions,7,71519,NA,4148.199999988079,"<p>In this game, you are a scientist on board a space shuttle. </p><p> On each mission, you will visit planets all across the universe.</p><img src=""img/controlroom.jpg"" width=300vw>",NA,NA,NA,NA,NA,NA,NA,NA,NA,1,7,"13,1,9,8,6,3,10,12,7,2,15,4,14,11,5"
14269,commdev-instructions,8,85326,NA,11726.300000011921,"<p>Here are a few planets you might see:</p><img src=""img/practice1.png"" width=200vw><img src=""img/practice2.png"" width=200vw><img src=""img/practice3.png"" width=200vw>",NA,NA,NA,NA,NA,NA,NA,NA,NA,1,7,"13,1,9,8,6,3,10,12,7,2,15,4,14,11,5"
14269,commdev-instructions,9,109707,NA,16978,"<p>Your job as a scientist is to record which direction the winds are moving on each planet.</p><p>There are two types of wind directions:</p><img src=""img/practice1_left.png"" width=200vw><img src=""img/practice1_right.png"" width=200vw>",NA,NA,NA,NA,NA,NA,NA,NA,NA,1,7,"13,1,9,8,6,3,10,12,7,2,15,4,14,11,5"
14269,commdev-instructions,10,118447,NA,3849.199999988079,"<p>If the winds are moving this way, press the letter <strong>F</strong> on the keyboard as fast as you can.</p><img src=""img/leftwind.png"" width=250vw>",NA,NA,NA,NA,NA,NA,NA,NA,NA,1,7,"13,1,9,8,6,3,10,12,7,2,15,4,14,11,5"
14269,commdev-instructions,11,129998,NA,7049.399999976158,"<p>If the winds are moving this way, press the letter <strong>J</strong> on the keyboard as fast as you can.</p><img src=""img/rightwind.png"" width=350vw>",NA,NA,NA,NA,NA,NA,NA,NA,NA,1,7,"13,1,9,8,6,3,10,12,7,2,15,4,14,11,5"
14269,commdev-instructions,12,142051,NA,7622.5,<p>You will have 1 second to respond. Try to respond before the time runs out!,NA,NA,NA,NA,NA,NA,NA,NA,NA,1,7,"13,1,9,8,6,3,10,12,7,2,15,4,14,11,5"
14269,commdev-instructions,13,151128,NA,3650.300000011921,<p>The planets you will visit will look different from each other.</p><p>You should respond <strong>only</strong> based on wind direction.,NA,NA,NA,NA,NA,NA,NA,NA,NA,1,7,"13,1,9,8,6,3,10,12,7,2,15,4,14,11,5"
14269,commdev-instructions,14,164659,NA,8349.899999976158,"<p> Ready to start the practice round? </p><p> Remember, press <strong>F</strong> or <strong>J</strong> depending on the wind direction.<br><img src=""img/categorize_planet_example.png""",NA,NA,NA,NA,NA,NA,NA,NA,NA,1,7,"13,1,9,8,6,3,10,12,7,2,15,4,14,11,5"
14269,commdev-instructions,26,220055,NA,1634.5,"<p>Great, now try a short practice mission. </p><p> This time, you will have 1 second to respond and you won't know whether you pressed the right or wrong key for each planet.</p>",NA,NA,NA,NA,NA,NA,NA,NA,NA,1,7,"13,1,9,8,6,3,10,12,7,2,15,4,14,11,5"
14269,commdev-image-keyboard-response,27,221420,practice,1134.5999999642372,img/practice1_right.png,NA,Number not found in mappings,NA,TRUE,j,j,NA,NA,NA,1,7,"13,1,9,8,6,3,10,12,7,2,15,4,14,11,5"
14269,commdev-image-keyboard-response,28,222683,practice,null,img/practice3_right.png,NA,Number not found in mappings,NA,FALSE,null,j,NA,NA,NA,1,7,"13,1,9,8,6,3,10,12,7,2,15,4,14,11,5"
14269,commdev-image-keyboard-response,29,223947,practice,1090,img/practice1_left.png,NA,Number not found in mappings,NA,TRUE,f,f,NA,NA,NA,1,7,"13,1,9,8,6,3,10,12,7,2,15,4,14,11,5"
14269,commdev-image-keyboard-response,30,225211,practice,652.6999999880791,img/practice4_right.png,NA,Number not found in mappings,NA,TRUE,j,j,NA,NA,NA,1,7,"13,1,9,8,6,3,10,12,7,2,15,4,14,11,5"
14269,commdev-image-keyboard-response,31,226475,practice,755.9000000357628,img/practice2_right.png,NA,Number not found in mappings,NA,TRUE,j,j,NA,NA,NA,1,7,"13,1,9,8,6,3,10,12,7,2,15,4,14,11,5"
14269,commdev-image-keyboard-response,32,227739,practice,468.19999998807907,img/practice4_left.png,NA,Number not found in mappings,NA,TRUE,f,f,NA,NA,NA,1,7,"13,1,9,8,6,3,10,12,7,2,15,4,14,11,5"
14269,commdev-image-keyboard-response,33,229003,practice,588.1999999880791,img/practice1_right.png,NA,Number not found in mappings,NA,TRUE,j,j,NA,NA,NA,1,7,"13,1,9,8,6,3,10,12,7,2,15,4,14,11,5"
14269,commdev-image-keyboard-response,34,230267,practice,623,img/practice2_right.png,NA,Number not found in mappings,NA,TRUE,j,j,NA,NA,NA,1,7,"13,1,9,8,6,3,10,12,7,2,15,4,14,11,5"
14269,commdev-instructions,35,240777,NA,959.0999999642372,"<p>Great job with the practice round.</p><p>During real missions, you won't know whether you pressed the right or wrong key for each planet.</p><p>But between missions, we will tell you how you did overall.</p>",NA,NA,NA,NA,NA,NA,NA,NA,NA,1,7,"13,1,9,8,6,3,10,12,7,2,15,4,14,11,5"
14269,commdev-instructions,36,249955,NA,926.2999999523163,<p>Try your best! You will be paid a bonus based on how many correct responses you make!</p><p>Responses that are too slow will not count toward your bonus.</p>,NA,NA,NA,NA,NA,NA,NA,NA,NA,1,7,"13,1,9,8,6,3,10,12,7,2,15,4,14,11,5"
14269,commdev-instructions,37,257338,NA,1179.8999999761581,"<p>You are almost ready to start the real game.</p><p> First, we are going to ask you some questions about how the game works.</p>",NA,NA,NA,NA,NA,NA,NA,NA,NA,1,7,"13,1,9,8,6,3,10,12,7,2,15,4,14,11,5"
14269,commdev-instructions,46,339222,NA,3113.2999999523163,"<p> Nice work! It is now time to start the real game.<p></p>You will go on two missions to record wind directions of different planets.<p></p>Each one will take about 5 minutes. You will get to take a break between missions.<p><p> Remember, press <strong>F</strong> or <strong>J</strong> depending on the wind direction. Good luck!<br><img src=""img/categorize_planet_example.png""",NA,NA,NA,NA,NA,NA,NA,NA,NA,1,7,"13,1,9,8,6,3,10,12,7,2,15,4,14,11,5"
14269,commdev-image-keyboard-response,48,353036,learnblock1,null,img/planet6_left.png,6,Community 1,NA,FALSE,null,f,NA,NA,NA,1,7,"13,1,9,8,6,3,10,12,7,2,15,4,14,11,5"
14269,commdev-image-keyboard-response,49,354300,learnblock1,3.200000047683716,img/planet1_left.png,1,Community 1,NA,TRUE,f,f,NA,NA,NA,1,7,"13,1,9,8,6,3,10,12,7,2,15,4,14,11,5"
14269,commdev-image-keyboard-response,50,355563,learnblock1,810,img/planet13_left.png,13,Community 1,NA,TRUE,f,f,NA,NA,NA,1,7,"13,1,9,8,6,3,10,12,7,2,15,4,14,11,5"
14269,commdev-image-keyboard-response,51,356828,learnblock1,683.3000000119209,img/planet8_right.png,8,Community 1,NA,TRUE,j,j,NA,NA,NA,1,7,"13,1,9,8,6,3,10,12,7,2,15,4,14,11,5"
14269,commdev-image-keyboard-response,52,358092,learnblock1,619.1000000238419,img/planet13_left.png,13,Community 1,NA,TRUE,f,f,NA,NA,NA,1,7,"13,1,9,8,6,3,10,12,7,2,15,4,14,11,5"
14269,commdev-image-keyboard-response,53,359356,learnblock1,685.3000000119209,img/planet8_right.png,8,Community 1,NA,TRUE,j,j,NA,NA,NA,1,7,"13,1,9,8,6,3,10,12,7,2,15,4,14,11,5"
14269,commdev-image-keyboard-response,54,360621,learnblock1,823.1000000238419,img/planet1_right.png,1,Community 1,NA,TRUE,j,j,NA,NA,NA,1,7,"13,1,9,8,6,3,10,12,7,2,15,4,14,11,5"
14269,commdev-image-keyboard-response,55,361884,learnblock1,664.3000000119209,img/planet8_left.png,8,Community 1,NA,TRUE,f,f,NA,NA,NA,1,7,"13,1,9,8,6,3,10,12,7,2,15,4,14,11,5"
14269,commdev-image-keyboard-response,56,363147,learnblock1,702.5999999642372,img/planet9_left.png,9,Community 1,NA,TRUE,f,f,NA,NA,NA,1,7,"13,1,9,8,6,3,10,12,7,2,15,4,14,11,5"
14269,commdev-image-keyboard-response,57,364412,learnblock1,812.1999999880791,img/planet8_left.png,8,Community 1,NA,TRUE,f,f,NA,NA,NA,1,7,"13,1,9,8,6,3,10,12,7,2,15,4,14,11,5"
14269,commdev-image-keyboard-response,58,365676,learnblock1,778.6000000238419,img/planet1_right.png,1,Community 1,NA,TRUE,j,j,NA,NA,NA,1,7,"13,1,9,8,6,3,10,12,7,2,15,4,14,11,5"
14269,commdev-image-keyboard-response,59,366940,learnblock1,784.8999999761581,img/planet8_right.png,8,Community 1,NA,TRUE,j,j,NA,NA,NA,1,7,"13,1,9,8,6,3,10,12,7,2,15,4,14,11,5"
14269,commdev-image-keyboard-response,60,368203,learnblock1,699.5,img/planet9_right.png,9,Community 1,NA,TRUE,j,j,NA,NA,NA,1,7,"13,1,9,8,6,3,10,12,7,2,15,4,14,11,5"
14269,commdev-image-keyboard-response,61,369467,learnblock1,704,img/planet6_right.png,6,Community 1,NA,TRUE,j,j,NA,NA,NA,1,7,"13,1,9,8,6,3,10,12,7,2,15,4,14,11,5"
14269,commdev-image-keyboard-response,62,370732,learnblock1,598,img/planet1_right.png,1,Community 1,NA,TRUE,j,j,NA,NA,NA,1,7,"13,1,9,8,6,3,10,12,7,2,15,4,14,11,5"
14269,commdev-image-keyboard-response,63,371996,learnblock1,730.5,img/planet13_right.png,13,Community 1,NA,TRUE,j,j,NA,NA,NA,1,7,"13,1,9,8,6,3,10,12,7,2,15,4,14,11,5"
14269,commdev-image-keyboard-response,64,373259,learnblock1,683.5999999642372,img/planet9_left.png,9,Community 1,NA,TRUE,f,f,NA,NA,NA,1,7,"13,1,9,8,6,3,10,12,7,2,15,4,14,11,5"
14269,commdev-image-keyboard-response,65,374524,learnblock1,657.6999999880791,img/planet13_right.png,13,Community 1,NA,TRUE,j,j,NA,NA,NA,1,7,"13,1,9,8,6,3,10,12,7,2,15,4,14,11,5"
14269,commdev-image-keyboard-response,66,375788,learnblock1,574,img/planet1_left.png,1,Community 1,NA,TRUE,f,f,NA,NA,NA,1,7,"13,1,9,8,6,3,10,12,7,2,15,4,14,11,5"
14269,commdev-image-keyboard-response,67,377052,learnblock1,727.3000000119209,img/planet8_left.png,8,Community 1,NA,TRUE,f,f,NA,NA,NA,1,7,"13,1,9,8,6,3,10,12,7,2,15,4,14,11,5"
14269,commdev-image-keyboard-response,68,378315,learnblock1,696.5,img/planet3_left.png,3,Community 2,NA,TRUE,f,f,NA,NA,NA,1,7,"13,1,9,8,6,3,10,12,7,2,15,4,14,11,5"
14269,commdev-image-keyboard-response,69,379579,learnblock1,540.8999999761581,img/planet10_left.png,10,Community 2,NA,TRUE,f,f,NA,NA,NA,1,7,"13,1,9,8,6,3,10,12,7,2,15,4,14,11,5"
14269,commdev-image-keyboard-response,70,380843,learnblock1,597.6000000238419,img/planet12_right.png,12,Community 2,NA,TRUE,j,j,NA,NA,NA,1,7,"13,1,9,8,6,3,10,12,7,2,15,4,14,11,5"
14269,commdev-image-keyboard-response,71,382107,learnblock1,577.6999999880791,img/planet7_left.png,7,Community 2,NA,TRUE,f,f,NA,NA,NA,1,7,"13,1,9,8,6,3,10,12,7,2,15,4,14,11,5"
14269,commdev-image-keyboard-response,72,383372,learnblock1,662.8000000119209,img/planet2_left.png,2,Community 2,NA,TRUE,f,f,NA,NA,NA,1,7,"13,1,9,8,6,3,10,12,7,2,15,4,14,11,5"
14269,commdev-image-keyboard-response,73,384635,learnblock1,713.5,img/planet10_left.png,10,Community 2,NA,TRUE,f,f,NA,NA,NA,1,7,"13,1,9,8,6,3,10,12,7,2,15,4,14,11,5"
14269,commdev-image-keyboard-response,74,385900,learnblock1,1145.5999999642372,img/planet3_left.png,3,Community 2,NA,FALSE,j,f,NA,NA,NA,1,7,"13,1,9,8,6,3,10,12,7,2,15,4,14,11,5"
14269,commdev-image-keyboard-response,75,387163,learnblock1,820.7999999523163,img/planet8_right.png,8,Community 1,NA,FALSE,f,j,NA,NA,NA,1,7,"13,1,9,8,6,3,10,12,7,2,15,4,14,11,5"
14269,commdev-image-keyboard-response,76,388428,learnblock1,838.8999999761581,img/planet1_right.png,1,Community 1,NA,FALSE,f,j,NA,NA,NA,1,7,"13,1,9,8,6,3,10,12,7,2,15,4,14,11,5"
14269,commdev-image-keyboard-response,77,389691,learnblock1,53.60000002384186,img/planet8_right.png,8,Community 1,NA,TRUE,j,j,NA,NA,NA,1,7,"13,1,9,8,6,3,10,12,7,2,15,4,14,11,5"
14269,commdev-image-keyboard-response,78,390956,learnblock1,573.6000000238419,img/planet1_left.png,1,Community 1,NA,TRUE,f,f,NA,NA,NA,1,7,"13,1,9,8,6,3,10,12,7,2,15,4,14,11,5"
14269,commdev-image-keyboard-response,79,392219,learnblock1,716.3999999761581,img/planet6_left.png,6,Community 1,NA,TRUE,f,f,NA,NA,NA,1,7,"13,1,9,8,6,3,10,12,7,2,15,4,14,11,5"
14269,commdev-image-keyboard-response,80,393483,learnblock1,662.3000000119209,img/planet15_right.png,15,Community 3,NA,TRUE,j,j,NA,NA,NA,1,7,"13,1,9,8,6,3,10,12,7,2,15,4,14,11,5"
14269,commdev-image-keyboard-response,81,394748,learnblock1,687.1000000238419,img/planet11_left.png,11,Community 3,NA,TRUE,f,f,NA,NA,NA,1,7,"13,1,9,8,6,3,10,12,7,2,15,4,14,11,5"
14269,commdev-image-keyboard-response,82,396011,learnblock1,664.9000000357628,img/planet5_right.png,5,Community 3,NA,TRUE,j,j,NA,NA,NA,1,7,"13,1,9,8,6,3,10,12,7,2,15,4,14,11,5"
14269,commdev-image-keyboard-response,83,397275,learnblock1,662,img/planet14_left.png,14,Community 3,NA,TRUE,f,f,NA,NA,NA,1,7,"13,1,9,8,6,3,10,12,7,2,15,4,14,11,5"
14269,commdev-image-keyboard-response,84,398539,learnblock1,771.3999999761581,img/planet4_left.png,4,Community 3,NA,TRUE,f,f,NA,NA,NA,1,7,"13,1,9,8,6,3,10,12,7,2,15,4,14,11,5"
14269,commdev-image-keyboard-response,85,399803,learnblock1,649.6000000238419,img/planet12_right.png,12,Community 2,NA,TRUE,j,j,NA,NA,NA,1,7,"13,1,9,8,6,3,10,12,7,2,15,4,14,11,5"
14269,commdev-image-keyboard-response,86,401068,learnblock1,530.0999999642372,img/planet2_left.png,2,Community 2,NA,TRUE,f,f,NA,NA,NA,1,7,"13,1,9,8,6,3,10,12,7,2,15,4,14,11,5"
14269,commdev-image-keyboard-response,87,402331,learnblock1,565.5,img/planet10_right.png,10,Community 2,NA,TRUE,j,j,NA,NA,NA,1,7,"13,1,9,8,6,3,10,12,7,2,15,4,14,11,5"
14269,commdev-image-keyboard-response,88,403595,learnblock1,735.1999999880791,img/planet7_right.png,7,Community 2,NA,TRUE,j,j,NA,NA,NA,1,7,"13,1,9,8,6,3,10,12,7,2,15,4,14,11,5"
14269,commdev-image-keyboard-response,89,404860,learnblock1,762.1999999880791,img/planet10_right.png,10,Community 2,NA,TRUE,j,j,NA,NA,NA,1,7,"13,1,9,8,6,3,10,12,7,2,15,4,14,11,5"
14269,commdev-image-keyboard-response,90,406124,learnblock1,647.8999999761581,img/planet12_left.png,12,Community 2,NA,TRUE,f,f,NA,NA,NA,1,7,"13,1,9,8,6,3,10,12,7,2,15,4,14,11,5"
14269,commdev-image-keyboard-response,91,407387,learnblock1,715.4000000357628,img/planet4_left.png,4,Community 3,NA,TRUE,f,f,NA,NA,NA,1,7,"13,1,9,8,6,3,10,12,7,2,15,4,14,11,5"
14269,commdev-image-keyboard-response,92,408651,learnblock1,811.8000000119209,img/planet12_left.png,12,Community 2,NA,TRUE,f,f,NA,NA,NA,1,7,"13,1,9,8,6,3,10,12,7,2,15,4,14,11,5"
14269,commdev-image-keyboard-response,93,409916,learnblock1,691.0999999642372,img/planet4_left.png,4,Community 3,NA,TRUE,f,f,NA,NA,NA,1,7,"13,1,9,8,6,3,10,12,7,2,15,4,14,11,5"
14269,commdev-image-keyboard-response,94,411179,learnblock1,599.9000000357628,img/planet14_left.png,14,Community 3,NA,TRUE,f,f,NA,NA,NA,1,7,"13,1,9,8,6,3,10,12,7,2,15,4,14,11,5"
14269,commdev-image-keyboard-response,95,412443,learnblock1,506,img/planet15_right.png,15,Community 3,NA,TRUE,j,j,NA,NA,NA,1,7,"13,1,9,8,6,3,10,12,7,2,15,4,14,11,5"
14269,commdev-image-keyboard-response,96,413708,learnblock1,570.6999999880791,img/planet11_left.png,11,Community 3,NA,TRUE,f,f,NA,NA,NA,1,7,"13,1,9,8,6,3,10,12,7,2,15,4,14,11,5"
14269,commdev-image-keyboard-response,97,414971,learnblock1,628.6999999880791,img/planet5_right.png,5,Community 3,NA,TRUE,j,j,NA,NA,NA,1,7,"13,1,9,8,6,3,10,12,7,2,15,4,14,11,5"
14269,commdev-image-keyboard-response,98,416235,learnblock1,643.1999999880791,img/planet4_right.png,4,Community 3,NA,TRUE,j,j,NA,NA,NA,1,7,"13,1,9,8,6,3,10,12,7,2,15,4,14,11,5"
14269,commdev-image-keyboard-response,99,417499,learnblock1,623,img/planet5_left.png,5,Community 3,NA,TRUE,f,f,NA,NA,NA,1,7,"13,1,9,8,6,3,10,12,7,2,15,4,14,11,5"
14269,commdev-image-keyboard-response,100,418763,learnblock1,1124,img/planet4_left.png,4,Community 3,NA,FALSE,j,f,NA,NA,NA,1,7,"13,1,9,8,6,3,10,12,7,2,15,4,14,11,5"
14269,commdev-image-keyboard-response,101,420027,learnblock1,933.7000000476837,img/planet5_right.png,5,Community 3,NA,FALSE,f,j,NA,NA,NA,1,7,"13,1,9,8,6,3,10,12,7,2,15,4,14,11,5"
14269,commdev-image-keyboard-response,102,421291,learnblock1,1048.4000000357628,img/planet4_right.png,4,Community 3,NA,TRUE,j,j,NA,NA,NA,1,7,"13,1,9,8,6,3,10,12,7,2,15,4,14,11,5"
14269,commdev-image-keyboard-response,103,422555,learnblock1,772.8000000119209,img/planet5_left.png,5,Community 3,NA,TRUE,f,f,NA,NA,NA,1,7,"13,1,9,8,6,3,10,12,7,2,15,4,14,11,5"
14269,commdev-image-keyboard-response,104,423820,learnblock1,686,img/planet15_right.png,15,Community 3,NA,TRUE,j,j,NA,NA,NA,1,7,"13,1,9,8,6,3,10,12,7,2,15,4,14,11,5"
14269,commdev-image-keyboard-response,105,425083,learnblock1,618.8000000119209,img/planet11_left.png,11,Community 3,NA,TRUE,f,f,NA,NA,NA,1,7,"13,1,9,8,6,3,10,12,7,2,15,4,14,11,5"
14269,commdev-image-keyboard-response,106,426347,learnblock1,685,img/planet5_left.png,5,Community 3,NA,TRUE,f,f,NA,NA,NA,1,7,"13,1,9,8,6,3,10,12,7,2,15,4,14,11,5"
14269,commdev-image-keyboard-response,107,427611,learnblock1,598.3000000119209,img/planet14_right.png,14,Community 3,NA,TRUE,j,j,NA,NA,NA,1,7,"13,1,9,8,6,3,10,12,7,2,15,4,14,11,5"
14269,commdev-image-keyboard-response,108,428876,learnblock1,851.1999999880791,img/planet11_right.png,11,Community 3,NA,TRUE,j,j,NA,NA,NA,1,7,"13,1,9,8,6,3,10,12,7,2,15,4,14,11,5"
14269,commdev-image-keyboard-response,109,430139,learnblock1,658.4000000357628,img/planet15_left.png,15,Community 3,NA,TRUE,f,f,NA,NA,NA,1,7,"13,1,9,8,6,3,10,12,7,2,15,4,14,11,5"
14269,commdev-image-keyboard-response,110,431404,learnblock1,569.5999999642372,img/planet6_right.png,6,Community 1,NA,TRUE,j,j,NA,NA,NA,1,7,"13,1,9,8,6,3,10,12,7,2,15,4,14,11,5"
14269,commdev-image-keyboard-response,111,432667,learnblock1,628.5,img/planet1_right.png,1,Community 1,NA,TRUE,j,j,NA,NA,NA,1,7,"13,1,9,8,6,3,10,12,7,2,15,4,14,11,5"
14269,commdev-image-keyboard-response,112,433931,learnblock1,584.8999999761581,img/planet6_left.png,6,Community 1,NA,TRUE,f,f,NA,NA,NA,1,7,"13,1,9,8,6,3,10,12,7,2,15,4,14,11,5"
14269,commdev-image-keyboard-response,113,435196,learnblock1,664.2999999523163,img/planet13_right.png,13,Community 1,NA,TRUE,j,j,NA,NA,NA,1,7,"13,1,9,8,6,3,10,12,7,2,15,4,14,11,5"
14269,commdev-image-keyboard-response,114,436459,learnblock1,598.1999999880791,img/planet9_right.png,9,Community 1,NA,TRUE,j,j,NA,NA,NA,1,7,"13,1,9,8,6,3,10,12,7,2,15,4,14,11,5"
14269,commdev-image-keyboard-response,115,437723,learnblock1,880.1999999880791,img/planet6_right.png,6,Community 1,NA,TRUE,j,j,NA,NA,NA,1,7,"13,1,9,8,6,3,10,12,7,2,15,4,14,11,5"
14269,commdev-image-keyboard-response,116,438987,learnblock1,708.7999999523163,img/planet1_right.png,1,Community 1,NA,FALSE,f,j,NA,NA,NA,1,7,"13,1,9,8,6,3,10,12,7,2,15,4,14,11,5"
14269,commdev-image-keyboard-response,117,440251,learnblock1,806.6999999880791,img/planet13_right.png,13,Community 1,NA,TRUE,j,j,NA,NA,NA,1,7,"13,1,9,8,6,3,10,12,7,2,15,4,14,11,5"
14269,commdev-image-keyboard-response,118,441516,learnblock1,798.1999999880791,img/planet8_right.png,8,Community 1,NA,FALSE,f,j,NA,NA,NA,1,7,"13,1,9,8,6,3,10,12,7,2,15,4,14,11,5"
14269,commdev-image-keyboard-response,119,442779,learnblock1,879.8999999761581,img/planet9_right.png,9,Community 1,NA,TRUE,j,j,NA,NA,NA,1,7,"13,1,9,8,6,3,10,12,7,2,15,4,14,11,5"
14269,commdev-image-keyboard-response,120,444043,learnblock1,616.6999999880791,img/planet13_left.png,13,Community 1,NA,TRUE,f,f,NA,NA,NA,1,7,"13,1,9,8,6,3,10,12,7,2,15,4,14,11,5"
14269,commdev-image-keyboard-response,121,445308,learnblock1,740.4000000357628,img/planet6_left.png,6,Community 1,NA,TRUE,f,f,NA,NA,NA,1,7,"13,1,9,8,6,3,10,12,7,2,15,4,14,11,5"
14269,commdev-image-keyboard-response,122,446571,learnblock1,669.8999999761581,img/planet9_left.png,9,Community 1,NA,FALSE,j,f,NA,NA,NA,1,7,"13,1,9,8,6,3,10,12,7,2,15,4,14,11,5"
14269,commdev-image-keyboard-response,123,447836,learnblock1,635.4000000357628,img/planet1_left.png,1,Community 1,NA,TRUE,f,f,NA,NA,NA,1,7,"13,1,9,8,6,3,10,12,7,2,15,4,14,11,5"
14269,commdev-image-keyboard-response,124,449099,learnblock1,704,img/planet9_left.png,9,Community 1,NA,TRUE,f,f,NA,NA,NA,1,7,"13,1,9,8,6,3,10,12,7,2,15,4,14,11,5"
14269,commdev-image-keyboard-response,125,450362,learnblock1,623.5,img/planet1_right.png,1,Community 1,NA,TRUE,j,j,NA,NA,NA,1,7,"13,1,9,8,6,3,10,12,7,2,15,4,14,11,5"
14269,commdev-image-keyboard-response,126,451627,learnblock1,904.4000000357628,img/planet8_right.png,8,Community 1,NA,TRUE,j,j,NA,NA,NA,1,7,"13,1,9,8,6,3,10,12,7,2,15,4,14,11,5"
14269,commdev-image-keyboard-response,127,452892,learnblock1,581,img/planet9_left.png,9,Community 1,NA,TRUE,f,f,NA,NA,NA,1,7,"13,1,9,8,6,3,10,12,7,2,15,4,14,11,5"
14269,commdev-image-keyboard-response,128,454156,learnblock1,566.5999999642372,img/planet13_right.png,13,Community 1,NA,TRUE,j,j,NA,NA,NA,1,7,"13,1,9,8,6,3,10,12,7,2,15,4,14,11,5"
14269,commdev-image-keyboard-response,129,455419,learnblock1,712.1999999880791,img/planet1_right.png,1,Community 1,NA,TRUE,j,j,NA,NA,NA,1,7,"13,1,9,8,6,3,10,12,7,2,15,4,14,11,5"
14269,commdev-image-keyboard-response,130,456684,learnblock1,634.8000000119209,img/planet8_left.png,8,Community 1,NA,TRUE,f,f,NA,NA,NA,1,7,"13,1,9,8,6,3,10,12,7,2,15,4,14,11,5"
14269,commdev-image-keyboard-response,131,457946,learnblock1,642,img/planet9_right.png,9,Community 1,NA,TRUE,j,j,NA,NA,NA,1,7,"13,1,9,8,6,3,10,12,7,2,15,4,14,11,5"
14269,commdev-image-keyboard-response,132,459211,learnblock1,974,img/planet1_left.png,1,Community 1,NA,TRUE,f,f,NA,NA,NA,1,7,"13,1,9,8,6,3,10,12,7,2,15,4,14,11,5"
14269,commdev-image-keyboard-response,133,460475,learnblock1,666.6000000238419,img/planet9_right.png,9,Community 1,NA,TRUE,j,j,NA,NA,NA,1,7,"13,1,9,8,6,3,10,12,7,2,15,4,14,11,5"
14269,commdev-image-keyboard-response,134,461739,learnblock1,565,img/planet6_left.png,6,Community 1,NA,TRUE,f,f,NA,NA,NA,1,7,"13,1,9,8,6,3,10,12,7,2,15,4,14,11,5"
14269,commdev-image-keyboard-response,135,463003,learnblock1,522.8999999761581,img/planet9_right.png,9,Community 1,NA,TRUE,j,j,NA,NA,NA,1,7,"13,1,9,8,6,3,10,12,7,2,15,4,14,11,5"
14269,commdev-image-keyboard-response,136,464267,learnblock1,575.3999999761581,img/planet1_right.png,1,Community 1,NA,TRUE,j,j,NA,NA,NA,1,7,"13,1,9,8,6,3,10,12,7,2,15,4,14,11,5"
14269,commdev-image-keyboard-response,137,465531,learnblock1,799.4000000357628,img/planet13_right.png,13,Community 1,NA,TRUE,j,j,NA,NA,NA,1,7,"13,1,9,8,6,3,10,12,7,2,15,4,14,11,5"
14269,commdev-image-keyboard-response,138,466795,learnblock1,561.1000000238419,img/planet9_left.png,9,Community 1,NA,TRUE,f,f,NA,NA,NA,1,7,"13,1,9,8,6,3,10,12,7,2,15,4,14,11,5"
14269,commdev-image-keyboard-response,139,468060,learnblock1,558.5,img/planet13_right.png,13,Community 1,NA,TRUE,j,j,NA,NA,NA,1,7,"13,1,9,8,6,3,10,12,7,2,15,4,14,11,5"
14269,commdev-image-keyboard-response,140,469323,learnblock1,576.2999999523163,img/planet1_left.png,1,Community 1,NA,TRUE,f,f,NA,NA,NA,1,7,"13,1,9,8,6,3,10,12,7,2,15,4,14,11,5"
14269,commdev-image-keyboard-response,141,470587,learnblock1,859.2000000476837,img/planet8_left.png,8,Community 1,NA,TRUE,f,f,NA,NA,NA,1,7,"13,1,9,8,6,3,10,12,7,2,15,4,14,11,5"
14269,commdev-image-keyboard-response,142,471852,learnblock1,706.1000000238419,img/planet1_left.png,1,Community 1,NA,TRUE,f,f,NA,NA,NA,1,7,"13,1,9,8,6,3,10,12,7,2,15,4,14,11,5"
14269,commdev-image-keyboard-response,143,473115,learnblock1,580.5,img/planet9_left.png,9,Community 1,NA,TRUE,f,f,NA,NA,NA,1,7,"13,1,9,8,6,3,10,12,7,2,15,4,14,11,5"
14269,commdev-image-keyboard-response,144,474380,learnblock1,674.2999999523163,img/planet6_left.png,6,Community 1,NA,TRUE,f,f,NA,NA,NA,1,7,"13,1,9,8,6,3,10,12,7,2,15,4,14,11,5"
14269,commdev-image-keyboard-response,145,475643,learnblock1,515.6000000238419,img/planet1_right.png,1,Community 1,NA,TRUE,j,j,NA,NA,NA,1,7,"13,1,9,8,6,3,10,12,7,2,15,4,14,11,5"
14269,commdev-image-keyboard-response,146,476908,learnblock1,563,img/planet13_left.png,13,Community 1,NA,TRUE,f,f,NA,NA,NA,1,7,"13,1,9,8,6,3,10,12,7,2,15,4,14,11,5"
14269,commdev-image-keyboard-response,147,478171,learnblock1,669.6999999880791,img/planet8_right.png,8,Community 1,NA,TRUE,j,j,NA,NA,NA,1,7,"13,1,9,8,6,3,10,12,7,2,15,4,14,11,5"
14269,commdev-image-keyboard-response,148,479435,learnblock1,653.3999999761581,img/planet1_right.png,1,Community 1,NA,FALSE,f,j,NA,NA,NA,1,7,"13,1,9,8,6,3,10,12,7,2,15,4,14,11,5"
14269,commdev-image-keyboard-response,149,480699,learnblock1,711.5,img/planet9_left.png,9,Community 1,NA,TRUE,f,f,NA,NA,NA,1,7,"13,1,9,8,6,3,10,12,7,2,15,4,14,11,5"
14269,commdev-image-keyboard-response,150,481963,learnblock1,599.3000000119209,img/planet6_left.png,6,Community 1,NA,TRUE,f,f,NA,NA,NA,1,7,"13,1,9,8,6,3,10,12,7,2,15,4,14,11,5"
14269,commdev-image-keyboard-response,151,483227,learnblock1,519.6999999880791,img/planet9_right.png,9,Community 1,NA,TRUE,j,j,NA,NA,NA,1,7,"13,1,9,8,6,3,10,12,7,2,15,4,14,11,5"
14269,commdev-image-keyboard-response,152,484492,learnblock1,601.2999999523163,img/planet1_left.png,1,Community 1,NA,TRUE,f,f,NA,NA,NA,1,7,"13,1,9,8,6,3,10,12,7,2,15,4,14,11,5"
14269,commdev-image-keyboard-response,153,485756,learnblock1,541.1000000238419,img/planet6_left.png,6,Community 1,NA,TRUE,f,f,NA,NA,NA,1,7,"13,1,9,8,6,3,10,12,7,2,15,4,14,11,5"
14269,commdev-image-keyboard-response,154,487020,learnblock1,507.39999997615814,img/planet13_right.png,13,Community 1,NA,TRUE,j,j,NA,NA,NA,1,7,"13,1,9,8,6,3,10,12,7,2,15,4,14,11,5"
14269,commdev-image-keyboard-response,155,488283,learnblock1,667.4000000357628,img/planet1_left.png,1,Community 1,NA,TRUE,f,f,NA,NA,NA,1,7,"13,1,9,8,6,3,10,12,7,2,15,4,14,11,5"
14269,commdev-image-keyboard-response,156,489547,learnblock1,794.6000000238419,img/planet6_left.png,6,Community 1,NA,TRUE,f,f,NA,NA,NA,1,7,"13,1,9,8,6,3,10,12,7,2,15,4,14,11,5"
14269,commdev-image-keyboard-response,157,490812,learnblock1,1151.9000000357628,img/planet1_left.png,1,Community 1,NA,TRUE,f,f,NA,NA,NA,1,7,"13,1,9,8,6,3,10,12,7,2,15,4,14,11,5"
14269,commdev-image-keyboard-response,158,492076,learnblock1,1061.300000011921,img/planet9_right.png,9,Community 1,NA,TRUE,j,j,NA,NA,NA,1,7,"13,1,9,8,6,3,10,12,7,2,15,4,14,11,5"
14269,commdev-image-keyboard-response,159,493339,learnblock1,942.8999999761581,img/planet6_left.png,6,Community 1,NA,TRUE,f,f,NA,NA,NA,1,7,"13,1,9,8,6,3,10,12,7,2,15,4,14,11,5"
14269,commdev-image-keyboard-response,160,494604,learnblock1,741.5999999642372,img/planet9_right.png,9,Community 1,NA,TRUE,j,j,NA,NA,NA,1,7,"13,1,9,8,6,3,10,12,7,2,15,4,14,11,5"
14269,commdev-image-keyboard-response,161,495867,learnblock1,617.4000000357628,img/planet6_left.png,6,Community 1,NA,TRUE,f,f,NA,NA,NA,1,7,"13,1,9,8,6,3,10,12,7,2,15,4,14,11,5"
14269,commdev-image-keyboard-response,162,497131,learnblock1,547.1999999880791,img/planet9_right.png,9,Community 1,NA,TRUE,j,j,NA,NA,NA,1,7,"13,1,9,8,6,3,10,12,7,2,15,4,14,11,5"
14269,commdev-image-keyboard-response,163,498396,learnblock1,959.3999999761581,img/planet1_right.png,1,Community 1,NA,TRUE,j,j,NA,NA,NA,1,7,"13,1,9,8,6,3,10,12,7,2,15,4,14,11,5"
14269,commdev-image-keyboard-response,164,499660,learnblock1,621.1999999880791,img/planet8_left.png,8,Community 1,NA,TRUE,f,f,NA,NA,NA,1,7,"13,1,9,8,6,3,10,12,7,2,15,4,14,11,5"
14269,commdev-image-keyboard-response,165,500924,learnblock1,484.30000001192093,img/planet13_right.png,13,Community 1,NA,TRUE,j,j,NA,NA,NA,1,7,"13,1,9,8,6,3,10,12,7,2,15,4,14,11,5"
14269,commdev-image-keyboard-response,166,502187,learnblock1,611.9000000357628,img/planet8_right.png,8,Community 1,NA,TRUE,j,j,NA,NA,NA,1,7,"13,1,9,8,6,3,10,12,7,2,15,4,14,11,5"
14269,commdev-image-keyboard-response,167,503452,learnblock1,766.3000000119209,img/planet3_right.png,3,Community 2,NA,TRUE,j,j,NA,NA,NA,1,7,"13,1,9,8,6,3,10,12,7,2,15,4,14,11,5"
14269,commdev-image-keyboard-response,168,504715,learnblock1,561.6999999880791,img/planet10_right.png,10,Community 2,NA,TRUE,j,j,NA,NA,NA,1,7,"13,1,9,8,6,3,10,12,7,2,15,4,14,11,5"
14269,commdev-image-keyboard-response,169,505979,learnblock1,638.5,img/planet12_left.png,12,Community 2,NA,TRUE,f,f,NA,NA,NA,1,7,"13,1,9,8,6,3,10,12,7,2,15,4,14,11,5"
14269,commdev-image-keyboard-response,170,507244,learnblock1,751.6999999880791,img/planet2_right.png,2,Community 2,NA,TRUE,j,j,NA,NA,NA,1,7,"13,1,9,8,6,3,10,12,7,2,15,4,14,11,5"
14269,commdev-image-keyboard-response,171,508508,learnblock1,807,img/planet12_left.png,12,Community 2,NA,TRUE,f,f,NA,NA,NA,1,7,"13,1,9,8,6,3,10,12,7,2,15,4,14,11,5"
14269,commdev-image-keyboard-response,172,509771,learnblock1,621.7000000476837,img/planet4_right.png,4,Community 3,NA,TRUE,j,j,NA,NA,NA,1,7,"13,1,9,8,6,3,10,12,7,2,15,4,14,11,5"
14269,commdev-image-keyboard-response,173,511036,learnblock1,727.8000000119209,img/planet5_right.png,5,Community 3,NA,TRUE,j,j,NA,NA,NA,1,7,"13,1,9,8,6,3,10,12,7,2,15,4,14,11,5"
14269,commdev-image-keyboard-response,174,512299,learnblock1,797.8000000119209,img/planet15_right.png,15,Community 3,NA,TRUE,j,j,NA,NA,NA,1,7,"13,1,9,8,6,3,10,12,7,2,15,4,14,11,5"
14269,commdev-image-keyboard-response,175,513564,learnblock1,764.0999999642372,img/planet14_left.png,14,Community 3,NA,TRUE,f,f,NA,NA,NA,1,7,"13,1,9,8,6,3,10,12,7,2,15,4,14,11,5"
14269,commdev-image-keyboard-response,176,514827,learnblock1,875.1999999880791,img/planet5_left.png,5,Community 3,NA,TRUE,f,f,NA,NA,NA,1,7,"13,1,9,8,6,3,10,12,7,2,15,4,14,11,5"
14269,commdev-image-keyboard-response,177,516092,learnblock1,629.6000000238419,img/planet4_right.png,4,Community 3,NA,TRUE,j,j,NA,NA,NA,1,7,"13,1,9,8,6,3,10,12,7,2,15,4,14,11,5"
14269,commdev-image-keyboard-response,178,517355,learnblock1,899.3000000119209,img/planet14_right.png,14,Community 3,NA,TRUE,j,j,NA,NA,NA,1,7,"13,1,9,8,6,3,10,12,7,2,15,4,14,11,5"
14269,commdev-image-keyboard-response,179,518619,learnblock1,639.4000000357628,img/planet5_right.png,5,Community 3,NA,TRUE,j,j,NA,NA,NA,1,7,"13,1,9,8,6,3,10,12,7,2,15,4,14,11,5"
14269,commdev-image-keyboard-response,180,519883,learnblock1,670.6999999880791,img/planet4_left.png,4,Community 3,NA,TRUE,f,f,NA,NA,NA,1,7,"13,1,9,8,6,3,10,12,7,2,15,4,14,11,5"
14269,commdev-image-keyboard-response,181,521147,learnblock1,714.3999999761581,img/planet11_left.png,11,Community 3,NA,TRUE,f,f,NA,NA,NA,1,7,"13,1,9,8,6,3,10,12,7,2,15,4,14,11,5"
14269,commdev-image-keyboard-response,182,522412,learnblock1,742.7999999523163,img/planet15_left.png,15,Community 3,NA,TRUE,f,f,NA,NA,NA,1,7,"13,1,9,8,6,3,10,12,7,2,15,4,14,11,5"
14269,commdev-image-keyboard-response,183,523676,learnblock1,730.1000000238419,img/planet14_left.png,14,Community 3,NA,TRUE,f,f,NA,NA,NA,1,7,"13,1,9,8,6,3,10,12,7,2,15,4,14,11,5"
14269,commdev-image-keyboard-response,184,524940,learnblock1,924.4000000357628,img/planet15_left.png,15,Community 3,NA,TRUE,f,f,NA,NA,NA,1,7,"13,1,9,8,6,3,10,12,7,2,15,4,14,11,5"
14269,commdev-image-keyboard-response,185,526204,learnblock1,611.1999999880791,img/planet14_right.png,14,Community 3,NA,TRUE,j,j,NA,NA,NA,1,7,"13,1,9,8,6,3,10,12,7,2,15,4,14,11,5"
14269,commdev-image-keyboard-response,186,527467,learnblock1,748.0999999642372,img/planet4_right.png,4,Community 3,NA,TRUE,j,j,NA,NA,NA,1,7,"13,1,9,8,6,3,10,12,7,2,15,4,14,11,5"
14269,commdev-image-keyboard-response,187,528731,learnblock1,502.69999998807907,img/planet14_right.png,14,Community 3,NA,TRUE,j,j,NA,NA,NA,1,7,"13,1,9,8,6,3,10,12,7,2,15,4,14,11,5"
14269,commdev-image-keyboard-response,188,529996,learnblock1,807,img/planet15_right.png,15,Community 3,NA,TRUE,j,j,NA,NA,NA,1,7,"13,1,9,8,6,3,10,12,7,2,15,4,14,11,5"
14269,commdev-image-keyboard-response,189,531259,learnblock1,612.0999999642372,img/planet6_left.png,6,Community 1,NA,TRUE,f,f,NA,NA,NA,1,7,"13,1,9,8,6,3,10,12,7,2,15,4,14,11,5"
14269,commdev-image-keyboard-response,190,532524,learnblock1,652.6999999880791,img/planet15_right.png,15,Community 3,NA,TRUE,j,j,NA,NA,NA,1,7,"13,1,9,8,6,3,10,12,7,2,15,4,14,11,5"
14269,commdev-image-keyboard-response,191,533787,learnblock1,580.6000000238419,img/planet6_right.png,6,Community 1,NA,TRUE,j,j,NA,NA,NA,1,7,"13,1,9,8,6,3,10,12,7,2,15,4,14,11,5"
14269,commdev-image-keyboard-response,192,535051,learnblock1,528.7000000476837,img/planet15_left.png,15,Community 3,NA,FALSE,j,f,NA,NA,NA,1,7,"13,1,9,8,6,3,10,12,7,2,15,4,14,11,5"
14269,commdev-image-keyboard-response,193,536316,learnblock1,904.9000000357628,img/planet6_right.png,6,Community 1,NA,TRUE,j,j,NA,NA,NA,1,7,"13,1,9,8,6,3,10,12,7,2,15,4,14,11,5"
14269,commdev-image-keyboard-response,194,537580,learnblock1,561.1000000238419,img/planet9_right.png,9,Community 1,NA,TRUE,j,j,NA,NA,NA,1,7,"13,1,9,8,6,3,10,12,7,2,15,4,14,11,5"
14269,commdev-image-keyboard-response,195,538843,learnblock1,1029.3999999761581,img/planet8_right.png,8,Community 1,NA,TRUE,j,j,NA,NA,NA,1,7,"13,1,9,8,6,3,10,12,7,2,15,4,14,11,5"
14269,commdev-image-keyboard-response,196,540108,learnblock1,690.8000000119209,img/planet3_left.png,3,Community 2,NA,TRUE,f,f,NA,NA,NA,1,7,"13,1,9,8,6,3,10,12,7,2,15,4,14,11,5"
14269,commdev-image-keyboard-response,197,541372,learnblock1,853.4000000357628,img/planet7_left.png,7,Community 2,NA,TRUE,f,f,NA,NA,NA,1,7,"13,1,9,8,6,3,10,12,7,2,15,4,14,11,5"
14269,commdev-image-keyboard-response,198,542636,learnblock1,975.6000000238419,img/planet12_right.png,12,Community 2,NA,FALSE,f,j,NA,NA,NA,1,7,"13,1,9,8,6,3,10,12,7,2,15,4,14,11,5"
14269,commdev-image-keyboard-response,199,543899,learnblock1,636.3999999761581,img/planet10_left.png,10,Community 2,NA,FALSE,j,f,NA,NA,NA,1,7,"13,1,9,8,6,3,10,12,7,2,15,4,14,11,5"
14269,commdev-image-keyboard-response,200,545163,learnblock1,883.5,img/planet3_right.png,3,Community 2,NA,TRUE,j,j,NA,NA,NA,1,7,"13,1,9,8,6,3,10,12,7,2,15,4,14,11,5"
14269,commdev-image-keyboard-response,201,546427,learnblock1,808.1999999880791,img/planet7_right.png,7,Community 2,NA,FALSE,f,j,NA,NA,NA,1,7,"13,1,9,8,6,3,10,12,7,2,15,4,14,11,5"
14269,commdev-image-keyboard-response,202,547691,learnblock1,564.8999999761581,img/planet10_left.png,10,Community 2,NA,FALSE,j,f,NA,NA,NA,1,7,"13,1,9,8,6,3,10,12,7,2,15,4,14,11,5"
14269,commdev-image-keyboard-response,203,548956,learnblock1,752.3000000119209,img/planet2_left.png,2,Community 2,NA,TRUE,f,f,NA,NA,NA,1,7,"13,1,9,8,6,3,10,12,7,2,15,4,14,11,5"
14269,commdev-image-keyboard-response,204,550219,learnblock1,855,img/planet3_left.png,3,Community 2,NA,TRUE,f,f,NA,NA,NA,1,7,"13,1,9,8,6,3,10,12,7,2,15,4,14,11,5"
14269,commdev-image-keyboard-response,205,551483,learnblock1,667.8999999761581,img/planet8_right.png,8,Community 1,NA,TRUE,j,j,NA,NA,NA,1,7,"13,1,9,8,6,3,10,12,7,2,15,4,14,11,5"
14269,commdev-image-keyboard-response,206,552747,learnblock1,666.3000000119209,img/planet1_left.png,1,Community 1,NA,TRUE,f,f,NA,NA,NA,1,7,"13,1,9,8,6,3,10,12,7,2,15,4,14,11,5"
14269,commdev-image-keyboard-response,207,554011,learnblock1,1132.1000000238419,img/planet9_left.png,9,Community 1,NA,TRUE,f,f,NA,NA,NA,1,7,"13,1,9,8,6,3,10,12,7,2,15,4,14,11,5"
14269,commdev-image-keyboard-response,208,555276,learnblock1,630.5,img/planet8_right.png,8,Community 1,NA,TRUE,j,j,NA,NA,NA,1,7,"13,1,9,8,6,3,10,12,7,2,15,4,14,11,5"
14269,commdev-image-keyboard-response,209,556540,learnblock1,642.5999999642372,img/planet3_left.png,3,Community 2,NA,TRUE,f,f,NA,NA,NA,1,7,"13,1,9,8,6,3,10,12,7,2,15,4,14,11,5"
14269,commdev-image-keyboard-response,210,557803,learnblock1,657.8000000119209,img/planet10_right.png,10,Community 2,NA,TRUE,j,j,NA,NA,NA,1,7,"13,1,9,8,6,3,10,12,7,2,15,4,14,11,5"
14269,commdev-image-keyboard-response,211,559067,learnblock1,834,img/planet12_right.png,12,Community 2,NA,TRUE,j,j,NA,NA,NA,1,7,"13,1,9,8,6,3,10,12,7,2,15,4,14,11,5"
14269,commdev-image-keyboard-response,212,560332,learnblock1,821.1999999880791,img/planet7_left.png,7,Community 2,NA,TRUE,f,f,NA,NA,NA,1,7,"13,1,9,8,6,3,10,12,7,2,15,4,14,11,5"
14269,commdev-image-keyboard-response,213,561596,learnblock1,815.7000000476837,img/planet2_left.png,2,Community 2,NA,TRUE,f,f,NA,NA,NA,1,7,"13,1,9,8,6,3,10,12,7,2,15,4,14,11,5"
14269,commdev-image-keyboard-response,214,562859,learnblock1,640.4000000357628,img/planet12_right.png,12,Community 2,NA,TRUE,j,j,NA,NA,NA,1,7,"13,1,9,8,6,3,10,12,7,2,15,4,14,11,5"
14269,commdev-image-keyboard-response,215,564123,learnblock1,null,img/planet2_right.png,2,Community 2,NA,FALSE,null,j,NA,NA,NA,1,7,"13,1,9,8,6,3,10,12,7,2,15,4,14,11,5"
14269,commdev-image-keyboard-response,216,565387,learnblock1,10.5,img/planet10_right.png,10,Community 2,NA,TRUE,j,j,NA,NA,NA,1,7,"13,1,9,8,6,3,10,12,7,2,15,4,14,11,5"
14269,commdev-image-keyboard-response,217,566651,learnblock1,628.0999999642372,img/planet3_left.png,3,Community 2,NA,TRUE,f,f,NA,NA,NA,1,7,"13,1,9,8,6,3,10,12,7,2,15,4,14,11,5"
14269,commdev-image-keyboard-response,218,567915,learnblock1,617.8000000119209,img/planet10_right.png,10,Community 2,NA,TRUE,j,j,NA,NA,NA,1,7,"13,1,9,8,6,3,10,12,7,2,15,4,14,11,5"
14269,commdev-image-keyboard-response,219,569179,learnblock1,600,img/planet3_left.png,3,Community 2,NA,TRUE,f,f,NA,NA,NA,1,7,"13,1,9,8,6,3,10,12,7,2,15,4,14,11,5"
14269,commdev-image-keyboard-response,220,570443,learnblock1,471.19999998807907,img/planet10_right.png,10,Community 2,NA,TRUE,j,j,NA,NA,NA,1,7,"13,1,9,8,6,3,10,12,7,2,15,4,14,11,5"
14269,commdev-image-keyboard-response,221,571708,learnblock1,677,img/planet12_left.png,12,Community 2,NA,TRUE,f,f,NA,NA,NA,1,7,"13,1,9,8,6,3,10,12,7,2,15,4,14,11,5"
14269,commdev-image-keyboard-response,222,572971,learnblock1,920.1999999880791,img/planet4_left.png,4,Community 3,NA,TRUE,f,f,NA,NA,NA,1,7,"13,1,9,8,6,3,10,12,7,2,15,4,14,11,5"
14269,commdev-image-keyboard-response,223,574236,learnblock1,797.7000000476837,img/planet11_left.png,11,Community 3,NA,TRUE,f,f,NA,NA,NA,1,7,"13,1,9,8,6,3,10,12,7,2,15,4,14,11,5"
14269,commdev-image-keyboard-response,224,575500,learnblock1,625.8999999761581,img/planet5_right.png,5,Community 3,NA,TRUE,j,j,NA,NA,NA,1,7,"13,1,9,8,6,3,10,12,7,2,15,4,14,11,5"
14269,commdev-image-keyboard-response,225,576763,learnblock1,658.8999999761581,img/planet11_left.png,11,Community 3,NA,TRUE,f,f,NA,NA,NA,1,7,"13,1,9,8,6,3,10,12,7,2,15,4,14,11,5"
14269,commdev-image-keyboard-response,226,578028,learnblock1,642.4000000357628,img/planet4_right.png,4,Community 3,NA,TRUE,j,j,NA,NA,NA,1,7,"13,1,9,8,6,3,10,12,7,2,15,4,14,11,5"
14269,commdev-image-keyboard-response,227,579292,learnblock1,607.8000000119209,img/planet5_left.png,5,Community 3,NA,TRUE,f,f,NA,NA,NA,1,7,"13,1,9,8,6,3,10,12,7,2,15,4,14,11,5"
14269,commdev-image-keyboard-response,228,580555,learnblock1,668.5,img/planet15_right.png,15,Community 3,NA,TRUE,j,j,NA,NA,NA,1,7,"13,1,9,8,6,3,10,12,7,2,15,4,14,11,5"
14269,commdev-image-keyboard-response,229,581819,learnblock1,674.6999999880791,img/planet5_right.png,5,Community 3,NA,TRUE,j,j,NA,NA,NA,1,7,"13,1,9,8,6,3,10,12,7,2,15,4,14,11,5"
14269,commdev-image-keyboard-response,230,583083,learnblock1,972.4000000357628,img/planet15_right.png,15,Community 3,NA,TRUE,j,j,NA,NA,NA,1,7,"13,1,9,8,6,3,10,12,7,2,15,4,14,11,5"
14269,commdev-image-keyboard-response,231,584348,learnblock1,667.5,img/planet14_left.png,14,Community 3,NA,TRUE,f,f,NA,NA,NA,1,7,"13,1,9,8,6,3,10,12,7,2,15,4,14,11,5"
14269,commdev-image-keyboard-response,232,585611,learnblock1,844.3000000119209,img/planet15_left.png,15,Community 3,NA,TRUE,f,f,NA,NA,NA,1,7,"13,1,9,8,6,3,10,12,7,2,15,4,14,11,5"
14269,commdev-image-keyboard-response,233,586875,learnblock1,1090.699999988079,img/planet6_left.png,6,Community 1,NA,TRUE,f,f,NA,NA,NA,1,7,"13,1,9,8,6,3,10,12,7,2,15,4,14,11,5"
14269,commdev-image-keyboard-response,234,588139,learnblock1,650.1999999880791,img/planet9_left.png,9,Community 1,NA,TRUE,f,f,NA,NA,NA,1,7,"13,1,9,8,6,3,10,12,7,2,15,4,14,11,5"
14269,commdev-image-keyboard-response,235,589403,learnblock1,668.8000000119209,img/planet1_left.png,1,Community 1,NA,TRUE,f,f,NA,NA,NA,1,7,"13,1,9,8,6,3,10,12,7,2,15,4,14,11,5"
14269,commdev-image-keyboard-response,236,590667,learnblock1,627.9000000357628,img/planet8_left.png,8,Community 1,NA,TRUE,f,f,NA,NA,NA,1,7,"13,1,9,8,6,3,10,12,7,2,15,4,14,11,5"
14269,commdev-image-keyboard-response,237,591931,learnblock1,552.3000000119209,img/planet1_left.png,1,Community 1,NA,TRUE,f,f,NA,NA,NA,1,7,"13,1,9,8,6,3,10,12,7,2,15,4,14,11,5"
14269,commdev-image-keyboard-response,238,593195,learnblock1,558.5,img/planet9_right.png,9,Community 1,NA,TRUE,j,j,NA,NA,NA,1,7,"13,1,9,8,6,3,10,12,7,2,15,4,14,11,5"
14269,commdev-image-keyboard-response,239,594459,learnblock1,972.3999999761581,img/planet8_left.png,8,Community 1,NA,TRUE,f,f,NA,NA,NA,1,7,"13,1,9,8,6,3,10,12,7,2,15,4,14,11,5"
14269,commdev-image-keyboard-response,240,595724,learnblock1,659.5999999642372,img/planet13_right.png,13,Community 1,NA,TRUE,j,j,NA,NA,NA,1,7,"13,1,9,8,6,3,10,12,7,2,15,4,14,11,5"
14269,commdev-image-keyboard-response,241,596987,learnblock1,726.6999999880791,img/planet8_left.png,8,Community 1,NA,TRUE,f,f,NA,NA,NA,1,7,"13,1,9,8,6,3,10,12,7,2,15,4,14,11,5"
14269,commdev-image-keyboard-response,242,598251,learnblock1,892.6999999880791,img/planet3_right.png,3,Community 2,NA,TRUE,j,j,NA,NA,NA,1,7,"13,1,9,8,6,3,10,12,7,2,15,4,14,11,5"
14269,commdev-image-keyboard-response,243,599516,learnblock1,909.7999999523163,img/planet8_right.png,8,Community 1,NA,TRUE,j,j,NA,NA,NA,1,7,"13,1,9,8,6,3,10,12,7,2,15,4,14,11,5"
14269,commdev-image-keyboard-response,244,600780,learnblock1,612.5,img/planet13_left.png,13,Community 1,NA,TRUE,f,f,NA,NA,NA,1,7,"13,1,9,8,6,3,10,12,7,2,15,4,14,11,5"
14269,commdev-image-keyboard-response,245,602043,learnblock1,692.6000000238419,img/planet8_right.png,8,Community 1,NA,TRUE,j,j,NA,NA,NA,1,7,"13,1,9,8,6,3,10,12,7,2,15,4,14,11,5"
14269,commdev-image-keyboard-response,246,603307,learnblock1,732.3999999761581,img/planet3_right.png,3,Community 2,NA,TRUE,j,j,NA,NA,NA,1,7,"13,1,9,8,6,3,10,12,7,2,15,4,14,11,5"
14269,commdev-image-keyboard-response,247,604571,learnblock1,768.0999999642372,img/planet7_left.png,7,Community 2,NA,TRUE,f,f,NA,NA,NA,1,7,"13,1,9,8,6,3,10,12,7,2,15,4,14,11,5"
14269,commdev-image-keyboard-response,248,605835,learnblock1,811.3999999761581,img/planet12_left.png,12,Community 2,NA,TRUE,f,f,NA,NA,NA,1,7,"13,1,9,8,6,3,10,12,7,2,15,4,14,11,5"
14269,commdev-image-keyboard-response,249,607099,learnblock1,987.3000000119209,img/planet7_left.png,7,Community 2,NA,TRUE,f,f,NA,NA,NA,1,7,"13,1,9,8,6,3,10,12,7,2,15,4,14,11,5"
14269,commdev-image-keyboard-response,250,608363,learnblock1,558.8000000119209,img/planet10_right.png,10,Community 2,NA,TRUE,j,j,NA,NA,NA,1,7,"13,1,9,8,6,3,10,12,7,2,15,4,14,11,5"
14269,commdev-image-keyboard-response,251,609627,learnblock1,597,img/planet12_left.png,12,Community 2,NA,TRUE,f,f,NA,NA,NA,1,7,"13,1,9,8,6,3,10,12,7,2,15,4,14,11,5"
14269,commdev-image-keyboard-response,252,610890,learnblock1,636.3000000119209,img/planet4_right.png,4,Community 3,NA,TRUE,j,j,NA,NA,NA,1,7,"13,1,9,8,6,3,10,12,7,2,15,4,14,11,5"
14269,commdev-image-keyboard-response,253,612154,learnblock1,896.3000000119209,img/planet12_right.png,12,Community 2,NA,TRUE,j,j,NA,NA,NA,1,7,"13,1,9,8,6,3,10,12,7,2,15,4,14,11,5"
14269,commdev-image-keyboard-response,254,613420,learnblock1,641.8999999761581,img/planet10_left.png,10,Community 2,NA,TRUE,f,f,NA,NA,NA,1,7,"13,1,9,8,6,3,10,12,7,2,15,4,14,11,5"
14269,commdev-image-keyboard-response,255,614683,learnblock1,722.6999999880791,img/planet7_left.png,7,Community 2,NA,TRUE,f,f,NA,NA,NA,1,7,"13,1,9,8,6,3,10,12,7,2,15,4,14,11,5"
14269,commdev-image-keyboard-response,256,615948,learnblock1,783,img/planet2_right.png,2,Community 2,NA,TRUE,j,j,NA,NA,NA,1,7,"13,1,9,8,6,3,10,12,7,2,15,4,14,11,5"
14269,commdev-image-keyboard-response,257,617210,learnblock1,768.6999999880791,img/planet7_left.png,7,Community 2,NA,TRUE,f,f,NA,NA,NA,1,7,"13,1,9,8,6,3,10,12,7,2,15,4,14,11,5"
14269,commdev-image-keyboard-response,258,618476,learnblock1,915.7999999523163,img/planet12_left.png,12,Community 2,NA,TRUE,f,f,NA,NA,NA,1,7,"13,1,9,8,6,3,10,12,7,2,15,4,14,11,5"
14269,commdev-image-keyboard-response,259,619739,learnblock1,812.6000000238419,img/planet2_right.png,2,Community 2,NA,TRUE,j,j,NA,NA,NA,1,7,"13,1,9,8,6,3,10,12,7,2,15,4,14,11,5"
14269,commdev-image-keyboard-response,260,621003,learnblock1,1151.5999999642372,img/planet12_right.png,12,Community 2,NA,TRUE,j,j,NA,NA,NA,1,7,"13,1,9,8,6,3,10,12,7,2,15,4,14,11,5"
14269,commdev-image-keyboard-response,261,622268,learnblock1,831.2000000476837,img/planet7_left.png,7,Community 2,NA,TRUE,f,f,NA,NA,NA,1,7,"13,1,9,8,6,3,10,12,7,2,15,4,14,11,5"
14269,commdev-image-keyboard-response,262,623531,learnblock1,1081.199999988079,img/planet2_left.png,2,Community 2,NA,TRUE,f,f,NA,NA,NA,1,7,"13,1,9,8,6,3,10,12,7,2,15,4,14,11,5"
14269,commdev-image-keyboard-response,263,624795,learnblock1,833.8000000119209,img/planet7_right.png,7,Community 2,NA,TRUE,j,j,NA,NA,NA,1,7,"13,1,9,8,6,3,10,12,7,2,15,4,14,11,5"
14269,commdev-image-keyboard-response,264,626059,learnblock1,690.1999999880791,img/planet12_left.png,12,Community 2,NA,TRUE,f,f,NA,NA,NA,1,7,"13,1,9,8,6,3,10,12,7,2,15,4,14,11,5"
14269,commdev-image-keyboard-response,265,627323,learnblock1,858.5,img/planet4_left.png,4,Community 3,NA,TRUE,f,f,NA,NA,NA,1,7,"13,1,9,8,6,3,10,12,7,2,15,4,14,11,5"
14269,commdev-image-keyboard-response,266,628587,learnblock1,779.8000000119209,img/planet11_right.png,11,Community 3,NA,TRUE,j,j,NA,NA,NA,1,7,"13,1,9,8,6,3,10,12,7,2,15,4,14,11,5"
14269,commdev-image-keyboard-response,267,629851,learnblock1,992.0999999642372,img/planet15_right.png,15,Community 3,NA,TRUE,j,j,NA,NA,NA,1,7,"13,1,9,8,6,3,10,12,7,2,15,4,14,11,5"
14269,commdev-image-keyboard-response,268,631115,learnblock1,691.8999999761581,img/planet6_right.png,6,Community 1,NA,TRUE,j,j,NA,NA,NA,1,7,"13,1,9,8,6,3,10,12,7,2,15,4,14,11,5"
14269,commdev-image-keyboard-response,269,632380,learnblock1,632.2000000476837,img/planet15_left.png,15,Community 3,NA,TRUE,f,f,NA,NA,NA,1,7,"13,1,9,8,6,3,10,12,7,2,15,4,14,11,5"
14269,commdev-image-keyboard-response,270,633644,learnblock1,958.1000000238419,img/planet5_left.png,5,Community 3,NA,FALSE,j,f,NA,NA,NA,1,7,"13,1,9,8,6,3,10,12,7,2,15,4,14,11,5"
14269,commdev-image-keyboard-response,271,634907,learnblock1,5.699999988079071,img/planet15_left.png,15,Community 3,NA,TRUE,f,f,NA,NA,NA,1,7,"13,1,9,8,6,3,10,12,7,2,15,4,14,11,5"
14269,commdev-image-keyboard-response,272,636171,learnblock1,678.6999999880791,img/planet6_left.png,6,Community 1,NA,TRUE,f,f,NA,NA,NA,1,7,"13,1,9,8,6,3,10,12,7,2,15,4,14,11,5"
14269,commdev-image-keyboard-response,273,637435,learnblock1,692.1999999880791,img/planet1_left.png,1,Community 1,NA,TRUE,f,f,NA,NA,NA,1,7,"13,1,9,8,6,3,10,12,7,2,15,4,14,11,5"
14269,commdev-image-keyboard-response,274,638699,learnblock1,573.5,img/planet8_left.png,8,Community 1,NA,TRUE,f,f,NA,NA,NA,1,7,"13,1,9,8,6,3,10,12,7,2,15,4,14,11,5"
14269,commdev-image-keyboard-response,275,639963,learnblock1,519.2000000476837,img/planet1_left.png,1,Community 1,NA,TRUE,f,f,NA,NA,NA,1,7,"13,1,9,8,6,3,10,12,7,2,15,4,14,11,5"
14269,commdev-image-keyboard-response,276,641227,learnblock1,573.5,img/planet9_left.png,9,Community 1,NA,TRUE,f,f,NA,NA,NA,1,7,"13,1,9,8,6,3,10,12,7,2,15,4,14,11,5"
14269,commdev-image-keyboard-response,277,642491,learnblock1,674.5,img/planet6_left.png,6,Community 1,NA,TRUE,f,f,NA,NA,NA,1,7,"13,1,9,8,6,3,10,12,7,2,15,4,14,11,5"
14269,commdev-image-keyboard-response,278,643755,learnblock1,625.3000000119209,img/planet9_left.png,9,Community 1,NA,TRUE,f,f,NA,NA,NA,1,7,"13,1,9,8,6,3,10,12,7,2,15,4,14,11,5"
14269,commdev-image-keyboard-response,279,645019,learnblock1,678.3000000119209,img/planet13_left.png,13,Community 1,NA,TRUE,f,f,NA,NA,NA,1,7,"13,1,9,8,6,3,10,12,7,2,15,4,14,11,5"
14269,commdev-image-keyboard-response,280,646284,learnblock1,517.6999999880791,img/planet9_right.png,9,Community 1,NA,TRUE,j,j,NA,NA,NA,1,7,"13,1,9,8,6,3,10,12,7,2,15,4,14,11,5"
14269,commdev-image-keyboard-response,281,647547,learnblock1,548.6000000238419,img/planet13_left.png,13,Community 1,NA,TRUE,f,f,NA,NA,NA,1,7,"13,1,9,8,6,3,10,12,7,2,15,4,14,11,5"
14269,commdev-image-keyboard-response,282,648811,learnblock1,629.8000000119209,img/planet1_left.png,1,Community 1,NA,TRUE,f,f,NA,NA,NA,1,7,"13,1,9,8,6,3,10,12,7,2,15,4,14,11,5"
14269,commdev-image-keyboard-response,283,650076,learnblock1,575.3000000119209,img/planet13_right.png,13,Community 1,NA,TRUE,j,j,NA,NA,NA,1,7,"13,1,9,8,6,3,10,12,7,2,15,4,14,11,5"
14269,commdev-image-keyboard-response,284,651339,learnblock1,1064.1000000238419,img/planet6_right.png,6,Community 1,NA,TRUE,j,j,NA,NA,NA,1,7,"13,1,9,8,6,3,10,12,7,2,15,4,14,11,5"
14269,commdev-image-keyboard-response,285,652603,learnblock1,729.3000000119209,img/planet1_left.png,1,Community 1,NA,TRUE,f,f,NA,NA,NA,1,7,"13,1,9,8,6,3,10,12,7,2,15,4,14,11,5"
14269,commdev-image-keyboard-response,286,653867,learnblock1,663.5,img/planet13_left.png,13,Community 1,NA,TRUE,f,f,NA,NA,NA,1,7,"13,1,9,8,6,3,10,12,7,2,15,4,14,11,5"
14269,commdev-image-keyboard-response,287,655130,learnblock1,652,img/planet9_right.png,9,Community 1,NA,TRUE,j,j,NA,NA,NA,1,7,"13,1,9,8,6,3,10,12,7,2,15,4,14,11,5"
14269,commdev-image-keyboard-response,288,656396,learnblock1,986.9000000357628,img/planet13_right.png,13,Community 1,NA,TRUE,j,j,NA,NA,NA,1,7,"13,1,9,8,6,3,10,12,7,2,15,4,14,11,5"
14269,commdev-image-keyboard-response,289,657659,learnblock1,671.1000000238419,img/planet1_left.png,1,Community 1,NA,TRUE,f,f,NA,NA,NA,1,7,"13,1,9,8,6,3,10,12,7,2,15,4,14,11,5"
14269,commdev-image-keyboard-response,290,658923,learnblock1,659.6000000238419,img/planet6_left.png,6,Community 1,NA,TRUE,f,f,NA,NA,NA,1,7,"13,1,9,8,6,3,10,12,7,2,15,4,14,11,5"
14269,commdev-image-keyboard-response,291,660187,learnblock1,647.5,img/planet13_right.png,13,Community 1,NA,TRUE,j,j,NA,NA,NA,1,7,"13,1,9,8,6,3,10,12,7,2,15,4,14,11,5"
14269,commdev-image-keyboard-response,292,661452,learnblock1,633.8999999761581,img/planet8_left.png,8,Community 1,NA,TRUE,f,f,NA,NA,NA,1,7,"13,1,9,8,6,3,10,12,7,2,15,4,14,11,5"
14269,commdev-image-keyboard-response,293,662715,learnblock1,565.8000000119209,img/planet13_right.png,13,Community 1,NA,TRUE,j,j,NA,NA,NA,1,7,"13,1,9,8,6,3,10,12,7,2,15,4,14,11,5"
14269,commdev-image-keyboard-response,294,663979,learnblock1,675.8000000119209,img/planet9_left.png,9,Community 1,NA,FALSE,j,f,NA,NA,NA,1,7,"13,1,9,8,6,3,10,12,7,2,15,4,14,11,5"
14269,commdev-image-keyboard-response,295,665243,learnblock1,670.3000000119209,img/planet8_right.png,8,Community 1,NA,TRUE,j,j,NA,NA,NA,1,7,"13,1,9,8,6,3,10,12,7,2,15,4,14,11,5"
14269,commdev-image-keyboard-response,296,666507,learnblock1,777.8999999761581,img/planet3_right.png,3,Community 2,NA,TRUE,j,j,NA,NA,NA,1,7,"13,1,9,8,6,3,10,12,7,2,15,4,14,11,5"
14269,commdev-image-keyboard-response,297,667771,learnblock1,781.3000000119209,img/planet2_left.png,2,Community 2,NA,TRUE,f,f,NA,NA,NA,1,7,"13,1,9,8,6,3,10,12,7,2,15,4,14,11,5"
14269,commdev-image-keyboard-response,298,669035,learnblock1,685.1000000238419,img/planet7_left.png,7,Community 2,NA,TRUE,f,f,NA,NA,NA,1,7,"13,1,9,8,6,3,10,12,7,2,15,4,14,11,5"
14269,commdev-image-keyboard-response,299,670300,learnblock1,857.8999999761581,img/planet12_left.png,12,Community 2,NA,TRUE,f,f,NA,NA,NA,1,7,"13,1,9,8,6,3,10,12,7,2,15,4,14,11,5"
14269,commdev-image-keyboard-response,300,671563,learnblock1,747.1000000238419,img/planet2_left.png,2,Community 2,NA,TRUE,f,f,NA,NA,NA,1,7,"13,1,9,8,6,3,10,12,7,2,15,4,14,11,5"
14269,commdev-image-keyboard-response,301,672827,learnblock1,626.6999999880791,img/planet12_right.png,12,Community 2,NA,TRUE,j,j,NA,NA,NA,1,7,"13,1,9,8,6,3,10,12,7,2,15,4,14,11,5"
14269,commdev-image-keyboard-response,302,674092,learnblock1,865.8000000119209,img/planet10_left.png,10,Community 2,NA,FALSE,j,f,NA,NA,NA,1,7,"13,1,9,8,6,3,10,12,7,2,15,4,14,11,5"
14269,commdev-image-keyboard-response,303,675355,learnblock1,38.10000002384186,img/planet12_left.png,12,Community 2,NA,TRUE,f,f,NA,NA,NA,1,7,"13,1,9,8,6,3,10,12,7,2,15,4,14,11,5"
14269,commdev-image-keyboard-response,304,676619,learnblock1,726.4000000357628,img/planet7_left.png,7,Community 2,NA,TRUE,f,f,NA,NA,NA,1,7,"13,1,9,8,6,3,10,12,7,2,15,4,14,11,5"
14269,commdev-image-keyboard-response,305,677883,learnblock1,834.0999999642372,img/planet2_left.png,2,Community 2,NA,TRUE,f,f,NA,NA,NA,1,7,"13,1,9,8,6,3,10,12,7,2,15,4,14,11,5"
14269,commdev-image-keyboard-response,306,679147,learnblock1,645.4000000357628,img/planet3_right.png,3,Community 2,NA,TRUE,j,j,NA,NA,NA,1,7,"13,1,9,8,6,3,10,12,7,2,15,4,14,11,5"
14269,commdev-image-keyboard-response,307,680411,learnblock1,742.6999999880791,img/planet7_left.png,7,Community 2,NA,TRUE,f,f,NA,NA,NA,1,7,"13,1,9,8,6,3,10,12,7,2,15,4,14,11,5"
14269,commdev-image-keyboard-response,308,681675,learnblock1,861.3999999761581,img/planet10_right.png,10,Community 2,NA,TRUE,j,j,NA,NA,NA,1,7,"13,1,9,8,6,3,10,12,7,2,15,4,14,11,5"
14269,commdev-image-keyboard-response,309,682939,learnblock1,886.6999999880791,img/planet7_right.png,7,Community 2,NA,TRUE,j,j,NA,NA,NA,1,7,"13,1,9,8,6,3,10,12,7,2,15,4,14,11,5"
14269,commdev-image-keyboard-response,310,684203,learnblock1,944.0999999642372,img/planet12_right.png,12,Community 2,NA,TRUE,j,j,NA,NA,NA,1,7,"13,1,9,8,6,3,10,12,7,2,15,4,14,11,5"
14269,commdev-image-keyboard-response,311,685468,learnblock1,1180,img/planet7_right.png,7,Community 2,NA,TRUE,j,j,NA,NA,NA,1,7,"13,1,9,8,6,3,10,12,7,2,15,4,14,11,5"
14269,commdev-image-keyboard-response,312,686731,learnblock1,863.1999999880791,img/planet12_right.png,12,Community 2,NA,TRUE,j,j,NA,NA,NA,1,7,"13,1,9,8,6,3,10,12,7,2,15,4,14,11,5"
14269,commdev-image-keyboard-response,313,687995,learnblock1,671.8000000119209,img/planet7_left.png,7,Community 2,NA,TRUE,f,f,NA,NA,NA,1,7,"13,1,9,8,6,3,10,12,7,2,15,4,14,11,5"
14269,commdev-image-keyboard-response,314,689259,learnblock1,754.5,img/planet10_left.png,10,Community 2,NA,TRUE,f,f,NA,NA,NA,1,7,"13,1,9,8,6,3,10,12,7,2,15,4,14,11,5"
14269,commdev-image-keyboard-response,315,690522,learnblock1,680.1000000238419,img/planet2_right.png,2,Community 2,NA,TRUE,j,j,NA,NA,NA,1,7,"13,1,9,8,6,3,10,12,7,2,15,4,14,11,5"
14269,commdev-image-keyboard-response,316,691787,learnblock1,611.3999999761581,img/planet12_left.png,12,Community 2,NA,TRUE,f,f,NA,NA,NA,1,7,"13,1,9,8,6,3,10,12,7,2,15,4,14,11,5"
14269,commdev-image-keyboard-response,317,693050,learnblock1,696.2000000476837,img/planet2_right.png,2,Community 2,NA,TRUE,j,j,NA,NA,NA,1,7,"13,1,9,8,6,3,10,12,7,2,15,4,14,11,5"
14269,commdev-image-keyboard-response,318,694315,learnblock1,654.3999999761581,img/planet10_right.png,10,Community 2,NA,TRUE,j,j,NA,NA,NA,1,7,"13,1,9,8,6,3,10,12,7,2,15,4,14,11,5"
14269,commdev-image-keyboard-response,319,695580,learnblock1,625,img/planet2_left.png,2,Community 2,NA,TRUE,f,f,NA,NA,NA,1,7,"13,1,9,8,6,3,10,12,7,2,15,4,14,11,5"
14269,commdev-image-keyboard-response,320,696843,learnblock1,764.3999999761581,img/planet10_left.png,10,Community 2,NA,TRUE,f,f,NA,NA,NA,1,7,"13,1,9,8,6,3,10,12,7,2,15,4,14,11,5"
14269,commdev-image-keyboard-response,321,698107,learnblock1,744.6000000238419,img/planet7_right.png,7,Community 2,NA,TRUE,j,j,NA,NA,NA,1,7,"13,1,9,8,6,3,10,12,7,2,15,4,14,11,5"
14269,commdev-image-keyboard-response,322,699371,learnblock1,769.5,img/planet2_right.png,2,Community 2,NA,TRUE,j,j,NA,NA,NA,1,7,"13,1,9,8,6,3,10,12,7,2,15,4,14,11,5"
14269,commdev-image-keyboard-response,323,700635,learnblock1,631.6000000238419,img/planet10_right.png,10,Community 2,NA,TRUE,j,j,NA,NA,NA,1,7,"13,1,9,8,6,3,10,12,7,2,15,4,14,11,5"
14269,commdev-image-keyboard-response,324,701899,learnblock1,762.5,img/planet2_left.png,2,Community 2,NA,TRUE,f,f,NA,NA,NA,1,7,"13,1,9,8,6,3,10,12,7,2,15,4,14,11,5"
14269,commdev-image-keyboard-response,325,703163,learnblock1,689.7000000476837,img/planet12_right.png,12,Community 2,NA,TRUE,j,j,NA,NA,NA,1,7,"13,1,9,8,6,3,10,12,7,2,15,4,14,11,5"
14269,commdev-image-keyboard-response,326,704428,learnblock1,751.1000000238419,img/planet4_left.png,4,Community 3,NA,TRUE,f,f,NA,NA,NA,1,7,"13,1,9,8,6,3,10,12,7,2,15,4,14,11,5"
14269,commdev-image-keyboard-response,327,705691,learnblock1,820.2000000476837,img/planet5_right.png,5,Community 3,NA,TRUE,j,j,NA,NA,NA,1,7,"13,1,9,8,6,3,10,12,7,2,15,4,14,11,5"
14269,commdev-image-keyboard-response,328,706956,learnblock1,890,img/planet11_left.png,11,Community 3,NA,TRUE,f,f,NA,NA,NA,1,7,"13,1,9,8,6,3,10,12,7,2,15,4,14,11,5"
14269,commdev-image-keyboard-response,329,708219,learnblock1,838.8999999761581,img/planet4_left.png,4,Community 3,NA,TRUE,f,f,NA,NA,NA,1,7,"13,1,9,8,6,3,10,12,7,2,15,4,14,11,5"
14269,commdev-image-keyboard-response,330,709483,learnblock1,928.5,img/planet5_left.png,5,Community 3,NA,TRUE,f,f,NA,NA,NA,1,7,"13,1,9,8,6,3,10,12,7,2,15,4,14,11,5"
14269,commdev-image-keyboard-response,331,710746,learnblock1,755.1999999880791,img/planet15_right.png,15,Community 3,NA,TRUE,j,j,NA,NA,NA,1,7,"13,1,9,8,6,3,10,12,7,2,15,4,14,11,5"
14269,commdev-image-keyboard-response,332,712011,learnblock1,654.8000000119209,img/planet6_left.png,6,Community 1,NA,TRUE,f,f,NA,NA,NA,1,7,"13,1,9,8,6,3,10,12,7,2,15,4,14,11,5"
14269,commdev-image-keyboard-response,333,713275,learnblock1,707.9000000357628,img/planet15_right.png,15,Community 3,NA,TRUE,j,j,NA,NA,NA,1,7,"13,1,9,8,6,3,10,12,7,2,15,4,14,11,5"
14269,commdev-image-keyboard-response,334,714539,learnblock1,644.8999999761581,img/planet14_right.png,14,Community 3,NA,TRUE,j,j,NA,NA,NA,1,7,"13,1,9,8,6,3,10,12,7,2,15,4,14,11,5"
14269,commdev-image-keyboard-response,335,715803,learnblock1,692.3999999761581,img/planet15_left.png,15,Community 3,NA,TRUE,f,f,NA,NA,NA,1,7,"13,1,9,8,6,3,10,12,7,2,15,4,14,11,5"
14269,commdev-image-keyboard-response,336,717068,learnblock1,659.6999999880791,img/planet14_right.png,14,Community 3,NA,TRUE,j,j,NA,NA,NA,1,7,"13,1,9,8,6,3,10,12,7,2,15,4,14,11,5"
14269,commdev-image-keyboard-response,337,718331,learnblock1,847.7999999523163,img/planet11_right.png,11,Community 3,NA,TRUE,j,j,NA,NA,NA,1,7,"13,1,9,8,6,3,10,12,7,2,15,4,14,11,5"
14269,commdev-image-keyboard-response,338,719595,learnblock1,709.3000000119209,img/planet14_left.png,14,Community 3,NA,TRUE,f,f,NA,NA,NA,1,7,"13,1,9,8,6,3,10,12,7,2,15,4,14,11,5"
14269,commdev-image-keyboard-response,339,720859,learnblock1,747.8000000119209,img/planet4_left.png,4,Community 3,NA,TRUE,f,f,NA,NA,NA,1,7,"13,1,9,8,6,3,10,12,7,2,15,4,14,11,5"
14269,commdev-image-keyboard-response,340,722123,learnblock1,811.3000000119209,img/planet12_left.png,12,Community 2,NA,TRUE,f,f,NA,NA,NA,1,7,"13,1,9,8,6,3,10,12,7,2,15,4,14,11,5"
14269,commdev-image-keyboard-response,341,723387,learnblock1,712.0999999642372,img/planet7_right.png,7,Community 2,NA,TRUE,j,j,NA,NA,NA,1,7,"13,1,9,8,6,3,10,12,7,2,15,4,14,11,5"
14269,commdev-image-keyboard-response,342,724651,learnblock1,923.8999999761581,img/planet12_right.png,12,Community 2,NA,FALSE,f,j,NA,NA,NA,1,7,"13,1,9,8,6,3,10,12,7,2,15,4,14,11,5"
14269,commdev-image-keyboard-response,343,725915,learnblock1,11.599999964237213,img/planet4_left.png,4,Community 3,NA,FALSE,j,f,NA,NA,NA,1,7,"13,1,9,8,6,3,10,12,7,2,15,4,14,11,5"
14269,commdev-image-keyboard-response,344,727179,learnblock1,733.1999999880791,img/planet14_left.png,14,Community 3,NA,TRUE,f,f,NA,NA,NA,1,7,"13,1,9,8,6,3,10,12,7,2,15,4,14,11,5"
14269,commdev-image-keyboard-response,345,728443,learnblock1,729.6999999880791,img/planet4_right.png,4,Community 3,NA,TRUE,j,j,NA,NA,NA,1,7,"13,1,9,8,6,3,10,12,7,2,15,4,14,11,5"
14269,commdev-image-keyboard-response,346,729707,learnblock1,1134.2999999523163,img/planet12_left.png,12,Community 2,NA,TRUE,f,f,NA,NA,NA,1,7,"13,1,9,8,6,3,10,12,7,2,15,4,14,11,5"
14269,commdev-image-keyboard-response,347,730972,learnblock1,611.5999999642372,img/planet7_right.png,7,Community 2,NA,TRUE,j,j,NA,NA,NA,1,7,"13,1,9,8,6,3,10,12,7,2,15,4,14,11,5"
14269,commdev-image-keyboard-response,351,2300859,learnblock2,729.6999999880791,img/planet9_left.png,9,Community 1,NA,TRUE,f,f,NA,NA,NA,1,7,"13,1,9,8,6,3,10,12,7,2,15,4,14,11,5"
14269,commdev-image-keyboard-response,352,2302122,learnblock2,797,img/planet8_left.png,8,Community 1,NA,TRUE,f,f,NA,NA,NA,1,7,"13,1,9,8,6,3,10,12,7,2,15,4,14,11,5"
14269,commdev-image-keyboard-response,353,2303387,learnblock2,635.3000000119209,img/planet3_right.png,3,Community 2,NA,TRUE,j,j,NA,NA,NA,1,7,"13,1,9,8,6,3,10,12,7,2,15,4,14,11,5"
14269,commdev-image-keyboard-response,354,2304651,learnblock2,562.5999999642372,img/planet10_left.png,10,Community 2,NA,TRUE,f,f,NA,NA,NA,1,7,"13,1,9,8,6,3,10,12,7,2,15,4,14,11,5"
14269,commdev-image-keyboard-response,355,2305915,learnblock2,711.8000000119209,img/planet12_left.png,12,Community 2,NA,TRUE,f,f,NA,NA,NA,1,7,"13,1,9,8,6,3,10,12,7,2,15,4,14,11,5"
14269,commdev-image-keyboard-response,356,2307180,learnblock2,622.8000000119209,img/planet4_right.png,4,Community 3,NA,TRUE,j,j,NA,NA,NA,1,7,"13,1,9,8,6,3,10,12,7,2,15,4,14,11,5"
14269,commdev-image-keyboard-response,357,2308444,learnblock2,699.7000000476837,img/planet5_right.png,5,Community 3,NA,TRUE,j,j,NA,NA,NA,1,7,"13,1,9,8,6,3,10,12,7,2,15,4,14,11,5"
14269,commdev-image-keyboard-response,358,2309706,learnblock2,557.1999999880791,img/planet15_left.png,15,Community 3,NA,TRUE,f,f,NA,NA,NA,1,7,"13,1,9,8,6,3,10,12,7,2,15,4,14,11,5"
14269,commdev-image-keyboard-response,359,2310970,learnblock2,691,img/planet6_right.png,6,Community 1,NA,TRUE,j,j,NA,NA,NA,1,7,"13,1,9,8,6,3,10,12,7,2,15,4,14,11,5"
14269,commdev-image-keyboard-response,360,2312234,learnblock2,587.5,img/planet15_left.png,15,Community 3,NA,TRUE,f,f,NA,NA,NA,1,7,"13,1,9,8,6,3,10,12,7,2,15,4,14,11,5"
14269,commdev-image-keyboard-response,361,2313499,learnblock2,617.6000000238419,img/planet5_left.png,5,Community 3,NA,TRUE,f,f,NA,NA,NA,1,7,"13,1,9,8,6,3,10,12,7,2,15,4,14,11,5"
14269,commdev-image-keyboard-response,362,2314763,learnblock2,613,img/planet11_right.png,11,Community 3,NA,TRUE,j,j,NA,NA,NA,1,7,"13,1,9,8,6,3,10,12,7,2,15,4,14,11,5"
14269,commdev-image-keyboard-response,363,2316027,learnblock2,747.1000000238419,img/planet14_right.png,14,Community 3,NA,TRUE,j,j,NA,NA,NA,1,7,"13,1,9,8,6,3,10,12,7,2,15,4,14,11,5"
14269,commdev-image-keyboard-response,364,2317292,learnblock2,608.5999999642372,img/planet11_left.png,11,Community 3,NA,TRUE,f,f,NA,NA,NA,1,7,"13,1,9,8,6,3,10,12,7,2,15,4,14,11,5"
14269,commdev-image-keyboard-response,365,2318554,learnblock2,650.1999999880791,img/planet14_right.png,14,Community 3,NA,FALSE,f,j,NA,NA,NA,1,7,"13,1,9,8,6,3,10,12,7,2,15,4,14,11,5"
14269,commdev-image-keyboard-response,366,2319820,learnblock2,592.7999999523163,img/planet11_left.png,11,Community 3,NA,TRUE,f,f,NA,NA,NA,1,7,"13,1,9,8,6,3,10,12,7,2,15,4,14,11,5"
14269,commdev-image-keyboard-response,367,2321084,learnblock2,751.1999999880791,img/planet5_right.png,5,Community 3,NA,TRUE,j,j,NA,NA,NA,1,7,"13,1,9,8,6,3,10,12,7,2,15,4,14,11,5"
14269,commdev-image-keyboard-response,368,2322347,learnblock2,705.1000000238419,img/planet15_right.png,15,Community 3,NA,TRUE,j,j,NA,NA,NA,1,7,"13,1,9,8,6,3,10,12,7,2,15,4,14,11,5"
14269,commdev-image-keyboard-response,369,2323611,learnblock2,694.3999999761581,img/planet5_left.png,5,Community 3,NA,TRUE,f,f,NA,NA,NA,1,7,"13,1,9,8,6,3,10,12,7,2,15,4,14,11,5"
14269,commdev-image-keyboard-response,370,2324876,learnblock2,631.0999999642372,img/planet4_right.png,4,Community 3,NA,TRUE,j,j,NA,NA,NA,1,7,"13,1,9,8,6,3,10,12,7,2,15,4,14,11,5"
14269,commdev-image-keyboard-response,371,2326139,learnblock2,790.0999999642372,img/planet11_left.png,11,Community 3,NA,TRUE,f,f,NA,NA,NA,1,7,"13,1,9,8,6,3,10,12,7,2,15,4,14,11,5"
14269,commdev-image-keyboard-response,372,2327404,learnblock2,635.8999999761581,img/planet15_right.png,15,Community 3,NA,TRUE,j,j,NA,NA,NA,1,7,"13,1,9,8,6,3,10,12,7,2,15,4,14,11,5"
14269,commdev-image-keyboard-response,373,2328667,learnblock2,622.5999999642372,img/planet14_right.png,14,Community 3,NA,TRUE,j,j,NA,NA,NA,1,7,"13,1,9,8,6,3,10,12,7,2,15,4,14,11,5"
14269,commdev-image-keyboard-response,374,2329931,learnblock2,627.2000000476837,img/planet5_left.png,5,Community 3,NA,TRUE,f,f,NA,NA,NA,1,7,"13,1,9,8,6,3,10,12,7,2,15,4,14,11,5"
14269,commdev-image-keyboard-response,375,2331195,learnblock2,654,img/planet14_left.png,14,Community 3,NA,TRUE,f,f,NA,NA,NA,1,7,"13,1,9,8,6,3,10,12,7,2,15,4,14,11,5"
14269,commdev-image-keyboard-response,376,2332459,learnblock2,736.8000000119209,img/planet15_left.png,15,Community 3,NA,TRUE,f,f,NA,NA,NA,1,7,"13,1,9,8,6,3,10,12,7,2,15,4,14,11,5"
14269,commdev-image-keyboard-response,377,2333723,learnblock2,715.1000000238419,img/planet11_left.png,11,Community 3,NA,TRUE,f,f,NA,NA,NA,1,7,"13,1,9,8,6,3,10,12,7,2,15,4,14,11,5"
14269,commdev-image-keyboard-response,378,2334987,learnblock2,599.7000000476837,img/planet5_left.png,5,Community 3,NA,TRUE,f,f,NA,NA,NA,1,7,"13,1,9,8,6,3,10,12,7,2,15,4,14,11,5"
14269,commdev-image-keyboard-response,379,2336251,learnblock2,728.1999999880791,img/planet14_right.png,14,Community 3,NA,TRUE,j,j,NA,NA,NA,1,7,"13,1,9,8,6,3,10,12,7,2,15,4,14,11,5"
14269,commdev-image-keyboard-response,380,2337515,learnblock2,633.7999999523163,img/planet5_right.png,5,Community 3,NA,TRUE,j,j,NA,NA,NA,1,7,"13,1,9,8,6,3,10,12,7,2,15,4,14,11,5"
14269,commdev-image-keyboard-response,381,2338778,learnblock2,591.3000000119209,img/planet15_right.png,15,Community 3,NA,TRUE,j,j,NA,NA,NA,1,7,"13,1,9,8,6,3,10,12,7,2,15,4,14,11,5"
14269,commdev-image-keyboard-response,382,2340043,learnblock2,621.2000000476837,img/planet14_left.png,14,Community 3,NA,TRUE,f,f,NA,NA,NA,1,7,"13,1,9,8,6,3,10,12,7,2,15,4,14,11,5"
14269,commdev-image-keyboard-response,383,2341307,learnblock2,532.3999999761581,img/planet11_right.png,11,Community 3,NA,TRUE,j,j,NA,NA,NA,1,7,"13,1,9,8,6,3,10,12,7,2,15,4,14,11,5"
14269,commdev-image-keyboard-response,384,2342570,learnblock2,892.5,img/planet15_right.png,15,Community 3,NA,TRUE,j,j,NA,NA,NA,1,7,"13,1,9,8,6,3,10,12,7,2,15,4,14,11,5"
14269,commdev-image-keyboard-response,385,2343835,learnblock2,763.3000000119209,img/planet14_right.png,14,Community 3,NA,TRUE,j,j,NA,NA,NA,1,7,"13,1,9,8,6,3,10,12,7,2,15,4,14,11,5"
14269,commdev-image-keyboard-response,386,2345100,learnblock2,680.5999999642372,img/planet5_left.png,5,Community 3,NA,TRUE,f,f,NA,NA,NA,1,7,"13,1,9,8,6,3,10,12,7,2,15,4,14,11,5"
14269,commdev-image-keyboard-response,387,2346363,learnblock2,642.8999999761581,img/planet14_right.png,14,Community 3,NA,TRUE,j,j,NA,NA,NA,1,7,"13,1,9,8,6,3,10,12,7,2,15,4,14,11,5"
14269,commdev-image-keyboard-response,388,2347627,learnblock2,665.3999999761581,img/planet15_left.png,15,Community 3,NA,TRUE,f,f,NA,NA,NA,1,7,"13,1,9,8,6,3,10,12,7,2,15,4,14,11,5"
14269,commdev-image-keyboard-response,389,2348890,learnblock2,646.5,img/planet5_right.png,5,Community 3,NA,TRUE,j,j,NA,NA,NA,1,7,"13,1,9,8,6,3,10,12,7,2,15,4,14,11,5"
14269,commdev-image-keyboard-response,390,2350155,learnblock2,632.6999999880791,img/planet14_right.png,14,Community 3,NA,TRUE,j,j,NA,NA,NA,1,7,"13,1,9,8,6,3,10,12,7,2,15,4,14,11,5"
14269,commdev-image-keyboard-response,391,2351419,learnblock2,653.3999999761581,img/planet4_right.png,4,Community 3,NA,TRUE,j,j,NA,NA,NA,1,7,"13,1,9,8,6,3,10,12,7,2,15,4,14,11,5"
14269,commdev-image-keyboard-response,392,2352682,learnblock2,596.3000000119209,img/planet5_left.png,5,Community 3,NA,TRUE,f,f,NA,NA,NA,1,7,"13,1,9,8,6,3,10,12,7,2,15,4,14,11,5"
14269,commdev-image-keyboard-response,393,2353947,learnblock2,586.8000000119209,img/planet14_left.png,14,Community 3,NA,TRUE,f,f,NA,NA,NA,1,7,"13,1,9,8,6,3,10,12,7,2,15,4,14,11,5"
14269,commdev-image-keyboard-response,394,2355211,learnblock2,597.1000000238419,img/planet15_left.png,15,Community 3,NA,TRUE,f,f,NA,NA,NA,1,7,"13,1,9,8,6,3,10,12,7,2,15,4,14,11,5"
14269,commdev-image-keyboard-response,395,2356475,learnblock2,589.3999999761581,img/planet6_right.png,6,Community 1,NA,TRUE,j,j,NA,NA,NA,1,7,"13,1,9,8,6,3,10,12,7,2,15,4,14,11,5"
14269,commdev-image-keyboard-response,396,2357739,learnblock2,565.8000000119209,img/planet9_right.png,9,Community 1,NA,TRUE,j,j,NA,NA,NA,1,7,"13,1,9,8,6,3,10,12,7,2,15,4,14,11,5"
14269,commdev-image-keyboard-response,397,2359004,learnblock2,716.6000000238419,img/planet13_right.png,13,Community 1,NA,TRUE,j,j,NA,NA,NA,1,7,"13,1,9,8,6,3,10,12,7,2,15,4,14,11,5"
14269,commdev-image-keyboard-response,398,2360267,learnblock2,679.1999999880791,img/planet6_left.png,6,Community 1,NA,TRUE,f,f,NA,NA,NA,1,7,"13,1,9,8,6,3,10,12,7,2,15,4,14,11,5"
14269,commdev-image-keyboard-response,399,2361531,learnblock2,591.8000000119209,img/planet15_right.png,15,Community 3,NA,TRUE,j,j,NA,NA,NA,1,7,"13,1,9,8,6,3,10,12,7,2,15,4,14,11,5"
14269,commdev-image-keyboard-response,400,2362796,learnblock2,649.2000000476837,img/planet14_left.png,14,Community 3,NA,TRUE,f,f,NA,NA,NA,1,7,"13,1,9,8,6,3,10,12,7,2,15,4,14,11,5"
14269,commdev-image-keyboard-response,401,2364059,learnblock2,578.8000000119209,img/planet5_right.png,5,Community 3,NA,TRUE,j,j,NA,NA,NA,1,7,"13,1,9,8,6,3,10,12,7,2,15,4,14,11,5"
14269,commdev-image-keyboard-response,402,2365324,learnblock2,612.9000000357628,img/planet4_right.png,4,Community 3,NA,TRUE,j,j,NA,NA,NA,1,7,"13,1,9,8,6,3,10,12,7,2,15,4,14,11,5"
14269,commdev-image-keyboard-response,403,2366588,learnblock2,584,img/planet5_right.png,5,Community 3,NA,TRUE,j,j,NA,NA,NA,1,7,"13,1,9,8,6,3,10,12,7,2,15,4,14,11,5"
14269,commdev-image-keyboard-response,404,2367851,learnblock2,493.5999999642372,img/planet11_left.png,11,Community 3,NA,TRUE,f,f,NA,NA,NA,1,7,"13,1,9,8,6,3,10,12,7,2,15,4,14,11,5"
14269,commdev-image-keyboard-response,405,2369115,learnblock2,541.5999999642372,img/planet4_left.png,4,Community 3,NA,FALSE,j,f,NA,NA,NA,1,7,"13,1,9,8,6,3,10,12,7,2,15,4,14,11,5"
14269,commdev-image-keyboard-response,406,2370380,learnblock2,864.8999999761581,img/planet11_left.png,11,Community 3,NA,TRUE,f,f,NA,NA,NA,1,7,"13,1,9,8,6,3,10,12,7,2,15,4,14,11,5"
14269,commdev-image-keyboard-response,407,2371643,learnblock2,902,img/planet5_right.png,5,Community 3,NA,TRUE,j,j,NA,NA,NA,1,7,"13,1,9,8,6,3,10,12,7,2,15,4,14,11,5"
14269,commdev-image-keyboard-response,408,2372907,learnblock2,698.3999999761581,img/planet11_left.png,11,Community 3,NA,TRUE,f,f,NA,NA,NA,1,7,"13,1,9,8,6,3,10,12,7,2,15,4,14,11,5"
14269,commdev-image-keyboard-response,409,2374171,learnblock2,724,img/planet5_right.png,5,Community 3,NA,TRUE,j,j,NA,NA,NA,1,7,"13,1,9,8,6,3,10,12,7,2,15,4,14,11,5"
14269,commdev-image-keyboard-response,410,2375436,learnblock2,618.1999999880791,img/planet14_left.png,14,Community 3,NA,TRUE,f,f,NA,NA,NA,1,7,"13,1,9,8,6,3,10,12,7,2,15,4,14,11,5"
14269,commdev-image-keyboard-response,411,2376699,learnblock2,554.5,img/planet4_right.png,4,Community 3,NA,TRUE,j,j,NA,NA,NA,1,7,"13,1,9,8,6,3,10,12,7,2,15,4,14,11,5"
14269,commdev-image-keyboard-response,412,2377964,learnblock2,548.6999999880791,img/planet14_right.png,14,Community 3,NA,TRUE,j,j,NA,NA,NA,1,7,"13,1,9,8,6,3,10,12,7,2,15,4,14,11,5"
14269,commdev-image-keyboard-response,413,2379228,learnblock2,842.5,img/planet15_right.png,15,Community 3,NA,TRUE,j,j,NA,NA,NA,1,7,"13,1,9,8,6,3,10,12,7,2,15,4,14,11,5"
14269,commdev-image-keyboard-response,414,2380492,learnblock2,795.8000000119209,img/planet6_right.png,6,Community 1,NA,TRUE,j,j,NA,NA,NA,1,7,"13,1,9,8,6,3,10,12,7,2,15,4,14,11,5"
14269,commdev-image-keyboard-response,415,2381756,learnblock2,709.9000000357628,img/planet13_left.png,13,Community 1,NA,TRUE,f,f,NA,NA,NA,1,7,"13,1,9,8,6,3,10,12,7,2,15,4,14,11,5"
14269,commdev-image-keyboard-response,416,2383019,learnblock2,709.8000000119209,img/planet9_left.png,9,Community 1,NA,TRUE,f,f,NA,NA,NA,1,7,"13,1,9,8,6,3,10,12,7,2,15,4,14,11,5"
14269,commdev-image-keyboard-response,417,2384283,learnblock2,640.8000000119209,img/planet8_right.png,8,Community 1,NA,TRUE,j,j,NA,NA,NA,1,7,"13,1,9,8,6,3,10,12,7,2,15,4,14,11,5"
14269,commdev-image-keyboard-response,418,2385547,learnblock2,684.4000000357628,img/planet3_right.png,3,Community 2,NA,TRUE,j,j,NA,NA,NA,1,7,"13,1,9,8,6,3,10,12,7,2,15,4,14,11,5"
14269,commdev-image-keyboard-response,419,2386812,learnblock2,641.9000000357628,img/planet7_right.png,7,Community 2,NA,TRUE,j,j,NA,NA,NA,1,7,"13,1,9,8,6,3,10,12,7,2,15,4,14,11,5"
14269,commdev-image-keyboard-response,420,2388075,learnblock2,563.0999999642372,img/planet12_right.png,12,Community 2,NA,TRUE,j,j,NA,NA,NA,1,7,"13,1,9,8,6,3,10,12,7,2,15,4,14,11,5"
14269,commdev-image-keyboard-response,421,2389339,learnblock2,593,img/planet4_right.png,4,Community 3,NA,TRUE,j,j,NA,NA,NA,1,7,"13,1,9,8,6,3,10,12,7,2,15,4,14,11,5"
14269,commdev-image-keyboard-response,422,2390604,learnblock2,569.8999999761581,img/planet12_left.png,12,Community 2,NA,TRUE,f,f,NA,NA,NA,1,7,"13,1,9,8,6,3,10,12,7,2,15,4,14,11,5"
14269,commdev-image-keyboard-response,423,2391868,learnblock2,561.3000000119209,img/planet10_right.png,10,Community 2,NA,TRUE,j,j,NA,NA,NA,1,7,"13,1,9,8,6,3,10,12,7,2,15,4,14,11,5"
14269,commdev-image-keyboard-response,424,2393131,learnblock2,824.8999999761581,img/planet2_left.png,2,Community 2,NA,TRUE,f,f,NA,NA,NA,1,7,"13,1,9,8,6,3,10,12,7,2,15,4,14,11,5"
14269,commdev-image-keyboard-response,425,2394395,learnblock2,671.1999999880791,img/planet3_right.png,3,Community 2,NA,TRUE,j,j,NA,NA,NA,1,7,"13,1,9,8,6,3,10,12,7,2,15,4,14,11,5"
14269,commdev-image-keyboard-response,426,2395659,learnblock2,677,img/planet8_left.png,8,Community 1,NA,TRUE,f,f,NA,NA,NA,1,7,"13,1,9,8,6,3,10,12,7,2,15,4,14,11,5"
14269,commdev-image-keyboard-response,427,2396924,learnblock2,697.7999999523163,img/planet3_left.png,3,Community 2,NA,TRUE,f,f,NA,NA,NA,1,7,"13,1,9,8,6,3,10,12,7,2,15,4,14,11,5"
14269,commdev-image-keyboard-response,428,2398188,learnblock2,638.3999999761581,img/planet7_left.png,7,Community 2,NA,TRUE,f,f,NA,NA,NA,1,7,"13,1,9,8,6,3,10,12,7,2,15,4,14,11,5"
14269,commdev-image-keyboard-response,429,2399451,learnblock2,531.4000000357628,img/planet10_right.png,10,Community 2,NA,TRUE,j,j,NA,NA,NA,1,7,"13,1,9,8,6,3,10,12,7,2,15,4,14,11,5"
14269,commdev-image-keyboard-response,430,2400715,learnblock2,640.0999999642372,img/planet12_right.png,12,Community 2,NA,TRUE,j,j,NA,NA,NA,1,7,"13,1,9,8,6,3,10,12,7,2,15,4,14,11,5"
14269,commdev-image-keyboard-response,431,2401979,learnblock2,659.5,img/planet10_left.png,10,Community 2,NA,TRUE,f,f,NA,NA,NA,1,7,"13,1,9,8,6,3,10,12,7,2,15,4,14,11,5"
14269,commdev-image-keyboard-response,432,2403243,learnblock2,734.5,img/planet12_left.png,12,Community 2,NA,TRUE,f,f,NA,NA,NA,1,7,"13,1,9,8,6,3,10,12,7,2,15,4,14,11,5"
14269,commdev-image-keyboard-response,433,2404508,learnblock2,655.5,img/planet10_left.png,10,Community 2,NA,TRUE,f,f,NA,NA,NA,1,7,"13,1,9,8,6,3,10,12,7,2,15,4,14,11,5"
14269,commdev-image-keyboard-response,434,2405771,learnblock2,656.6999999880791,img/planet12_left.png,12,Community 2,NA,TRUE,f,f,NA,NA,NA,1,7,"13,1,9,8,6,3,10,12,7,2,15,4,14,11,5"
14269,commdev-image-keyboard-response,435,2407035,learnblock2,544.1999999880791,img/planet7_right.png,7,Community 2,NA,TRUE,j,j,NA,NA,NA,1,7,"13,1,9,8,6,3,10,12,7,2,15,4,14,11,5"
14269,commdev-image-keyboard-response,436,2408299,learnblock2,569.1999999880791,img/planet2_right.png,2,Community 2,NA,TRUE,j,j,NA,NA,NA,1,7,"13,1,9,8,6,3,10,12,7,2,15,4,14,11,5"
14269,commdev-image-keyboard-response,437,2409564,learnblock2,530.5,img/planet12_left.png,12,Community 2,NA,TRUE,f,f,NA,NA,NA,1,7,"13,1,9,8,6,3,10,12,7,2,15,4,14,11,5"
14269,commdev-image-keyboard-response,438,2410828,learnblock2,476.30000001192093,img/planet10_right.png,10,Community 2,NA,TRUE,j,j,NA,NA,NA,1,7,"13,1,9,8,6,3,10,12,7,2,15,4,14,11,5"
14269,commdev-image-keyboard-response,439,2412091,learnblock2,685.6999999880791,img/planet3_right.png,3,Community 2,NA,TRUE,j,j,NA,NA,NA,1,7,"13,1,9,8,6,3,10,12,7,2,15,4,14,11,5"
14269,commdev-image-keyboard-response,440,2413354,learnblock2,672.6999999880791,img/planet8_right.png,8,Community 1,NA,TRUE,j,j,NA,NA,NA,1,7,"13,1,9,8,6,3,10,12,7,2,15,4,14,11,5"
14269,commdev-image-keyboard-response,441,2414620,learnblock2,607.5,img/planet1_right.png,1,Community 1,NA,TRUE,j,j,NA,NA,NA,1,7,"13,1,9,8,6,3,10,12,7,2,15,4,14,11,5"
14269,commdev-image-keyboard-response,442,2415883,learnblock2,583.6000000238419,img/planet6_right.png,6,Community 1,NA,TRUE,j,j,NA,NA,NA,1,7,"13,1,9,8,6,3,10,12,7,2,15,4,14,11,5"
14269,commdev-image-keyboard-response,443,2417147,learnblock2,586.8999999761581,img/planet15_left.png,15,Community 3,NA,TRUE,f,f,NA,NA,NA,1,7,"13,1,9,8,6,3,10,12,7,2,15,4,14,11,5"
14269,commdev-image-keyboard-response,444,2418411,learnblock2,652.8000000119209,img/planet5_right.png,5,Community 3,NA,TRUE,j,j,NA,NA,NA,1,7,"13,1,9,8,6,3,10,12,7,2,15,4,14,11,5"
14269,commdev-image-keyboard-response,445,2419675,learnblock2,693.4000000357628,img/planet14_left.png,14,Community 3,NA,TRUE,f,f,NA,NA,NA,1,7,"13,1,9,8,6,3,10,12,7,2,15,4,14,11,5"
14269,commdev-image-keyboard-response,446,2420939,learnblock2,697.8999999761581,img/planet11_left.png,11,Community 3,NA,TRUE,f,f,NA,NA,NA,1,7,"13,1,9,8,6,3,10,12,7,2,15,4,14,11,5"
14269,commdev-image-keyboard-response,447,2422204,learnblock2,1027.6000000238419,img/planet15_left.png,15,Community 3,NA,TRUE,f,f,NA,NA,NA,1,7,"13,1,9,8,6,3,10,12,7,2,15,4,14,11,5"
14269,commdev-image-keyboard-response,448,2423467,learnblock2,611.6999999880791,img/planet11_left.png,11,Community 3,NA,TRUE,f,f,NA,NA,NA,1,7,"13,1,9,8,6,3,10,12,7,2,15,4,14,11,5"
14269,commdev-image-keyboard-response,449,2424731,learnblock2,590.5999999642372,img/planet15_right.png,15,Community 3,NA,TRUE,j,j,NA,NA,NA,1,7,"13,1,9,8,6,3,10,12,7,2,15,4,14,11,5"
14269,commdev-image-keyboard-response,450,2425995,learnblock2,722,img/planet11_left.png,11,Community 3,NA,TRUE,f,f,NA,NA,NA,1,7,"13,1,9,8,6,3,10,12,7,2,15,4,14,11,5"
14269,commdev-image-keyboard-response,451,2427259,learnblock2,647.1000000238419,img/planet14_right.png,14,Community 3,NA,TRUE,j,j,NA,NA,NA,1,7,"13,1,9,8,6,3,10,12,7,2,15,4,14,11,5"
14269,commdev-image-keyboard-response,452,2428523,learnblock2,633.5,img/planet5_left.png,5,Community 3,NA,TRUE,f,f,NA,NA,NA,1,7,"13,1,9,8,6,3,10,12,7,2,15,4,14,11,5"
14269,commdev-image-keyboard-response,453,2429787,learnblock2,783.1999999880791,img/planet15_left.png,15,Community 3,NA,TRUE,f,f,NA,NA,NA,1,7,"13,1,9,8,6,3,10,12,7,2,15,4,14,11,5"
14269,commdev-image-keyboard-response,454,2431052,learnblock2,645.1999999880791,img/planet14_right.png,14,Community 3,NA,TRUE,j,j,NA,NA,NA,1,7,"13,1,9,8,6,3,10,12,7,2,15,4,14,11,5"
14269,commdev-image-keyboard-response,455,2432315,learnblock2,731.1999999880791,img/planet11_right.png,11,Community 3,NA,TRUE,j,j,NA,NA,NA,1,7,"13,1,9,8,6,3,10,12,7,2,15,4,14,11,5"
14269,commdev-image-keyboard-response,456,2433579,learnblock2,711.8999999761581,img/planet4_left.png,4,Community 3,NA,TRUE,f,f,NA,NA,NA,1,7,"13,1,9,8,6,3,10,12,7,2,15,4,14,11,5"
14269,commdev-image-keyboard-response,457,2434844,learnblock2,646.7999999523163,img/planet11_right.png,11,Community 3,NA,TRUE,j,j,NA,NA,NA,1,7,"13,1,9,8,6,3,10,12,7,2,15,4,14,11,5"
14269,commdev-image-keyboard-response,458,2436106,learnblock2,712,img/planet4_right.png,4,Community 3,NA,TRUE,j,j,NA,NA,NA,1,7,"13,1,9,8,6,3,10,12,7,2,15,4,14,11,5"
14269,commdev-image-keyboard-response,459,2437371,learnblock2,693.3000000119209,img/planet14_left.png,14,Community 3,NA,TRUE,f,f,NA,NA,NA,1,7,"13,1,9,8,6,3,10,12,7,2,15,4,14,11,5"
14269,commdev-image-keyboard-response,460,2438635,learnblock2,677.8999999761581,img/planet15_left.png,15,Community 3,NA,TRUE,f,f,NA,NA,NA,1,7,"13,1,9,8,6,3,10,12,7,2,15,4,14,11,5"
14269,commdev-image-keyboard-response,461,2439899,learnblock2,897.1999999880791,img/planet11_left.png,11,Community 3,NA,TRUE,f,f,NA,NA,NA,1,7,"13,1,9,8,6,3,10,12,7,2,15,4,14,11,5"
14269,commdev-image-keyboard-response,462,2441163,learnblock2,801.5,img/planet15_left.png,15,Community 3,NA,TRUE,f,f,NA,NA,NA,1,7,"13,1,9,8,6,3,10,12,7,2,15,4,14,11,5"
14269,commdev-image-keyboard-response,463,2442427,learnblock2,698.8999999761581,img/planet14_left.png,14,Community 3,NA,TRUE,f,f,NA,NA,NA,1,7,"13,1,9,8,6,3,10,12,7,2,15,4,14,11,5"
14269,commdev-image-keyboard-response,464,2443692,learnblock2,567.6999999880791,img/planet15_right.png,15,Community 3,NA,TRUE,j,j,NA,NA,NA,1,7,"13,1,9,8,6,3,10,12,7,2,15,4,14,11,5"
14269,commdev-image-keyboard-response,465,2444955,learnblock2,618.2999999523163,img/planet11_left.png,11,Community 3,NA,TRUE,f,f,NA,NA,NA,1,7,"13,1,9,8,6,3,10,12,7,2,15,4,14,11,5"
14269,commdev-image-keyboard-response,466,2446219,learnblock2,661,img/planet4_left.png,4,Community 3,NA,TRUE,f,f,NA,NA,NA,1,7,"13,1,9,8,6,3,10,12,7,2,15,4,14,11,5"
14269,commdev-image-keyboard-response,467,2447483,learnblock2,637.8999999761581,img/planet14_left.png,14,Community 3,NA,TRUE,f,f,NA,NA,NA,1,7,"13,1,9,8,6,3,10,12,7,2,15,4,14,11,5"
14269,commdev-image-keyboard-response,468,2448747,learnblock2,627.2999999523163,img/planet15_left.png,15,Community 3,NA,TRUE,f,f,NA,NA,NA,1,7,"13,1,9,8,6,3,10,12,7,2,15,4,14,11,5"
14269,commdev-image-keyboard-response,469,2450011,learnblock2,602.6999999880791,img/planet11_right.png,11,Community 3,NA,TRUE,j,j,NA,NA,NA,1,7,"13,1,9,8,6,3,10,12,7,2,15,4,14,11,5"
14269,commdev-image-keyboard-response,470,2451276,learnblock2,586.5,img/planet15_left.png,15,Community 3,NA,TRUE,f,f,NA,NA,NA,1,7,"13,1,9,8,6,3,10,12,7,2,15,4,14,11,5"
14269,commdev-image-keyboard-response,471,2452539,learnblock2,519.2000000476837,img/planet6_right.png,6,Community 1,NA,TRUE,j,j,NA,NA,NA,1,7,"13,1,9,8,6,3,10,12,7,2,15,4,14,11,5"
14269,commdev-image-keyboard-response,472,2453803,learnblock2,552,img/planet15_left.png,15,Community 3,NA,TRUE,f,f,NA,NA,NA,1,7,"13,1,9,8,6,3,10,12,7,2,15,4,14,11,5"
14269,commdev-image-keyboard-response,473,2455067,learnblock2,519.8000000119209,img/planet11_right.png,11,Community 3,NA,TRUE,j,j,NA,NA,NA,1,7,"13,1,9,8,6,3,10,12,7,2,15,4,14,11,5"
14269,commdev-image-keyboard-response,474,2456331,learnblock2,612.9000000357628,img/planet14_left.png,14,Community 3,NA,TRUE,f,f,NA,NA,NA,1,7,"13,1,9,8,6,3,10,12,7,2,15,4,14,11,5"
14269,commdev-image-keyboard-response,475,2457595,learnblock2,613.1000000238419,img/planet4_left.png,4,Community 3,NA,TRUE,f,f,NA,NA,NA,1,7,"13,1,9,8,6,3,10,12,7,2,15,4,14,11,5"
14269,commdev-image-keyboard-response,476,2458859,learnblock2,553.9000000357628,img/planet12_right.png,12,Community 2,NA,TRUE,j,j,NA,NA,NA,1,7,"13,1,9,8,6,3,10,12,7,2,15,4,14,11,5"
14269,commdev-image-keyboard-response,477,2460124,learnblock2,675.6000000238419,img/planet7_right.png,7,Community 2,NA,TRUE,j,j,NA,NA,NA,1,7,"13,1,9,8,6,3,10,12,7,2,15,4,14,11,5"
14269,commdev-image-keyboard-response,478,2461388,learnblock2,703.2999999523163,img/planet12_left.png,12,Community 2,NA,TRUE,f,f,NA,NA,NA,1,7,"13,1,9,8,6,3,10,12,7,2,15,4,14,11,5"
14269,commdev-image-keyboard-response,479,2462651,learnblock2,752.8000000119209,img/planet10_left.png,10,Community 2,NA,TRUE,f,f,NA,NA,NA,1,7,"13,1,9,8,6,3,10,12,7,2,15,4,14,11,5"
14269,commdev-image-keyboard-response,480,2463915,learnblock2,895.3000000119209,img/planet7_left.png,7,Community 2,NA,TRUE,f,f,NA,NA,NA,1,7,"13,1,9,8,6,3,10,12,7,2,15,4,14,11,5"
14269,commdev-image-keyboard-response,481,2465179,learnblock2,719.9000000357628,img/planet12_right.png,12,Community 2,NA,TRUE,j,j,NA,NA,NA,1,7,"13,1,9,8,6,3,10,12,7,2,15,4,14,11,5"
14269,commdev-image-keyboard-response,482,2466444,learnblock2,615.3000000119209,img/planet4_left.png,4,Community 3,NA,TRUE,f,f,NA,NA,NA,1,7,"13,1,9,8,6,3,10,12,7,2,15,4,14,11,5"
14269,commdev-image-keyboard-response,483,2467707,learnblock2,647,img/planet11_left.png,11,Community 3,NA,TRUE,f,f,NA,NA,NA,1,7,"13,1,9,8,6,3,10,12,7,2,15,4,14,11,5"
14269,commdev-image-keyboard-response,484,2468972,learnblock2,650,img/planet5_left.png,5,Community 3,NA,TRUE,f,f,NA,NA,NA,1,7,"13,1,9,8,6,3,10,12,7,2,15,4,14,11,5"
14269,commdev-image-keyboard-response,485,2470235,learnblock2,593.1000000238419,img/planet15_right.png,15,Community 3,NA,TRUE,j,j,NA,NA,NA,1,7,"13,1,9,8,6,3,10,12,7,2,15,4,14,11,5"
14269,commdev-image-keyboard-response,486,2471500,learnblock2,941.1000000238419,img/planet11_right.png,11,Community 3,NA,TRUE,j,j,NA,NA,NA,1,7,"13,1,9,8,6,3,10,12,7,2,15,4,14,11,5"
14269,commdev-image-keyboard-response,487,2472763,learnblock2,567.0999999642372,img/planet5_right.png,5,Community 3,NA,TRUE,j,j,NA,NA,NA,1,7,"13,1,9,8,6,3,10,12,7,2,15,4,14,11,5"
14269,commdev-image-keyboard-response,488,2474027,learnblock2,529,img/planet4_left.png,4,Community 3,NA,TRUE,f,f,NA,NA,NA,1,7,"13,1,9,8,6,3,10,12,7,2,15,4,14,11,5"
14269,commdev-image-keyboard-response,489,2475291,learnblock2,765.4000000357628,img/planet11_right.png,11,Community 3,NA,FALSE,f,j,NA,NA,NA,1,7,"13,1,9,8,6,3,10,12,7,2,15,4,14,11,5"
14269,commdev-image-keyboard-response,490,2476555,learnblock2,807,img/planet15_right.png,15,Community 3,NA,TRUE,j,j,NA,NA,NA,1,7,"13,1,9,8,6,3,10,12,7,2,15,4,14,11,5"
14269,commdev-image-keyboard-response,491,2477818,learnblock2,677.0999999642372,img/planet14_right.png,14,Community 3,NA,TRUE,j,j,NA,NA,NA,1,7,"13,1,9,8,6,3,10,12,7,2,15,4,14,11,5"
14269,commdev-image-keyboard-response,492,2479083,learnblock2,632.5,img/planet5_left.png,5,Community 3,NA,TRUE,f,f,NA,NA,NA,1,7,"13,1,9,8,6,3,10,12,7,2,15,4,14,11,5"
14269,commdev-image-keyboard-response,493,2480347,learnblock2,591.4000000357628,img/planet4_right.png,4,Community 3,NA,TRUE,j,j,NA,NA,NA,1,7,"13,1,9,8,6,3,10,12,7,2,15,4,14,11,5"
14269,commdev-image-keyboard-response,494,2481611,learnblock2,695.1000000238419,img/planet5_right.png,5,Community 3,NA,TRUE,j,j,NA,NA,NA,1,7,"13,1,9,8,6,3,10,12,7,2,15,4,14,11,5"
14269,commdev-image-keyboard-response,495,2482875,learnblock2,682.3000000119209,img/planet11_left.png,11,Community 3,NA,TRUE,f,f,NA,NA,NA,1,7,"13,1,9,8,6,3,10,12,7,2,15,4,14,11,5"
14269,commdev-image-keyboard-response,496,2484139,learnblock2,781.9000000357628,img/planet4_right.png,4,Community 3,NA,TRUE,j,j,NA,NA,NA,1,7,"13,1,9,8,6,3,10,12,7,2,15,4,14,11,5"
14269,commdev-image-keyboard-response,497,2485404,learnblock2,663.8999999761581,img/planet5_right.png,5,Community 3,NA,TRUE,j,j,NA,NA,NA,1,7,"13,1,9,8,6,3,10,12,7,2,15,4,14,11,5"
14269,commdev-image-keyboard-response,498,2486667,learnblock2,641.5,img/planet4_left.png,4,Community 3,NA,TRUE,f,f,NA,NA,NA,1,7,"13,1,9,8,6,3,10,12,7,2,15,4,14,11,5"
14269,commdev-image-keyboard-response,499,2487932,learnblock2,605.3999999761581,img/planet5_right.png,5,Community 3,NA,TRUE,j,j,NA,NA,NA,1,7,"13,1,9,8,6,3,10,12,7,2,15,4,14,11,5"
14269,commdev-image-keyboard-response,500,2489195,learnblock2,713.1999999880791,img/planet14_right.png,14,Community 3,NA,TRUE,j,j,NA,NA,NA,1,7,"13,1,9,8,6,3,10,12,7,2,15,4,14,11,5"
14269,commdev-image-keyboard-response,501,2490459,learnblock2,595.4000000357628,img/planet4_left.png,4,Community 3,NA,TRUE,f,f,NA,NA,NA,1,7,"13,1,9,8,6,3,10,12,7,2,15,4,14,11,5"
14269,commdev-image-keyboard-response,502,2491723,learnblock2,596.8999999761581,img/planet11_left.png,11,Community 3,NA,TRUE,f,f,NA,NA,NA,1,7,"13,1,9,8,6,3,10,12,7,2,15,4,14,11,5"
14269,commdev-image-keyboard-response,503,2492987,learnblock2,743.5,img/planet5_left.png,5,Community 3,NA,TRUE,f,f,NA,NA,NA,1,7,"13,1,9,8,6,3,10,12,7,2,15,4,14,11,5"
14269,commdev-image-keyboard-response,504,2494251,learnblock2,536.6999999880791,img/planet4_right.png,4,Community 3,NA,TRUE,j,j,NA,NA,NA,1,7,"13,1,9,8,6,3,10,12,7,2,15,4,14,11,5"
14269,commdev-image-keyboard-response,505,2495515,learnblock2,621.2000000476837,img/planet5_right.png,5,Community 3,NA,TRUE,j,j,NA,NA,NA,1,7,"13,1,9,8,6,3,10,12,7,2,15,4,14,11,5"
14269,commdev-image-keyboard-response,506,2496779,learnblock2,634.6000000238419,img/planet14_right.png,14,Community 3,NA,TRUE,j,j,NA,NA,NA,1,7,"13,1,9,8,6,3,10,12,7,2,15,4,14,11,5"
14269,commdev-image-keyboard-response,507,2498043,learnblock2,576.3000000119209,img/planet5_right.png,5,Community 3,NA,TRUE,j,j,NA,NA,NA,1,7,"13,1,9,8,6,3,10,12,7,2,15,4,14,11,5"
14269,commdev-image-keyboard-response,508,2499307,learnblock2,544.1999999880791,img/planet14_left.png,14,Community 3,NA,TRUE,f,f,NA,NA,NA,1,7,"13,1,9,8,6,3,10,12,7,2,15,4,14,11,5"
14269,commdev-image-keyboard-response,509,2500571,learnblock2,587.0999999642372,img/planet5_left.png,5,Community 3,NA,TRUE,f,f,NA,NA,NA,1,7,"13,1,9,8,6,3,10,12,7,2,15,4,14,11,5"
14269,commdev-image-keyboard-response,510,2501835,learnblock2,556.5999999642372,img/planet14_left.png,14,Community 3,NA,TRUE,f,f,NA,NA,NA,1,7,"13,1,9,8,6,3,10,12,7,2,15,4,14,11,5"
14269,commdev-image-keyboard-response,511,2503099,learnblock2,605.7000000476837,img/planet4_left.png,4,Community 3,NA,TRUE,f,f,NA,NA,NA,1,7,"13,1,9,8,6,3,10,12,7,2,15,4,14,11,5"
14269,commdev-image-keyboard-response,512,2504363,learnblock2,602.6000000238419,img/planet11_left.png,11,Community 3,NA,TRUE,f,f,NA,NA,NA,1,7,"13,1,9,8,6,3,10,12,7,2,15,4,14,11,5"
14269,commdev-image-keyboard-response,513,2505627,learnblock2,679.3000000119209,img/planet4_left.png,4,Community 3,NA,TRUE,f,f,NA,NA,NA,1,7,"13,1,9,8,6,3,10,12,7,2,15,4,14,11,5"
14269,commdev-image-keyboard-response,514,2506891,learnblock2,620.1000000238419,img/planet11_left.png,11,Community 3,NA,TRUE,f,f,NA,NA,NA,1,7,"13,1,9,8,6,3,10,12,7,2,15,4,14,11,5"
14269,commdev-image-keyboard-response,515,2508156,learnblock2,523.6000000238419,img/planet15_right.png,15,Community 3,NA,TRUE,j,j,NA,NA,NA,1,7,"13,1,9,8,6,3,10,12,7,2,15,4,14,11,5"
14269,commdev-image-keyboard-response,516,2509419,learnblock2,557.3999999761581,img/planet5_right.png,5,Community 3,NA,TRUE,j,j,NA,NA,NA,1,7,"13,1,9,8,6,3,10,12,7,2,15,4,14,11,5"
14269,commdev-image-keyboard-response,517,2510684,learnblock2,552.5999999642372,img/planet15_left.png,15,Community 3,NA,TRUE,f,f,NA,NA,NA,1,7,"13,1,9,8,6,3,10,12,7,2,15,4,14,11,5"
14269,commdev-image-keyboard-response,518,2511947,learnblock2,629.6999999880791,img/planet6_left.png,6,Community 1,NA,TRUE,f,f,NA,NA,NA,1,7,"13,1,9,8,6,3,10,12,7,2,15,4,14,11,5"
14269,commdev-image-keyboard-response,519,2513212,learnblock2,673.6000000238419,img/planet13_left.png,13,Community 1,NA,TRUE,f,f,NA,NA,NA,1,7,"13,1,9,8,6,3,10,12,7,2,15,4,14,11,5"
14269,commdev-image-keyboard-response,520,2514476,learnblock2,608.1000000238419,img/planet6_right.png,6,Community 1,NA,TRUE,j,j,NA,NA,NA,1,7,"13,1,9,8,6,3,10,12,7,2,15,4,14,11,5"
14269,commdev-image-keyboard-response,521,2515740,learnblock2,620.3000000119209,img/planet9_left.png,9,Community 1,NA,TRUE,f,f,NA,NA,NA,1,7,"13,1,9,8,6,3,10,12,7,2,15,4,14,11,5"
14269,commdev-image-keyboard-response,522,2517003,learnblock2,615.8000000119209,img/planet6_left.png,6,Community 1,NA,TRUE,f,f,NA,NA,NA,1,7,"13,1,9,8,6,3,10,12,7,2,15,4,14,11,5"
14269,commdev-image-keyboard-response,523,2518267,learnblock2,651.5,img/planet1_right.png,1,Community 1,NA,TRUE,j,j,NA,NA,NA,1,7,"13,1,9,8,6,3,10,12,7,2,15,4,14,11,5"
14269,commdev-image-keyboard-response,524,2519531,learnblock2,580.6999999880791,img/planet6_left.png,6,Community 1,NA,TRUE,f,f,NA,NA,NA,1,7,"13,1,9,8,6,3,10,12,7,2,15,4,14,11,5"
14269,commdev-image-keyboard-response,525,2520795,learnblock2,643.8000000119209,img/planet9_right.png,9,Community 1,NA,TRUE,j,j,NA,NA,NA,1,7,"13,1,9,8,6,3,10,12,7,2,15,4,14,11,5"
14269,commdev-image-keyboard-response,526,2522059,learnblock2,581.8000000119209,img/planet1_left.png,1,Community 1,NA,TRUE,f,f,NA,NA,NA,1,7,"13,1,9,8,6,3,10,12,7,2,15,4,14,11,5"
14269,commdev-image-keyboard-response,527,2523324,learnblock2,707.8000000119209,img/planet9_right.png,9,Community 1,NA,TRUE,j,j,NA,NA,NA,1,7,"13,1,9,8,6,3,10,12,7,2,15,4,14,11,5"
14269,commdev-image-keyboard-response,528,2524587,learnblock2,815.5,img/planet1_right.png,1,Community 1,NA,TRUE,j,j,NA,NA,NA,1,7,"13,1,9,8,6,3,10,12,7,2,15,4,14,11,5"
14269,commdev-image-keyboard-response,529,2525853,learnblock2,850.3000000119209,img/planet9_right.png,9,Community 1,NA,TRUE,j,j,NA,NA,NA,1,7,"13,1,9,8,6,3,10,12,7,2,15,4,14,11,5"
14269,commdev-image-keyboard-response,530,2527115,learnblock2,655.3999999761581,img/planet1_right.png,1,Community 1,NA,TRUE,j,j,NA,NA,NA,1,7,"13,1,9,8,6,3,10,12,7,2,15,4,14,11,5"
14269,commdev-image-keyboard-response,531,2528380,learnblock2,639.0999999642372,img/planet8_left.png,8,Community 1,NA,TRUE,f,f,NA,NA,NA,1,7,"13,1,9,8,6,3,10,12,7,2,15,4,14,11,5"
14269,commdev-image-keyboard-response,532,2529644,learnblock2,691.1999999880791,img/planet13_left.png,13,Community 1,NA,TRUE,f,f,NA,NA,NA,1,7,"13,1,9,8,6,3,10,12,7,2,15,4,14,11,5"
14269,commdev-image-keyboard-response,533,2530907,learnblock2,848.6999999880791,img/planet9_left.png,9,Community 1,NA,TRUE,f,f,NA,NA,NA,1,7,"13,1,9,8,6,3,10,12,7,2,15,4,14,11,5"
14269,commdev-image-keyboard-response,534,2532171,learnblock2,592.3000000119209,img/planet1_right.png,1,Community 1,NA,TRUE,j,j,NA,NA,NA,1,7,"13,1,9,8,6,3,10,12,7,2,15,4,14,11,5"
14269,commdev-image-keyboard-response,535,2533435,learnblock2,623.8999999761581,img/planet13_left.png,13,Community 1,NA,TRUE,f,f,NA,NA,NA,1,7,"13,1,9,8,6,3,10,12,7,2,15,4,14,11,5"
14269,commdev-image-keyboard-response,536,2534700,learnblock2,726.2999999523163,img/planet9_left.png,9,Community 1,NA,TRUE,f,f,NA,NA,NA,1,7,"13,1,9,8,6,3,10,12,7,2,15,4,14,11,5"
14269,commdev-image-keyboard-response,537,2535964,learnblock2,747.5,img/planet8_left.png,8,Community 1,NA,TRUE,f,f,NA,NA,NA,1,7,"13,1,9,8,6,3,10,12,7,2,15,4,14,11,5"
14269,commdev-image-keyboard-response,538,2537227,learnblock2,662.3000000119209,img/planet13_left.png,13,Community 1,NA,TRUE,f,f,NA,NA,NA,1,7,"13,1,9,8,6,3,10,12,7,2,15,4,14,11,5"
14269,commdev-image-keyboard-response,539,2538491,learnblock2,654.6000000238419,img/planet6_right.png,6,Community 1,NA,TRUE,j,j,NA,NA,NA,1,7,"13,1,9,8,6,3,10,12,7,2,15,4,14,11,5"
14269,commdev-image-keyboard-response,540,2539755,learnblock2,603.8000000119209,img/planet9_left.png,9,Community 1,NA,TRUE,f,f,NA,NA,NA,1,7,"13,1,9,8,6,3,10,12,7,2,15,4,14,11,5"
14269,commdev-image-keyboard-response,541,2541019,learnblock2,631.1000000238419,img/planet1_right.png,1,Community 1,NA,TRUE,j,j,NA,NA,NA,1,7,"13,1,9,8,6,3,10,12,7,2,15,4,14,11,5"
14269,commdev-image-keyboard-response,542,2542284,learnblock2,658.5,img/planet6_left.png,6,Community 1,NA,TRUE,f,f,NA,NA,NA,1,7,"13,1,9,8,6,3,10,12,7,2,15,4,14,11,5"
14269,commdev-image-keyboard-response,543,2543548,learnblock2,717.3999999761581,img/planet15_left.png,15,Community 3,NA,TRUE,f,f,NA,NA,NA,1,7,"13,1,9,8,6,3,10,12,7,2,15,4,14,11,5"
14269,commdev-image-keyboard-response,544,2544812,learnblock2,665.3999999761581,img/planet6_left.png,6,Community 1,NA,TRUE,f,f,NA,NA,NA,1,7,"13,1,9,8,6,3,10,12,7,2,15,4,14,11,5"
14269,commdev-image-keyboard-response,545,2546076,learnblock2,760.8000000119209,img/planet13_right.png,13,Community 1,NA,TRUE,j,j,NA,NA,NA,1,7,"13,1,9,8,6,3,10,12,7,2,15,4,14,11,5"
14269,commdev-image-keyboard-response,546,2547339,learnblock2,755.8000000119209,img/planet8_left.png,8,Community 1,NA,TRUE,f,f,NA,NA,NA,1,7,"13,1,9,8,6,3,10,12,7,2,15,4,14,11,5"
14269,commdev-image-keyboard-response,547,2548603,learnblock2,703.9000000357628,img/planet3_left.png,3,Community 2,NA,TRUE,f,f,NA,NA,NA,1,7,"13,1,9,8,6,3,10,12,7,2,15,4,14,11,5"
14269,commdev-image-keyboard-response,548,2549868,learnblock2,631.8000000119209,img/planet8_right.png,8,Community 1,NA,TRUE,j,j,NA,NA,NA,1,7,"13,1,9,8,6,3,10,12,7,2,15,4,14,11,5"
14269,commdev-image-keyboard-response,549,2551131,learnblock2,651.5999999642372,img/planet3_left.png,3,Community 2,NA,TRUE,f,f,NA,NA,NA,1,7,"13,1,9,8,6,3,10,12,7,2,15,4,14,11,5"
14269,commdev-image-keyboard-response,550,2552395,learnblock2,674.1999999880791,img/planet7_right.png,7,Community 2,NA,TRUE,j,j,NA,NA,NA,1,7,"13,1,9,8,6,3,10,12,7,2,15,4,14,11,5"
14269,commdev-image-keyboard-response,551,2553659,learnblock2,852.3000000119209,img/planet12_right.png,12,Community 2,NA,TRUE,j,j,NA,NA,NA,1,7,"13,1,9,8,6,3,10,12,7,2,15,4,14,11,5"
14269,commdev-image-keyboard-response,552,2554924,learnblock2,804.1999999880791,img/planet2_right.png,2,Community 2,NA,TRUE,j,j,NA,NA,NA,1,7,"13,1,9,8,6,3,10,12,7,2,15,4,14,11,5"
14269,commdev-image-keyboard-response,553,2556187,learnblock2,921.3000000119209,img/planet3_right.png,3,Community 2,NA,TRUE,j,j,NA,NA,NA,1,7,"13,1,9,8,6,3,10,12,7,2,15,4,14,11,5"
14269,commdev-image-keyboard-response,554,2557451,learnblock2,781.1999999880791,img/planet10_right.png,10,Community 2,NA,TRUE,j,j,NA,NA,NA,1,7,"13,1,9,8,6,3,10,12,7,2,15,4,14,11,5"
14269,commdev-image-keyboard-response,555,2558715,learnblock2,844.5,img/planet3_right.png,3,Community 2,NA,TRUE,j,j,NA,NA,NA,1,7,"13,1,9,8,6,3,10,12,7,2,15,4,14,11,5"
14269,commdev-image-keyboard-response,556,2559979,learnblock2,766.8000000119209,img/planet10_right.png,10,Community 2,NA,TRUE,j,j,NA,NA,NA,1,7,"13,1,9,8,6,3,10,12,7,2,15,4,14,11,5"
14269,commdev-image-keyboard-response,557,2561243,learnblock2,740.5,img/planet7_left.png,7,Community 2,NA,TRUE,f,f,NA,NA,NA,1,7,"13,1,9,8,6,3,10,12,7,2,15,4,14,11,5"
14269,commdev-image-keyboard-response,558,2562507,learnblock2,702.4000000357628,img/planet12_right.png,12,Community 2,NA,TRUE,j,j,NA,NA,NA,1,7,"13,1,9,8,6,3,10,12,7,2,15,4,14,11,5"
14269,commdev-image-keyboard-response,559,2563772,learnblock2,870,img/planet7_left.png,7,Community 2,NA,TRUE,f,f,NA,NA,NA,1,7,"13,1,9,8,6,3,10,12,7,2,15,4,14,11,5"
14269,commdev-image-keyboard-response,560,2565035,learnblock2,732.8000000119209,img/planet12_right.png,12,Community 2,NA,TRUE,j,j,NA,NA,NA,1,7,"13,1,9,8,6,3,10,12,7,2,15,4,14,11,5"
14269,commdev-image-keyboard-response,561,2566299,learnblock2,720.6000000238419,img/planet4_left.png,4,Community 3,NA,TRUE,f,f,NA,NA,NA,1,7,"13,1,9,8,6,3,10,12,7,2,15,4,14,11,5"
14269,commdev-image-keyboard-response,562,2567563,learnblock2,1209.2999999523163,img/planet12_left.png,12,Community 2,NA,TRUE,f,f,NA,NA,NA,1,7,"13,1,9,8,6,3,10,12,7,2,15,4,14,11,5"
14269,commdev-image-keyboard-response,563,2568827,learnblock2,696.4000000357628,img/planet10_left.png,10,Community 2,NA,TRUE,f,f,NA,NA,NA,1,7,"13,1,9,8,6,3,10,12,7,2,15,4,14,11,5"
14269,commdev-image-keyboard-response,564,2570091,learnblock2,669.4000000357628,img/planet12_left.png,12,Community 2,NA,TRUE,f,f,NA,NA,NA,1,7,"13,1,9,8,6,3,10,12,7,2,15,4,14,11,5"
14269,commdev-image-keyboard-response,565,2571355,learnblock2,524.5,img/planet4_right.png,4,Community 3,NA,TRUE,j,j,NA,NA,NA,1,7,"13,1,9,8,6,3,10,12,7,2,15,4,14,11,5"
14269,commdev-image-keyboard-response,566,2572619,learnblock2,781.5999999642372,img/planet11_left.png,11,Community 3,NA,TRUE,f,f,NA,NA,NA,1,7,"13,1,9,8,6,3,10,12,7,2,15,4,14,11,5"
14269,commdev-image-keyboard-response,567,2573884,learnblock2,767.1999999880791,img/planet5_left.png,5,Community 3,NA,TRUE,f,f,NA,NA,NA,1,7,"13,1,9,8,6,3,10,12,7,2,15,4,14,11,5"
14269,commdev-image-keyboard-response,568,2575148,learnblock2,789.5999999642372,img/planet14_left.png,14,Community 3,NA,TRUE,f,f,NA,NA,NA,1,7,"13,1,9,8,6,3,10,12,7,2,15,4,14,11,5"
14269,commdev-image-keyboard-response,569,2576411,learnblock2,658.5999999642372,img/planet15_right.png,15,Community 3,NA,TRUE,j,j,NA,NA,NA,1,7,"13,1,9,8,6,3,10,12,7,2,15,4,14,11,5"
14269,commdev-image-keyboard-response,570,2577675,learnblock2,555.2000000476837,img/planet5_right.png,5,Community 3,NA,TRUE,j,j,NA,NA,NA,1,7,"13,1,9,8,6,3,10,12,7,2,15,4,14,11,5"
14269,commdev-image-keyboard-response,571,2578939,learnblock2,583.0999999642372,img/planet15_left.png,15,Community 3,NA,TRUE,f,f,NA,NA,NA,1,7,"13,1,9,8,6,3,10,12,7,2,15,4,14,11,5"
14269,commdev-image-keyboard-response,572,2580203,learnblock2,627.6000000238419,img/planet5_right.png,5,Community 3,NA,TRUE,j,j,NA,NA,NA,1,7,"13,1,9,8,6,3,10,12,7,2,15,4,14,11,5"
14269,commdev-image-keyboard-response,573,2581466,learnblock2,630.8000000119209,img/planet15_left.png,15,Community 3,NA,TRUE,f,f,NA,NA,NA,1,7,"13,1,9,8,6,3,10,12,7,2,15,4,14,11,5"
14269,commdev-image-keyboard-response,574,2582731,learnblock2,639.4000000357628,img/planet6_left.png,6,Community 1,NA,TRUE,f,f,NA,NA,NA,1,7,"13,1,9,8,6,3,10,12,7,2,15,4,14,11,5"
14269,commdev-image-keyboard-response,575,2583996,learnblock2,628.5,img/planet9_left.png,9,Community 1,NA,TRUE,f,f,NA,NA,NA,1,7,"13,1,9,8,6,3,10,12,7,2,15,4,14,11,5"
14269,commdev-image-keyboard-response,576,2585259,learnblock2,546.3000000119209,img/planet13_right.png,13,Community 1,NA,TRUE,j,j,NA,NA,NA,1,7,"13,1,9,8,6,3,10,12,7,2,15,4,14,11,5"
14269,commdev-image-keyboard-response,577,2586524,learnblock2,561,img/planet9_left.png,9,Community 1,NA,TRUE,f,f,NA,NA,NA,1,7,"13,1,9,8,6,3,10,12,7,2,15,4,14,11,5"
14269,commdev-image-keyboard-response,578,2587787,learnblock2,598.7999999523163,img/planet6_left.png,6,Community 1,NA,TRUE,f,f,NA,NA,NA,1,7,"13,1,9,8,6,3,10,12,7,2,15,4,14,11,5"
14269,commdev-image-keyboard-response,579,2589052,learnblock2,691.3000000119209,img/planet1_left.png,1,Community 1,NA,TRUE,f,f,NA,NA,NA,1,7,"13,1,9,8,6,3,10,12,7,2,15,4,14,11,5"
14269,commdev-image-keyboard-response,580,2590316,learnblock2,695.8000000119209,img/planet9_left.png,9,Community 1,NA,TRUE,f,f,NA,NA,NA,1,7,"13,1,9,8,6,3,10,12,7,2,15,4,14,11,5"
14269,commdev-image-keyboard-response,581,2591580,learnblock2,718.1999999880791,img/planet13_right.png,13,Community 1,NA,TRUE,j,j,NA,NA,NA,1,7,"13,1,9,8,6,3,10,12,7,2,15,4,14,11,5"
14269,commdev-image-keyboard-response,582,2592844,learnblock2,555.8000000119209,img/planet9_right.png,9,Community 1,NA,TRUE,j,j,NA,NA,NA,1,7,"13,1,9,8,6,3,10,12,7,2,15,4,14,11,5"
14269,commdev-image-keyboard-response,583,2594107,learnblock2,571.8999999761581,img/planet6_left.png,6,Community 1,NA,TRUE,f,f,NA,NA,NA,1,7,"13,1,9,8,6,3,10,12,7,2,15,4,14,11,5"
14269,commdev-image-keyboard-response,584,2595372,learnblock2,848.8999999761581,img/planet13_left.png,13,Community 1,NA,TRUE,f,f,NA,NA,NA,1,7,"13,1,9,8,6,3,10,12,7,2,15,4,14,11,5"
