subject_id,trial_type,trial_index,time_elapsed,block,rt,stimulus,planet,community,response,correct,key_press,learning_correct_response,parse,init_locations,final_locations,browser_interactions,num_comp,planet_map
14651,commdev-instructions,7,42307,NA,1348.5,"<p>In this game, you will be shown a 3x3 grid of patterns.</p> <p>The last one in the bottom right-hand corner, <strong>will be missing:</strong></p> <div style='width: 700px;'><div style='float: top;'><img style='width: 200px;' src='practice/p1_M1.png'></img><p class='small'>You need to select<strong> which of the four possible patterns </strong>along the bottom<strong> fits into the gap:</strong></p></div><div style='float: top;'><img style='width: 300px;' src='practice/p1_T1.png'></img></div><br>",NA,NA,NA,NA,NA,NA,NA,NA,NA,4,7,"12,6,3,13,2,11,15,8,14,7,5,1,4,9,10"
14651,commdev-instructions,8,62155,NA,1798.300000011921,"<p>Try to be as fast and as accurate as you can be.</p> <p>If you cannot solve the puzzle then you should guess - you will not be penalised for an incorrect answer.</p> <p>The task contains a shuffled mix of easy, medium and hard puzzles.</p> <p>You will have <strong>30 seconds</strong> to complete each puzzle.</p><br>",NA,NA,NA,NA,NA,NA,NA,NA,NA,4,7,"12,6,3,13,2,11,15,8,14,7,5,1,4,9,10"
14651,commdev-instructions,15,90639,NA,3381.800000011921,<p><strong>Success!</strong></p> <p>You seem to be getting the hang of this...</p> <p>Let's move on to the real trials.</p><br>,NA,NA,NA,NA,NA,NA,NA,NA,NA,4,7,"12,6,3,13,2,11,15,8,14,7,5,1,4,9,10"
14651,commdev-instructions,178,380517,NA,29016.599999964237,"<p>In this game, you are a scientist on board a space shuttle. </p><p> On each mission, you will visit planets all across the universe.</p><img src=""img/controlroom.jpg"" width=300vw>",NA,NA,NA,NA,NA,NA,NA,NA,NA,4,7,"12,6,3,13,2,11,15,8,14,7,5,1,4,9,10"
14651,commdev-instructions,179,414216,NA,31625,"<p>Here are a few planets you might see:</p><img src=""img/practice1.png"" width=200vw><img src=""img/practice2.png"" width=200vw><img src=""img/practice3.png"" width=200vw>",NA,NA,NA,NA,NA,NA,NA,NA,NA,4,7,"12,6,3,13,2,11,15,8,14,7,5,1,4,9,10"
14651,commdev-instructions,180,422833,NA,1193,"<p>Your job as a scientist is to record which direction the winds are moving on each planet.</p><p>There are two types of wind directions:</p><img src=""img/practice1_left.png"" width=200vw><img src=""img/practice1_right.png"" width=200vw>",NA,NA,NA,NA,NA,NA,NA,NA,NA,4,7,"12,6,3,13,2,11,15,8,14,7,5,1,4,9,10"
14651,commdev-instructions,181,429065,NA,1354.199999988079,"<p>If the winds are moving this way, press the letter <strong>F</strong> on the keyboard as fast as you can.</p><img src=""img/leftwind.png"" width=250vw>",NA,NA,NA,NA,NA,NA,NA,NA,NA,4,7,"12,6,3,13,2,11,15,8,14,7,5,1,4,9,10"
14651,commdev-instructions,182,437265,NA,3703,"<p>If the winds are moving this way, press the letter <strong>J</strong> on the keyboard as fast as you can.</p><img src=""img/rightwind.png"" width=350vw>",NA,NA,NA,NA,NA,NA,NA,NA,NA,4,7,"12,6,3,13,2,11,15,8,14,7,5,1,4,9,10"
14651,commdev-instructions,183,443565,NA,1875.8999999761581,<p>You will have 1 second to respond. Try to respond before the time runs out!,NA,NA,NA,NA,NA,NA,NA,NA,NA,4,7,"12,6,3,13,2,11,15,8,14,7,5,1,4,9,10"
14651,commdev-instructions,184,450015,NA,1023.8000000119209,<p>The planets you will visit will look different from each other.</p><p>You should respond <strong>only</strong> based on wind direction.,NA,NA,NA,NA,NA,NA,NA,NA,NA,4,7,"12,6,3,13,2,11,15,8,14,7,5,1,4,9,10"
14651,commdev-instructions,185,456665,NA,1479.800000011921,"<p> Ready to start the practice round? </p><p> Remember, press <strong>F</strong> or <strong>J</strong> depending on the wind direction.<br><img src=""img/categorize_planet_example.png""",NA,NA,NA,NA,NA,NA,NA,NA,NA,4,7,"12,6,3,13,2,11,15,8,14,7,5,1,4,9,10"
14651,commdev-instructions,197,521697,NA,2843.100000023842,"<p>Great, now try a short practice mission. </p><p> This time, you will have 1 second to respond and you won't know whether you pressed the right or wrong key for each planet.</p>",NA,NA,NA,NA,NA,NA,NA,NA,NA,4,7,"12,6,3,13,2,11,15,8,14,7,5,1,4,9,10"
14651,commdev-image-keyboard-response,198,523052,practice,null,img/practice2_right.png,NA,Number not found in mappings,NA,FALSE,null,j,NA,NA,NA,4,7,"12,6,3,13,2,11,15,8,14,7,5,1,4,9,10"
14651,commdev-image-keyboard-response,199,524304,practice,1078.6000000238419,img/practice4_right.png,NA,Number not found in mappings,NA,TRUE,j,j,NA,NA,NA,4,7,"12,6,3,13,2,11,15,8,14,7,5,1,4,9,10"
14651,commdev-image-keyboard-response,200,525557,practice,1212.300000011921,img/practice3_right.png,NA,Number not found in mappings,NA,TRUE,j,j,NA,NA,NA,4,7,"12,6,3,13,2,11,15,8,14,7,5,1,4,9,10"
14651,commdev-image-keyboard-response,201,526809,practice,972.1000000238419,img/practice4_left.png,NA,Number not found in mappings,NA,TRUE,f,f,NA,NA,NA,4,7,"12,6,3,13,2,11,15,8,14,7,5,1,4,9,10"
14651,commdev-image-keyboard-response,202,528062,practice,null,img/practice2_left.png,NA,Number not found in mappings,NA,FALSE,null,f,NA,NA,NA,4,7,"12,6,3,13,2,11,15,8,14,7,5,1,4,9,10"
14651,commdev-image-keyboard-response,203,529314,practice,486,img/practice4_right.png,NA,Number not found in mappings,NA,FALSE,f,j,NA,NA,NA,4,7,"12,6,3,13,2,11,15,8,14,7,5,1,4,9,10"
14651,commdev-image-keyboard-response,204,530567,practice,1043.5,img/practice3_right.png,NA,Number not found in mappings,NA,TRUE,j,j,NA,NA,NA,4,7,"12,6,3,13,2,11,15,8,14,7,5,1,4,9,10"
14651,commdev-image-keyboard-response,205,531819,practice,675,img/practice1_left.png,NA,Number not found in mappings,NA,TRUE,f,f,NA,NA,NA,4,7,"12,6,3,13,2,11,15,8,14,7,5,1,4,9,10"
14651,commdev-instructions,206,542930,NA,1558.5999999642372,"<p>Great job with the practice round.</p><p>During real missions, you won't know whether you pressed the right or wrong key for each planet.</p><p>But between missions, we will tell you how you did overall.</p>",NA,NA,NA,NA,NA,NA,NA,NA,NA,4,7,"12,6,3,13,2,11,15,8,14,7,5,1,4,9,10"
14651,commdev-instructions,207,554263,NA,3093.2000000476837,<p>Try your best! You will be paid a bonus based on how many correct responses you make!</p><p>Responses that are too slow will not count toward your bonus.</p>,NA,NA,NA,NA,NA,NA,NA,NA,NA,4,7,"12,6,3,13,2,11,15,8,14,7,5,1,4,9,10"
14651,commdev-instructions,208,561696,NA,1232.699999988079,"<p>You are almost ready to start the real game.</p><p> First, we are going to ask you some questions about how the game works.</p>",NA,NA,NA,NA,NA,NA,NA,NA,NA,4,7,"12,6,3,13,2,11,15,8,14,7,5,1,4,9,10"
14651,commdev-instructions,219,656961,NA,6017.199999988079,"<p> Nice work! It is now time to start the real game.<p></p>You will go on two missions to record wind directions of different planets.<p></p>Each one will take about 5 minutes. You will get to take a break between missions.<p><p> Remember, press <strong>F</strong> or <strong>J</strong> depending on the wind direction. Good luck!<br><img src=""img/categorize_planet_example.png""",NA,NA,NA,NA,NA,NA,NA,NA,NA,4,7,"12,6,3,13,2,11,15,8,14,7,5,1,4,9,10"
14651,commdev-image-keyboard-response,221,661485,learnblock1,null,img/planet11_right.png,11,Community 2,NA,FALSE,null,j,NA,NA,NA,4,7,"12,6,3,13,2,11,15,8,14,7,5,1,4,9,10"
14651,commdev-image-keyboard-response,222,662738,learnblock1,299,img/planet7_left.png,7,Community 2,NA,FALSE,j,f,NA,NA,NA,4,7,"12,6,3,13,2,11,15,8,14,7,5,1,4,9,10"
14651,commdev-image-keyboard-response,223,663990,learnblock1,null,img/planet15_left.png,15,Community 2,NA,FALSE,null,f,NA,NA,NA,4,7,"12,6,3,13,2,11,15,8,14,7,5,1,4,9,10"
14651,commdev-image-keyboard-response,224,665241,learnblock1,153.70000004768372,img/planet7_left.png,7,Community 2,NA,TRUE,f,f,NA,NA,NA,4,7,"12,6,3,13,2,11,15,8,14,7,5,1,4,9,10"
14651,commdev-image-keyboard-response,225,666493,learnblock1,851.5,img/planet11_left.png,11,Community 2,NA,TRUE,f,f,NA,NA,NA,4,7,"12,6,3,13,2,11,15,8,14,7,5,1,4,9,10"
14651,commdev-image-keyboard-response,226,667745,learnblock1,915.0999999642372,img/planet15_right.png,15,Community 2,NA,TRUE,j,j,NA,NA,NA,4,7,"12,6,3,13,2,11,15,8,14,7,5,1,4,9,10"
14651,commdev-image-keyboard-response,227,668997,learnblock1,781.2000000476837,img/planet7_left.png,7,Community 2,NA,TRUE,f,f,NA,NA,NA,4,7,"12,6,3,13,2,11,15,8,14,7,5,1,4,9,10"
14651,commdev-image-keyboard-response,228,670250,learnblock1,812,img/planet11_left.png,11,Community 2,NA,TRUE,f,f,NA,NA,NA,4,7,"12,6,3,13,2,11,15,8,14,7,5,1,4,9,10"
14651,commdev-image-keyboard-response,229,671503,learnblock1,852,img/planet7_left.png,7,Community 2,NA,TRUE,f,f,NA,NA,NA,4,7,"12,6,3,13,2,11,15,8,14,7,5,1,4,9,10"
14651,commdev-image-keyboard-response,230,672755,learnblock1,894.6999999880791,img/planet15_right.png,15,Community 2,NA,TRUE,j,j,NA,NA,NA,4,7,"12,6,3,13,2,11,15,8,14,7,5,1,4,9,10"
14651,commdev-image-keyboard-response,231,674008,learnblock1,962.1000000238419,img/planet8_right.png,8,Community 2,NA,TRUE,j,j,NA,NA,NA,4,7,"12,6,3,13,2,11,15,8,14,7,5,1,4,9,10"
14651,commdev-image-keyboard-response,232,675259,learnblock1,1200,img/planet14_right.png,14,Community 2,NA,TRUE,j,j,NA,NA,NA,4,7,"12,6,3,13,2,11,15,8,14,7,5,1,4,9,10"
14651,commdev-image-keyboard-response,233,676512,learnblock1,null,img/planet11_right.png,11,Community 2,NA,FALSE,null,j,NA,NA,NA,4,7,"12,6,3,13,2,11,15,8,14,7,5,1,4,9,10"
14651,commdev-image-keyboard-response,234,677765,learnblock1,24.69999998807907,img/planet14_right.png,14,Community 2,NA,TRUE,j,j,NA,NA,NA,4,7,"12,6,3,13,2,11,15,8,14,7,5,1,4,9,10"
14651,commdev-image-keyboard-response,235,679017,learnblock1,1157.0999999642372,img/planet7_right.png,7,Community 2,NA,TRUE,j,j,NA,NA,NA,4,7,"12,6,3,13,2,11,15,8,14,7,5,1,4,9,10"
14651,commdev-image-keyboard-response,236,680269,learnblock1,874.2000000476837,img/planet8_left.png,8,Community 2,NA,TRUE,f,f,NA,NA,NA,4,7,"12,6,3,13,2,11,15,8,14,7,5,1,4,9,10"
14651,commdev-image-keyboard-response,237,681521,learnblock1,1019.2999999523163,img/planet15_right.png,15,Community 2,NA,TRUE,j,j,NA,NA,NA,4,7,"12,6,3,13,2,11,15,8,14,7,5,1,4,9,10"
14651,commdev-image-keyboard-response,238,682774,learnblock1,1052.0999999642372,img/planet14_left.png,14,Community 2,NA,TRUE,f,f,NA,NA,NA,4,7,"12,6,3,13,2,11,15,8,14,7,5,1,4,9,10"
14651,commdev-image-keyboard-response,239,684026,learnblock1,929.6000000238419,img/planet15_left.png,15,Community 2,NA,TRUE,f,f,NA,NA,NA,4,7,"12,6,3,13,2,11,15,8,14,7,5,1,4,9,10"
14651,commdev-image-keyboard-response,240,685278,learnblock1,null,img/planet14_right.png,14,Community 2,NA,FALSE,null,j,NA,NA,NA,4,7,"12,6,3,13,2,11,15,8,14,7,5,1,4,9,10"
14651,commdev-image-keyboard-response,241,686530,learnblock1,483.30000001192093,img/planet8_right.png,8,Community 2,NA,FALSE,f,j,NA,NA,NA,4,7,"12,6,3,13,2,11,15,8,14,7,5,1,4,9,10"
14651,commdev-image-keyboard-response,242,687782,learnblock1,null,img/planet14_left.png,14,Community 2,NA,FALSE,null,f,NA,NA,NA,4,7,"12,6,3,13,2,11,15,8,14,7,5,1,4,9,10"
14651,commdev-image-keyboard-response,243,689034,learnblock1,37.40000003576279,img/planet15_left.png,15,Community 2,NA,TRUE,f,f,NA,NA,NA,4,7,"12,6,3,13,2,11,15,8,14,7,5,1,4,9,10"
14651,commdev-image-keyboard-response,244,690287,learnblock1,694.3000000119209,img/planet7_left.png,7,Community 2,NA,TRUE,f,f,NA,NA,NA,4,7,"12,6,3,13,2,11,15,8,14,7,5,1,4,9,10"
14651,commdev-image-keyboard-response,245,691539,learnblock1,716.3999999761581,img/planet15_left.png,15,Community 2,NA,TRUE,f,f,NA,NA,NA,4,7,"12,6,3,13,2,11,15,8,14,7,5,1,4,9,10"
14651,commdev-image-keyboard-response,246,692792,learnblock1,null,img/planet7_right.png,7,Community 2,NA,FALSE,null,j,NA,NA,NA,4,7,"12,6,3,13,2,11,15,8,14,7,5,1,4,9,10"
14651,commdev-image-keyboard-response,247,694044,learnblock1,207.4000000357628,img/planet11_right.png,11,Community 2,NA,TRUE,j,j,NA,NA,NA,4,7,"12,6,3,13,2,11,15,8,14,7,5,1,4,9,10"
14651,commdev-image-keyboard-response,248,695295,learnblock1,655.8999999761581,img/planet14_left.png,14,Community 2,NA,FALSE,j,f,NA,NA,NA,4,7,"12,6,3,13,2,11,15,8,14,7,5,1,4,9,10"
14651,commdev-image-keyboard-response,249,696548,learnblock1,565.1000000238419,img/planet7_left.png,7,Community 2,NA,TRUE,f,f,NA,NA,NA,4,7,"12,6,3,13,2,11,15,8,14,7,5,1,4,9,10"
14651,commdev-image-keyboard-response,250,697800,learnblock1,475,img/planet8_right.png,8,Community 2,NA,FALSE,f,j,NA,NA,NA,4,7,"12,6,3,13,2,11,15,8,14,7,5,1,4,9,10"
14651,commdev-image-keyboard-response,251,699053,learnblock1,513.8999999761581,img/planet15_left.png,15,Community 2,NA,FALSE,j,f,NA,NA,NA,4,7,"12,6,3,13,2,11,15,8,14,7,5,1,4,9,10"
14651,commdev-image-keyboard-response,252,700305,learnblock1,281.5,img/planet11_left.png,11,Community 2,NA,TRUE,f,f,NA,NA,NA,4,7,"12,6,3,13,2,11,15,8,14,7,5,1,4,9,10"
14651,commdev-image-keyboard-response,253,701557,learnblock1,330.5,img/planet15_right.png,15,Community 2,NA,FALSE,f,j,NA,NA,NA,4,7,"12,6,3,13,2,11,15,8,14,7,5,1,4,9,10"
14651,commdev-image-keyboard-response,254,702810,learnblock1,856.2000000476837,img/planet7_left.png,7,Community 2,NA,TRUE,f,f,NA,NA,NA,4,7,"12,6,3,13,2,11,15,8,14,7,5,1,4,9,10"
14651,commdev-image-keyboard-response,255,704062,learnblock1,1141.5,img/planet14_left.png,14,Community 2,NA,TRUE,f,f,NA,NA,NA,4,7,"12,6,3,13,2,11,15,8,14,7,5,1,4,9,10"
14651,commdev-image-keyboard-response,256,705314,learnblock1,916.6000000238419,img/planet8_right.png,8,Community 2,NA,TRUE,j,j,NA,NA,NA,4,7,"12,6,3,13,2,11,15,8,14,7,5,1,4,9,10"
14651,commdev-image-keyboard-response,257,706566,learnblock1,948.8999999761581,img/planet14_right.png,14,Community 2,NA,TRUE,j,j,NA,NA,NA,4,7,"12,6,3,13,2,11,15,8,14,7,5,1,4,9,10"
14651,commdev-image-keyboard-response,258,707818,learnblock1,1092.6000000238419,img/planet8_left.png,8,Community 2,NA,TRUE,f,f,NA,NA,NA,4,7,"12,6,3,13,2,11,15,8,14,7,5,1,4,9,10"
14651,commdev-image-keyboard-response,259,709071,learnblock1,null,img/planet1_right.png,1,Community 3,NA,FALSE,null,j,NA,NA,NA,4,7,"12,6,3,13,2,11,15,8,14,7,5,1,4,9,10"
14651,commdev-image-keyboard-response,260,710323,learnblock1,8.900000035762787,img/planet10_left.png,10,Community 3,NA,FALSE,j,f,NA,NA,NA,4,7,"12,6,3,13,2,11,15,8,14,7,5,1,4,9,10"
14651,commdev-image-keyboard-response,261,711576,learnblock1,1002.3999999761581,img/planet5_right.png,5,Community 3,NA,TRUE,j,j,NA,NA,NA,4,7,"12,6,3,13,2,11,15,8,14,7,5,1,4,9,10"
14651,commdev-image-keyboard-response,262,712828,learnblock1,1054.800000011921,img/planet2_right.png,2,Community 1,NA,TRUE,j,j,NA,NA,NA,4,7,"12,6,3,13,2,11,15,8,14,7,5,1,4,9,10"
14651,commdev-image-keyboard-response,263,714080,learnblock1,1044.8999999761581,img/planet3_left.png,3,Community 1,NA,TRUE,f,f,NA,NA,NA,4,7,"12,6,3,13,2,11,15,8,14,7,5,1,4,9,10"
14651,commdev-image-keyboard-response,264,715332,learnblock1,1031.7999999523163,img/planet13_left.png,13,Community 1,NA,TRUE,f,f,NA,NA,NA,4,7,"12,6,3,13,2,11,15,8,14,7,5,1,4,9,10"
14651,commdev-image-keyboard-response,265,716584,learnblock1,1100,img/planet12_right.png,12,Community 1,NA,TRUE,j,j,NA,NA,NA,4,7,"12,6,3,13,2,11,15,8,14,7,5,1,4,9,10"
14651,commdev-image-keyboard-response,266,717836,learnblock1,1197.699999988079,img/planet6_left.png,6,Community 1,NA,TRUE,f,f,NA,NA,NA,4,7,"12,6,3,13,2,11,15,8,14,7,5,1,4,9,10"
14651,commdev-image-keyboard-response,267,719088,learnblock1,924.5,img/planet2_right.png,2,Community 1,NA,TRUE,j,j,NA,NA,NA,4,7,"12,6,3,13,2,11,15,8,14,7,5,1,4,9,10"
14651,commdev-image-keyboard-response,268,720341,learnblock1,944.9000000357628,img/planet6_right.png,6,Community 1,NA,TRUE,j,j,NA,NA,NA,4,7,"12,6,3,13,2,11,15,8,14,7,5,1,4,9,10"
14651,commdev-image-keyboard-response,269,721594,learnblock1,1212.699999988079,img/planet3_left.png,3,Community 1,NA,TRUE,f,f,NA,NA,NA,4,7,"12,6,3,13,2,11,15,8,14,7,5,1,4,9,10"
14651,commdev-image-keyboard-response,270,722847,learnblock1,836.6000000238419,img/planet13_right.png,13,Community 1,NA,TRUE,j,j,NA,NA,NA,4,7,"12,6,3,13,2,11,15,8,14,7,5,1,4,9,10"
14651,commdev-image-keyboard-response,271,724099,learnblock1,1166.5999999642372,img/planet12_left.png,12,Community 1,NA,TRUE,f,f,NA,NA,NA,4,7,"12,6,3,13,2,11,15,8,14,7,5,1,4,9,10"
14651,commdev-image-keyboard-response,272,725352,learnblock1,961.5,img/planet3_right.png,3,Community 1,NA,TRUE,j,j,NA,NA,NA,4,7,"12,6,3,13,2,11,15,8,14,7,5,1,4,9,10"
14651,commdev-image-keyboard-response,273,726604,learnblock1,862.6000000238419,img/planet13_right.png,13,Community 1,NA,TRUE,j,j,NA,NA,NA,4,7,"12,6,3,13,2,11,15,8,14,7,5,1,4,9,10"
14651,commdev-image-keyboard-response,274,727856,learnblock1,865.6999999880791,img/planet3_right.png,3,Community 1,NA,TRUE,j,j,NA,NA,NA,4,7,"12,6,3,13,2,11,15,8,14,7,5,1,4,9,10"
14651,commdev-image-keyboard-response,275,729108,learnblock1,937.0999999642372,img/planet12_right.png,12,Community 1,NA,TRUE,j,j,NA,NA,NA,4,7,"12,6,3,13,2,11,15,8,14,7,5,1,4,9,10"
14651,commdev-image-keyboard-response,276,730361,learnblock1,1024.300000011921,img/planet6_left.png,6,Community 1,NA,TRUE,f,f,NA,NA,NA,4,7,"12,6,3,13,2,11,15,8,14,7,5,1,4,9,10"
14651,commdev-image-keyboard-response,277,731614,learnblock1,null,img/planet13_right.png,13,Community 1,NA,FALSE,null,j,NA,NA,NA,4,7,"12,6,3,13,2,11,15,8,14,7,5,1,4,9,10"
14651,commdev-image-keyboard-response,278,732866,learnblock1,37.40000003576279,img/planet6_left.png,6,Community 1,NA,TRUE,f,f,NA,NA,NA,4,7,"12,6,3,13,2,11,15,8,14,7,5,1,4,9,10"
14651,commdev-image-keyboard-response,279,734118,learnblock1,1081.3999999761581,img/planet12_right.png,12,Community 1,NA,FALSE,f,j,NA,NA,NA,4,7,"12,6,3,13,2,11,15,8,14,7,5,1,4,9,10"
14651,commdev-image-keyboard-response,280,735371,learnblock1,602.8000000119209,img/planet13_right.png,13,Community 1,NA,TRUE,j,j,NA,NA,NA,4,7,"12,6,3,13,2,11,15,8,14,7,5,1,4,9,10"
14651,commdev-image-keyboard-response,281,736623,learnblock1,710.2000000476837,img/planet11_right.png,11,Community 2,NA,TRUE,j,j,NA,NA,NA,4,7,"12,6,3,13,2,11,15,8,14,7,5,1,4,9,10"
14651,commdev-image-keyboard-response,282,737875,learnblock1,1045.1000000238419,img/planet14_left.png,14,Community 2,NA,TRUE,f,f,NA,NA,NA,4,7,"12,6,3,13,2,11,15,8,14,7,5,1,4,9,10"
14651,commdev-image-keyboard-response,283,739128,learnblock1,1083,img/planet15_right.png,15,Community 2,NA,TRUE,j,j,NA,NA,NA,4,7,"12,6,3,13,2,11,15,8,14,7,5,1,4,9,10"
14651,commdev-image-keyboard-response,284,740380,learnblock1,1220.6000000238419,img/planet7_left.png,7,Community 2,NA,TRUE,f,f,NA,NA,NA,4,7,"12,6,3,13,2,11,15,8,14,7,5,1,4,9,10"
14651,commdev-image-keyboard-response,285,741632,learnblock1,1106.2999999523163,img/planet8_right.png,8,Community 2,NA,TRUE,j,j,NA,NA,NA,4,7,"12,6,3,13,2,11,15,8,14,7,5,1,4,9,10"
14651,commdev-image-keyboard-response,286,742885,learnblock1,789.5,img/planet1_right.png,1,Community 3,NA,TRUE,j,j,NA,NA,NA,4,7,"12,6,3,13,2,11,15,8,14,7,5,1,4,9,10"
14651,commdev-image-keyboard-response,287,744137,learnblock1,726.8999999761581,img/planet4_right.png,4,Community 3,NA,TRUE,j,j,NA,NA,NA,4,7,"12,6,3,13,2,11,15,8,14,7,5,1,4,9,10"
14651,commdev-image-keyboard-response,288,745390,learnblock1,722,img/planet9_right.png,9,Community 3,NA,TRUE,j,j,NA,NA,NA,4,7,"12,6,3,13,2,11,15,8,14,7,5,1,4,9,10"
14651,commdev-image-keyboard-response,289,746642,learnblock1,791.3999999761581,img/planet4_right.png,4,Community 3,NA,TRUE,j,j,NA,NA,NA,4,7,"12,6,3,13,2,11,15,8,14,7,5,1,4,9,10"
14651,commdev-image-keyboard-response,290,747895,learnblock1,616.1999999880791,img/planet9_right.png,9,Community 3,NA,TRUE,j,j,NA,NA,NA,4,7,"12,6,3,13,2,11,15,8,14,7,5,1,4,9,10"
14651,commdev-image-keyboard-response,291,749147,learnblock1,443.80000001192093,img/planet10_left.png,10,Community 3,NA,FALSE,j,f,NA,NA,NA,4,7,"12,6,3,13,2,11,15,8,14,7,5,1,4,9,10"
14651,commdev-image-keyboard-response,292,750399,learnblock1,null,img/planet1_right.png,1,Community 3,NA,FALSE,null,j,NA,NA,NA,4,7,"12,6,3,13,2,11,15,8,14,7,5,1,4,9,10"
14651,commdev-image-keyboard-response,293,751651,learnblock1,1079.5,img/planet8_right.png,8,Community 2,NA,TRUE,j,j,NA,NA,NA,4,7,"12,6,3,13,2,11,15,8,14,7,5,1,4,9,10"
14651,commdev-image-keyboard-response,294,752903,learnblock1,1013.2000000476837,img/planet15_left.png,15,Community 2,NA,TRUE,f,f,NA,NA,NA,4,7,"12,6,3,13,2,11,15,8,14,7,5,1,4,9,10"
14651,commdev-image-keyboard-response,295,754154,learnblock1,974,img/planet7_right.png,7,Community 2,NA,TRUE,j,j,NA,NA,NA,4,7,"12,6,3,13,2,11,15,8,14,7,5,1,4,9,10"
14651,commdev-image-keyboard-response,296,755406,learnblock1,911.3999999761581,img/planet15_left.png,15,Community 2,NA,TRUE,f,f,NA,NA,NA,4,7,"12,6,3,13,2,11,15,8,14,7,5,1,4,9,10"
14651,commdev-image-keyboard-response,297,756659,learnblock1,1168.1000000238419,img/planet7_right.png,7,Community 2,NA,TRUE,j,j,NA,NA,NA,4,7,"12,6,3,13,2,11,15,8,14,7,5,1,4,9,10"
14651,commdev-image-keyboard-response,298,757911,learnblock1,null,img/planet15_right.png,15,Community 2,NA,FALSE,null,j,NA,NA,NA,4,7,"12,6,3,13,2,11,15,8,14,7,5,1,4,9,10"
14651,commdev-image-keyboard-response,299,759162,learnblock1,909.2000000476837,img/planet14_left.png,14,Community 2,NA,TRUE,f,f,NA,NA,NA,4,7,"12,6,3,13,2,11,15,8,14,7,5,1,4,9,10"
14651,commdev-image-keyboard-response,300,760415,learnblock1,1128.300000011921,img/planet11_right.png,11,Community 2,NA,TRUE,j,j,NA,NA,NA,4,7,"12,6,3,13,2,11,15,8,14,7,5,1,4,9,10"
14651,commdev-image-keyboard-response,301,761666,learnblock1,807.0999999642372,img/planet14_left.png,14,Community 2,NA,FALSE,j,f,NA,NA,NA,4,7,"12,6,3,13,2,11,15,8,14,7,5,1,4,9,10"
14651,commdev-image-keyboard-response,302,762918,learnblock1,668.1999999880791,img/planet11_right.png,11,Community 2,NA,TRUE,j,j,NA,NA,NA,4,7,"12,6,3,13,2,11,15,8,14,7,5,1,4,9,10"
14651,commdev-image-keyboard-response,303,764171,learnblock1,1194.1000000238419,img/planet15_left.png,15,Community 2,NA,TRUE,f,f,NA,NA,NA,4,7,"12,6,3,13,2,11,15,8,14,7,5,1,4,9,10"
14651,commdev-image-keyboard-response,304,765423,learnblock1,949.3000000119209,img/planet11_left.png,11,Community 2,NA,TRUE,f,f,NA,NA,NA,4,7,"12,6,3,13,2,11,15,8,14,7,5,1,4,9,10"
14651,commdev-image-keyboard-response,305,766675,learnblock1,713.5,img/planet14_left.png,14,Community 2,NA,TRUE,f,f,NA,NA,NA,4,7,"12,6,3,13,2,11,15,8,14,7,5,1,4,9,10"
14651,commdev-image-keyboard-response,306,767927,learnblock1,1041.9000000357628,img/planet8_right.png,8,Community 2,NA,TRUE,j,j,NA,NA,NA,4,7,"12,6,3,13,2,11,15,8,14,7,5,1,4,9,10"
14651,commdev-image-keyboard-response,307,769179,learnblock1,976.9000000357628,img/planet14_right.png,14,Community 2,NA,TRUE,j,j,NA,NA,NA,4,7,"12,6,3,13,2,11,15,8,14,7,5,1,4,9,10"
14651,commdev-image-keyboard-response,308,770430,learnblock1,1077.300000011921,img/planet7_left.png,7,Community 2,NA,TRUE,f,f,NA,NA,NA,4,7,"12,6,3,13,2,11,15,8,14,7,5,1,4,9,10"
14651,commdev-image-keyboard-response,309,771683,learnblock1,1232.6000000238419,img/planet8_right.png,8,Community 2,NA,TRUE,j,j,NA,NA,NA,4,7,"12,6,3,13,2,11,15,8,14,7,5,1,4,9,10"
14651,commdev-image-keyboard-response,310,772935,learnblock1,null,img/planet14_right.png,14,Community 2,NA,FALSE,null,j,NA,NA,NA,4,7,"12,6,3,13,2,11,15,8,14,7,5,1,4,9,10"
14651,commdev-image-keyboard-response,311,774187,learnblock1,187.30000001192093,img/planet8_left.png,8,Community 2,NA,TRUE,f,f,NA,NA,NA,4,7,"12,6,3,13,2,11,15,8,14,7,5,1,4,9,10"
14651,commdev-image-keyboard-response,312,775439,learnblock1,218.10000002384186,img/planet7_right.png,7,Community 2,NA,FALSE,f,j,NA,NA,NA,4,7,"12,6,3,13,2,11,15,8,14,7,5,1,4,9,10"
14651,commdev-image-keyboard-response,313,776692,learnblock1,801,img/planet11_right.png,11,Community 2,NA,TRUE,j,j,NA,NA,NA,4,7,"12,6,3,13,2,11,15,8,14,7,5,1,4,9,10"
14651,commdev-image-keyboard-response,314,777944,learnblock1,null,img/planet14_right.png,14,Community 2,NA,FALSE,null,j,NA,NA,NA,4,7,"12,6,3,13,2,11,15,8,14,7,5,1,4,9,10"
14651,commdev-image-keyboard-response,315,779197,learnblock1,33.299999952316284,img/planet8_right.png,8,Community 2,NA,TRUE,j,j,NA,NA,NA,4,7,"12,6,3,13,2,11,15,8,14,7,5,1,4,9,10"
14651,commdev-image-keyboard-response,316,780449,learnblock1,981.8999999761581,img/planet15_right.png,15,Community 2,NA,TRUE,j,j,NA,NA,NA,4,7,"12,6,3,13,2,11,15,8,14,7,5,1,4,9,10"
14651,commdev-image-keyboard-response,317,781701,learnblock1,1046.699999988079,img/planet14_left.png,14,Community 2,NA,TRUE,f,f,NA,NA,NA,4,7,"12,6,3,13,2,11,15,8,14,7,5,1,4,9,10"
14651,commdev-image-keyboard-response,318,782954,learnblock1,null,img/planet8_right.png,8,Community 2,NA,FALSE,null,j,NA,NA,NA,4,7,"12,6,3,13,2,11,15,8,14,7,5,1,4,9,10"
14651,commdev-image-keyboard-response,319,784206,learnblock1,null,img/planet14_left.png,14,Community 2,NA,FALSE,null,f,NA,NA,NA,4,7,"12,6,3,13,2,11,15,8,14,7,5,1,4,9,10"
14651,commdev-image-keyboard-response,320,785459,learnblock1,33.40000003576279,img/planet8_left.png,8,Community 2,NA,TRUE,f,f,NA,NA,NA,4,7,"12,6,3,13,2,11,15,8,14,7,5,1,4,9,10"
14651,commdev-image-keyboard-response,321,786711,learnblock1,751,img/planet15_right.png,15,Community 2,NA,FALSE,f,j,NA,NA,NA,4,7,"12,6,3,13,2,11,15,8,14,7,5,1,4,9,10"
14651,commdev-image-keyboard-response,322,787963,learnblock1,973.1000000238419,img/planet8_right.png,8,Community 2,NA,TRUE,j,j,NA,NA,NA,4,7,"12,6,3,13,2,11,15,8,14,7,5,1,4,9,10"
14651,commdev-image-keyboard-response,323,789215,learnblock1,778.3000000119209,img/planet1_left.png,1,Community 3,NA,TRUE,f,f,NA,NA,NA,4,7,"12,6,3,13,2,11,15,8,14,7,5,1,4,9,10"
14651,commdev-image-keyboard-response,324,790468,learnblock1,1142.6000000238419,img/planet9_right.png,9,Community 3,NA,TRUE,j,j,NA,NA,NA,4,7,"12,6,3,13,2,11,15,8,14,7,5,1,4,9,10"
14651,commdev-image-keyboard-response,325,791719,learnblock1,892.2999999523163,img/planet10_left.png,10,Community 3,NA,TRUE,f,f,NA,NA,NA,4,7,"12,6,3,13,2,11,15,8,14,7,5,1,4,9,10"
14651,commdev-image-keyboard-response,326,792972,learnblock1,1152.6000000238419,img/planet4_right.png,4,Community 3,NA,TRUE,j,j,NA,NA,NA,4,7,"12,6,3,13,2,11,15,8,14,7,5,1,4,9,10"
14651,commdev-image-keyboard-response,327,794224,learnblock1,1076.199999988079,img/planet9_right.png,9,Community 3,NA,FALSE,f,j,NA,NA,NA,4,7,"12,6,3,13,2,11,15,8,14,7,5,1,4,9,10"
14651,commdev-image-keyboard-response,328,795477,learnblock1,775.1999999880791,img/planet1_right.png,1,Community 3,NA,TRUE,j,j,NA,NA,NA,4,7,"12,6,3,13,2,11,15,8,14,7,5,1,4,9,10"
14651,commdev-image-keyboard-response,329,796729,learnblock1,470,img/planet9_right.png,9,Community 3,NA,TRUE,j,j,NA,NA,NA,4,7,"12,6,3,13,2,11,15,8,14,7,5,1,4,9,10"
14651,commdev-image-keyboard-response,330,797982,learnblock1,646.3000000119209,img/planet10_right.png,10,Community 3,NA,TRUE,j,j,NA,NA,NA,4,7,"12,6,3,13,2,11,15,8,14,7,5,1,4,9,10"
14651,commdev-image-keyboard-response,331,799235,learnblock1,662.4000000357628,img/planet4_right.png,4,Community 3,NA,TRUE,j,j,NA,NA,NA,4,7,"12,6,3,13,2,11,15,8,14,7,5,1,4,9,10"
14651,commdev-image-keyboard-response,332,800488,learnblock1,899.3999999761581,img/planet1_right.png,1,Community 3,NA,TRUE,j,j,NA,NA,NA,4,7,"12,6,3,13,2,11,15,8,14,7,5,1,4,9,10"
14651,commdev-image-keyboard-response,333,801740,learnblock1,550.8000000119209,img/planet10_right.png,10,Community 3,NA,TRUE,j,j,NA,NA,NA,4,7,"12,6,3,13,2,11,15,8,14,7,5,1,4,9,10"
14651,commdev-image-keyboard-response,334,802992,learnblock1,1190,img/planet5_left.png,5,Community 3,NA,TRUE,f,f,NA,NA,NA,4,7,"12,6,3,13,2,11,15,8,14,7,5,1,4,9,10"
14651,commdev-image-keyboard-response,335,804245,learnblock1,946.2000000476837,img/planet9_right.png,9,Community 3,NA,TRUE,j,j,NA,NA,NA,4,7,"12,6,3,13,2,11,15,8,14,7,5,1,4,9,10"
14651,commdev-image-keyboard-response,336,805497,learnblock1,809,img/planet1_left.png,1,Community 3,NA,FALSE,j,f,NA,NA,NA,4,7,"12,6,3,13,2,11,15,8,14,7,5,1,4,9,10"
14651,commdev-image-keyboard-response,337,806750,learnblock1,772.3999999761581,img/planet9_left.png,9,Community 3,NA,FALSE,j,f,NA,NA,NA,4,7,"12,6,3,13,2,11,15,8,14,7,5,1,4,9,10"
14651,commdev-image-keyboard-response,338,808002,learnblock1,687.8000000119209,img/planet10_left.png,10,Community 3,NA,FALSE,j,f,NA,NA,NA,4,7,"12,6,3,13,2,11,15,8,14,7,5,1,4,9,10"
14651,commdev-image-keyboard-response,339,809255,learnblock1,620.3000000119209,img/planet9_left.png,9,Community 3,NA,FALSE,j,f,NA,NA,NA,4,7,"12,6,3,13,2,11,15,8,14,7,5,1,4,9,10"
14651,commdev-image-keyboard-response,340,810507,learnblock1,679.1000000238419,img/planet4_left.png,4,Community 3,NA,FALSE,j,f,NA,NA,NA,4,7,"12,6,3,13,2,11,15,8,14,7,5,1,4,9,10"
14651,commdev-image-keyboard-response,341,811758,learnblock1,366,img/planet1_left.png,1,Community 3,NA,FALSE,j,f,NA,NA,NA,4,7,"12,6,3,13,2,11,15,8,14,7,5,1,4,9,10"
14651,commdev-image-keyboard-response,342,813011,learnblock1,652.3999999761581,img/planet9_right.png,9,Community 3,NA,FALSE,f,j,NA,NA,NA,4,7,"12,6,3,13,2,11,15,8,14,7,5,1,4,9,10"
14651,commdev-image-keyboard-response,343,814264,learnblock1,408.19999998807907,img/planet4_right.png,4,Community 3,NA,TRUE,j,j,NA,NA,NA,4,7,"12,6,3,13,2,11,15,8,14,7,5,1,4,9,10"
14651,commdev-image-keyboard-response,344,815516,learnblock1,1142.300000011921,img/planet9_left.png,9,Community 3,NA,TRUE,f,f,NA,NA,NA,4,7,"12,6,3,13,2,11,15,8,14,7,5,1,4,9,10"
14651,commdev-image-keyboard-response,345,816768,learnblock1,1025.7000000476837,img/planet5_right.png,5,Community 3,NA,TRUE,j,j,NA,NA,NA,4,7,"12,6,3,13,2,11,15,8,14,7,5,1,4,9,10"
14651,commdev-image-keyboard-response,346,818021,learnblock1,736,img/planet9_left.png,9,Community 3,NA,FALSE,j,f,NA,NA,NA,4,7,"12,6,3,13,2,11,15,8,14,7,5,1,4,9,10"
14651,commdev-image-keyboard-response,347,819273,learnblock1,1047.5,img/planet1_right.png,1,Community 3,NA,TRUE,j,j,NA,NA,NA,4,7,"12,6,3,13,2,11,15,8,14,7,5,1,4,9,10"
14651,commdev-image-keyboard-response,348,820525,learnblock1,747.8000000119209,img/planet10_right.png,10,Community 3,NA,TRUE,j,j,NA,NA,NA,4,7,"12,6,3,13,2,11,15,8,14,7,5,1,4,9,10"
14651,commdev-image-keyboard-response,349,821777,learnblock1,787.3999999761581,img/planet1_right.png,1,Community 3,NA,TRUE,j,j,NA,NA,NA,4,7,"12,6,3,13,2,11,15,8,14,7,5,1,4,9,10"
14651,commdev-image-keyboard-response,350,823029,learnblock1,1187.3999999761581,img/planet4_left.png,4,Community 3,NA,TRUE,f,f,NA,NA,NA,4,7,"12,6,3,13,2,11,15,8,14,7,5,1,4,9,10"
14651,commdev-image-keyboard-response,351,824281,learnblock1,1087.2999999523163,img/planet5_right.png,5,Community 3,NA,TRUE,j,j,NA,NA,NA,4,7,"12,6,3,13,2,11,15,8,14,7,5,1,4,9,10"
14651,commdev-image-keyboard-response,352,825534,learnblock1,767.1000000238419,img/planet10_right.png,10,Community 3,NA,TRUE,j,j,NA,NA,NA,4,7,"12,6,3,13,2,11,15,8,14,7,5,1,4,9,10"
14651,commdev-image-keyboard-response,353,826786,learnblock1,625.5,img/planet5_right.png,5,Community 3,NA,TRUE,j,j,NA,NA,NA,4,7,"12,6,3,13,2,11,15,8,14,7,5,1,4,9,10"
14651,commdev-image-keyboard-response,354,828039,learnblock1,358.69999998807907,img/planet10_right.png,10,Community 3,NA,TRUE,j,j,NA,NA,NA,4,7,"12,6,3,13,2,11,15,8,14,7,5,1,4,9,10"
14651,commdev-image-keyboard-response,355,829291,learnblock1,322.5,img/planet9_right.png,9,Community 3,NA,TRUE,j,j,NA,NA,NA,4,7,"12,6,3,13,2,11,15,8,14,7,5,1,4,9,10"
14651,commdev-image-keyboard-response,356,830544,learnblock1,1138.800000011921,img/planet4_left.png,4,Community 3,NA,TRUE,f,f,NA,NA,NA,4,7,"12,6,3,13,2,11,15,8,14,7,5,1,4,9,10"
14651,commdev-image-keyboard-response,357,831796,learnblock1,934.5999999642372,img/planet9_left.png,9,Community 3,NA,TRUE,f,f,NA,NA,NA,4,7,"12,6,3,13,2,11,15,8,14,7,5,1,4,9,10"
14651,commdev-image-keyboard-response,358,833048,learnblock1,967.1000000238419,img/planet5_left.png,5,Community 3,NA,TRUE,f,f,NA,NA,NA,4,7,"12,6,3,13,2,11,15,8,14,7,5,1,4,9,10"
14651,commdev-image-keyboard-response,359,834301,learnblock1,null,img/planet10_left.png,10,Community 3,NA,FALSE,null,f,NA,NA,NA,4,7,"12,6,3,13,2,11,15,8,14,7,5,1,4,9,10"
14651,commdev-image-keyboard-response,360,835554,learnblock1,84.39999997615814,img/planet1_left.png,1,Community 3,NA,TRUE,f,f,NA,NA,NA,4,7,"12,6,3,13,2,11,15,8,14,7,5,1,4,9,10"
14651,commdev-image-keyboard-response,361,836806,learnblock1,1103.9000000357628,img/planet10_right.png,10,Community 3,NA,TRUE,j,j,NA,NA,NA,4,7,"12,6,3,13,2,11,15,8,14,7,5,1,4,9,10"
14651,commdev-image-keyboard-response,362,838058,learnblock1,null,img/planet5_left.png,5,Community 3,NA,FALSE,null,f,NA,NA,NA,4,7,"12,6,3,13,2,11,15,8,14,7,5,1,4,9,10"
14651,commdev-image-keyboard-response,363,839309,learnblock1,7.300000011920929,img/planet2_right.png,2,Community 1,NA,FALSE,f,j,NA,NA,NA,4,7,"12,6,3,13,2,11,15,8,14,7,5,1,4,9,10"
14651,commdev-image-keyboard-response,364,840561,learnblock1,1116.5,img/planet12_left.png,12,Community 1,NA,TRUE,f,f,NA,NA,NA,4,7,"12,6,3,13,2,11,15,8,14,7,5,1,4,9,10"
14651,commdev-image-keyboard-response,365,841814,learnblock1,null,img/planet6_right.png,6,Community 1,NA,FALSE,null,j,NA,NA,NA,4,7,"12,6,3,13,2,11,15,8,14,7,5,1,4,9,10"
14651,commdev-image-keyboard-response,366,843067,learnblock1,607.8999999761581,img/planet2_right.png,2,Community 1,NA,TRUE,j,j,NA,NA,NA,4,7,"12,6,3,13,2,11,15,8,14,7,5,1,4,9,10"
14651,commdev-image-keyboard-response,367,844319,learnblock1,597.5,img/planet12_right.png,12,Community 1,NA,TRUE,j,j,NA,NA,NA,4,7,"12,6,3,13,2,11,15,8,14,7,5,1,4,9,10"
14651,commdev-image-keyboard-response,368,845571,learnblock1,716.0999999642372,img/planet3_right.png,3,Community 1,NA,TRUE,j,j,NA,NA,NA,4,7,"12,6,3,13,2,11,15,8,14,7,5,1,4,9,10"
14651,commdev-image-keyboard-response,369,846824,learnblock1,447.39999997615814,img/planet13_right.png,13,Community 1,NA,TRUE,j,j,NA,NA,NA,4,7,"12,6,3,13,2,11,15,8,14,7,5,1,4,9,10"
14651,commdev-image-keyboard-response,370,848076,learnblock1,420,img/planet3_right.png,3,Community 1,NA,TRUE,j,j,NA,NA,NA,4,7,"12,6,3,13,2,11,15,8,14,7,5,1,4,9,10"
14651,commdev-image-keyboard-response,371,849329,learnblock1,373.5,img/planet12_left.png,12,Community 1,NA,FALSE,j,f,NA,NA,NA,4,7,"12,6,3,13,2,11,15,8,14,7,5,1,4,9,10"
14651,commdev-image-keyboard-response,372,850581,learnblock1,null,img/planet6_left.png,6,Community 1,NA,FALSE,null,f,NA,NA,NA,4,7,"12,6,3,13,2,11,15,8,14,7,5,1,4,9,10"
14651,commdev-image-keyboard-response,373,851833,learnblock1,504.5,img/planet2_left.png,2,Community 1,NA,TRUE,f,f,NA,NA,NA,4,7,"12,6,3,13,2,11,15,8,14,7,5,1,4,9,10"
14651,commdev-image-keyboard-response,374,853084,learnblock1,433.19999998807907,img/planet3_left.png,3,Community 1,NA,TRUE,f,f,NA,NA,NA,4,7,"12,6,3,13,2,11,15,8,14,7,5,1,4,9,10"
14651,commdev-image-keyboard-response,375,854337,learnblock1,397.5,img/planet12_right.png,12,Community 1,NA,FALSE,f,j,NA,NA,NA,4,7,"12,6,3,13,2,11,15,8,14,7,5,1,4,9,10"
14651,commdev-image-keyboard-response,376,855590,learnblock1,148.20000004768372,img/planet6_left.png,6,Community 1,NA,FALSE,j,f,NA,NA,NA,4,7,"12,6,3,13,2,11,15,8,14,7,5,1,4,9,10"
14651,commdev-image-keyboard-response,377,856842,learnblock1,18,img/planet3_right.png,3,Community 1,NA,FALSE,f,j,NA,NA,NA,4,7,"12,6,3,13,2,11,15,8,14,7,5,1,4,9,10"
14651,commdev-image-keyboard-response,378,858093,learnblock1,null,img/planet13_left.png,13,Community 1,NA,FALSE,null,f,NA,NA,NA,4,7,"12,6,3,13,2,11,15,8,14,7,5,1,4,9,10"
14651,commdev-image-keyboard-response,379,859346,learnblock1,351.19999998807907,img/planet6_right.png,6,Community 1,NA,FALSE,f,j,NA,NA,NA,4,7,"12,6,3,13,2,11,15,8,14,7,5,1,4,9,10"
14651,commdev-image-keyboard-response,380,860598,learnblock1,731.1999999880791,img/planet3_left.png,3,Community 1,NA,TRUE,f,f,NA,NA,NA,4,7,"12,6,3,13,2,11,15,8,14,7,5,1,4,9,10"
14651,commdev-image-keyboard-response,381,861850,learnblock1,446.5999999642372,img/planet12_left.png,12,Community 1,NA,TRUE,f,f,NA,NA,NA,4,7,"12,6,3,13,2,11,15,8,14,7,5,1,4,9,10"
14651,commdev-image-keyboard-response,382,863103,learnblock1,662,img/planet6_left.png,6,Community 1,NA,TRUE,f,f,NA,NA,NA,4,7,"12,6,3,13,2,11,15,8,14,7,5,1,4,9,10"
14651,commdev-image-keyboard-response,383,864356,learnblock1,517,img/planet12_right.png,12,Community 1,NA,FALSE,f,j,NA,NA,NA,4,7,"12,6,3,13,2,11,15,8,14,7,5,1,4,9,10"
14651,commdev-image-keyboard-response,384,865608,learnblock1,416.2999999523163,img/planet6_left.png,6,Community 1,NA,FALSE,j,f,NA,NA,NA,4,7,"12,6,3,13,2,11,15,8,14,7,5,1,4,9,10"
14651,commdev-image-keyboard-response,385,866860,learnblock1,133.69999998807907,img/planet13_right.png,13,Community 1,NA,FALSE,f,j,NA,NA,NA,4,7,"12,6,3,13,2,11,15,8,14,7,5,1,4,9,10"
14651,commdev-image-keyboard-response,386,868112,learnblock1,1124.8999999761581,img/planet12_left.png,12,Community 1,NA,TRUE,f,f,NA,NA,NA,4,7,"12,6,3,13,2,11,15,8,14,7,5,1,4,9,10"
14651,commdev-image-keyboard-response,387,869364,learnblock1,860,img/planet2_right.png,2,Community 1,NA,TRUE,j,j,NA,NA,NA,4,7,"12,6,3,13,2,11,15,8,14,7,5,1,4,9,10"
14651,commdev-image-keyboard-response,388,870617,learnblock1,null,img/planet3_left.png,3,Community 1,NA,FALSE,null,f,NA,NA,NA,4,7,"12,6,3,13,2,11,15,8,14,7,5,1,4,9,10"
14651,commdev-image-keyboard-response,389,871870,learnblock1,null,img/planet13_left.png,13,Community 1,NA,FALSE,null,f,NA,NA,NA,4,7,"12,6,3,13,2,11,15,8,14,7,5,1,4,9,10"
14651,commdev-image-keyboard-response,390,873121,learnblock1,913.7000000476837,img/planet11_left.png,11,Community 2,NA,TRUE,f,f,NA,NA,NA,4,7,"12,6,3,13,2,11,15,8,14,7,5,1,4,9,10"
14651,commdev-image-keyboard-response,391,874374,learnblock1,null,img/planet13_right.png,13,Community 1,NA,FALSE,null,j,NA,NA,NA,4,7,"12,6,3,13,2,11,15,8,14,7,5,1,4,9,10"
14651,commdev-image-keyboard-response,392,875626,learnblock1,814,img/planet3_right.png,3,Community 1,NA,FALSE,f,j,NA,NA,NA,4,7,"12,6,3,13,2,11,15,8,14,7,5,1,4,9,10"
14651,commdev-image-keyboard-response,393,876878,learnblock1,107.19999998807907,img/planet12_right.png,12,Community 1,NA,TRUE,j,j,NA,NA,NA,4,7,"12,6,3,13,2,11,15,8,14,7,5,1,4,9,10"
14651,commdev-image-keyboard-response,394,878131,learnblock1,209.4000000357628,img/planet2_left.png,2,Community 1,NA,FALSE,j,f,NA,NA,NA,4,7,"12,6,3,13,2,11,15,8,14,7,5,1,4,9,10"
14651,commdev-image-keyboard-response,395,879383,learnblock1,213.29999995231628,img/planet3_left.png,3,Community 1,NA,TRUE,f,f,NA,NA,NA,4,7,"12,6,3,13,2,11,15,8,14,7,5,1,4,9,10"
14651,commdev-image-keyboard-response,396,880635,learnblock1,30.700000047683716,img/planet2_left.png,2,Community 1,NA,FALSE,j,f,NA,NA,NA,4,7,"12,6,3,13,2,11,15,8,14,7,5,1,4,9,10"
14651,commdev-image-keyboard-response,397,881887,learnblock1,10,img/planet5_right.png,5,Community 3,NA,TRUE,j,j,NA,NA,NA,4,7,"12,6,3,13,2,11,15,8,14,7,5,1,4,9,10"
14651,commdev-image-keyboard-response,398,883139,learnblock1,127.90000003576279,img/planet4_right.png,4,Community 3,NA,TRUE,j,j,NA,NA,NA,4,7,"12,6,3,13,2,11,15,8,14,7,5,1,4,9,10"
14651,commdev-image-keyboard-response,399,884391,learnblock1,20.399999976158142,img/planet10_right.png,10,Community 3,NA,TRUE,j,j,NA,NA,NA,4,7,"12,6,3,13,2,11,15,8,14,7,5,1,4,9,10"
14651,commdev-image-keyboard-response,400,885643,learnblock1,556.8999999761581,img/planet9_right.png,9,Community 3,NA,TRUE,j,j,NA,NA,NA,4,7,"12,6,3,13,2,11,15,8,14,7,5,1,4,9,10"
14651,commdev-image-keyboard-response,401,886896,learnblock1,29.899999976158142,img/planet1_right.png,1,Community 3,NA,TRUE,j,j,NA,NA,NA,4,7,"12,6,3,13,2,11,15,8,14,7,5,1,4,9,10"
14651,commdev-image-keyboard-response,402,888148,learnblock1,477.5,img/planet9_right.png,9,Community 3,NA,TRUE,j,j,NA,NA,NA,4,7,"12,6,3,13,2,11,15,8,14,7,5,1,4,9,10"
14651,commdev-image-keyboard-response,403,889400,learnblock1,432.80000001192093,img/planet4_right.png,4,Community 3,NA,TRUE,j,j,NA,NA,NA,4,7,"12,6,3,13,2,11,15,8,14,7,5,1,4,9,10"
14651,commdev-image-keyboard-response,404,890653,learnblock1,479.5,img/planet9_left.png,9,Community 3,NA,FALSE,j,f,NA,NA,NA,4,7,"12,6,3,13,2,11,15,8,14,7,5,1,4,9,10"
14651,commdev-image-keyboard-response,405,891905,learnblock1,663.1999999880791,img/planet4_left.png,4,Community 3,NA,TRUE,f,f,NA,NA,NA,4,7,"12,6,3,13,2,11,15,8,14,7,5,1,4,9,10"
14651,commdev-image-keyboard-response,406,893158,learnblock1,658.3999999761581,img/planet9_right.png,9,Community 3,NA,FALSE,f,j,NA,NA,NA,4,7,"12,6,3,13,2,11,15,8,14,7,5,1,4,9,10"
14651,commdev-image-keyboard-response,407,894410,learnblock1,54.30000001192093,img/planet5_right.png,5,Community 3,NA,TRUE,j,j,NA,NA,NA,4,7,"12,6,3,13,2,11,15,8,14,7,5,1,4,9,10"
14651,commdev-image-keyboard-response,408,895662,learnblock1,null,img/planet9_left.png,9,Community 3,NA,FALSE,null,f,NA,NA,NA,4,7,"12,6,3,13,2,11,15,8,14,7,5,1,4,9,10"
14651,commdev-image-keyboard-response,409,896915,learnblock1,309.69999998807907,img/planet1_right.png,1,Community 3,NA,FALSE,f,j,NA,NA,NA,4,7,"12,6,3,13,2,11,15,8,14,7,5,1,4,9,10"
14651,commdev-image-keyboard-response,410,898166,learnblock1,744.3999999761581,img/planet8_right.png,8,Community 2,NA,FALSE,f,j,NA,NA,NA,4,7,"12,6,3,13,2,11,15,8,14,7,5,1,4,9,10"
14651,commdev-image-keyboard-response,411,899418,learnblock1,520.1999999880791,img/planet14_right.png,14,Community 2,NA,TRUE,j,j,NA,NA,NA,4,7,"12,6,3,13,2,11,15,8,14,7,5,1,4,9,10"
14651,commdev-image-keyboard-response,412,900669,learnblock1,453.30000001192093,img/planet7_right.png,7,Community 2,NA,FALSE,f,j,NA,NA,NA,4,7,"12,6,3,13,2,11,15,8,14,7,5,1,4,9,10"
14651,commdev-image-keyboard-response,413,901921,learnblock1,915.8000000119209,img/planet11_left.png,11,Community 2,NA,TRUE,f,f,NA,NA,NA,4,7,"12,6,3,13,2,11,15,8,14,7,5,1,4,9,10"
14651,commdev-image-keyboard-response,414,903173,learnblock1,774.3000000119209,img/planet15_left.png,15,Community 2,NA,FALSE,j,f,NA,NA,NA,4,7,"12,6,3,13,2,11,15,8,14,7,5,1,4,9,10"
14651,commdev-image-keyboard-response,415,904425,learnblock1,908.7000000476837,img/planet7_right.png,7,Community 2,NA,FALSE,f,j,NA,NA,NA,4,7,"12,6,3,13,2,11,15,8,14,7,5,1,4,9,10"
14651,commdev-image-keyboard-response,416,905677,learnblock1,908.8999999761581,img/planet15_left.png,15,Community 2,NA,TRUE,f,f,NA,NA,NA,4,7,"12,6,3,13,2,11,15,8,14,7,5,1,4,9,10"
14651,commdev-image-keyboard-response,417,906930,learnblock1,531.1999999880791,img/planet7_left.png,7,Community 2,NA,TRUE,f,f,NA,NA,NA,4,7,"12,6,3,13,2,11,15,8,14,7,5,1,4,9,10"
14651,commdev-image-keyboard-response,418,908182,learnblock1,855,img/planet8_left.png,8,Community 2,NA,TRUE,f,f,NA,NA,NA,4,7,"12,6,3,13,2,11,15,8,14,7,5,1,4,9,10"
14651,commdev-image-keyboard-response,419,909434,learnblock1,565.5,img/planet14_left.png,14,Community 2,NA,TRUE,f,f,NA,NA,NA,4,7,"12,6,3,13,2,11,15,8,14,7,5,1,4,9,10"
14651,commdev-image-keyboard-response,420,910687,learnblock1,479.10000002384186,img/planet8_right.png,8,Community 2,NA,FALSE,f,j,NA,NA,NA,4,7,"12,6,3,13,2,11,15,8,14,7,5,1,4,9,10"
14651,commdev-image-keyboard-response,421,911940,learnblock1,425.60000002384186,img/planet14_right.png,14,Community 2,NA,TRUE,j,j,NA,NA,NA,4,7,"12,6,3,13,2,11,15,8,14,7,5,1,4,9,10"
14651,commdev-image-keyboard-response,422,913192,learnblock1,584.0999999642372,img/planet7_right.png,7,Community 2,NA,TRUE,j,j,NA,NA,NA,4,7,"12,6,3,13,2,11,15,8,14,7,5,1,4,9,10"
14651,commdev-image-keyboard-response,423,914444,learnblock1,1034.5,img/planet14_right.png,14,Community 2,NA,TRUE,j,j,NA,NA,NA,4,7,"12,6,3,13,2,11,15,8,14,7,5,1,4,9,10"
14651,commdev-image-keyboard-response,424,915697,learnblock1,941.6999999880791,img/planet15_right.png,15,Community 2,NA,TRUE,j,j,NA,NA,NA,4,7,"12,6,3,13,2,11,15,8,14,7,5,1,4,9,10"
14651,commdev-image-keyboard-response,425,916949,learnblock1,914.6999999880791,img/planet11_right.png,11,Community 2,NA,TRUE,j,j,NA,NA,NA,4,7,"12,6,3,13,2,11,15,8,14,7,5,1,4,9,10"
14651,commdev-image-keyboard-response,426,918202,learnblock1,774.3000000119209,img/planet13_right.png,13,Community 1,NA,TRUE,j,j,NA,NA,NA,4,7,"12,6,3,13,2,11,15,8,14,7,5,1,4,9,10"
14651,commdev-image-keyboard-response,427,919454,learnblock1,794.1999999880791,img/planet6_right.png,6,Community 1,NA,TRUE,j,j,NA,NA,NA,4,7,"12,6,3,13,2,11,15,8,14,7,5,1,4,9,10"
14651,commdev-image-keyboard-response,428,920706,learnblock1,631.1000000238419,img/planet2_left.png,2,Community 1,NA,FALSE,j,f,NA,NA,NA,4,7,"12,6,3,13,2,11,15,8,14,7,5,1,4,9,10"
14651,commdev-image-keyboard-response,429,921959,learnblock1,256.10000002384186,img/planet3_left.png,3,Community 1,NA,TRUE,f,f,NA,NA,NA,4,7,"12,6,3,13,2,11,15,8,14,7,5,1,4,9,10"
14651,commdev-image-keyboard-response,430,923211,learnblock1,309.69999998807907,img/planet13_left.png,13,Community 1,NA,TRUE,f,f,NA,NA,NA,4,7,"12,6,3,13,2,11,15,8,14,7,5,1,4,9,10"
14651,commdev-image-keyboard-response,431,924463,learnblock1,501.5999999642372,img/planet12_right.png,12,Community 1,NA,FALSE,f,j,NA,NA,NA,4,7,"12,6,3,13,2,11,15,8,14,7,5,1,4,9,10"
14651,commdev-image-keyboard-response,432,925715,learnblock1,28.899999976158142,img/planet2_right.png,2,Community 1,NA,TRUE,j,j,NA,NA,NA,4,7,"12,6,3,13,2,11,15,8,14,7,5,1,4,9,10"
14651,commdev-image-keyboard-response,433,926967,learnblock1,427.30000001192093,img/planet12_right.png,12,Community 1,NA,TRUE,j,j,NA,NA,NA,4,7,"12,6,3,13,2,11,15,8,14,7,5,1,4,9,10"
14651,commdev-image-keyboard-response,434,928219,learnblock1,856.5,img/planet13_right.png,13,Community 1,NA,TRUE,j,j,NA,NA,NA,4,7,"12,6,3,13,2,11,15,8,14,7,5,1,4,9,10"
14651,commdev-image-keyboard-response,435,929472,learnblock1,823.2999999523163,img/planet11_right.png,11,Community 2,NA,TRUE,j,j,NA,NA,NA,4,7,"12,6,3,13,2,11,15,8,14,7,5,1,4,9,10"
14651,commdev-image-keyboard-response,436,930725,learnblock1,1202.5,img/planet15_left.png,15,Community 2,NA,FALSE,j,f,NA,NA,NA,4,7,"12,6,3,13,2,11,15,8,14,7,5,1,4,9,10"
14651,commdev-image-keyboard-response,437,931977,learnblock1,null,img/planet7_right.png,7,Community 2,NA,FALSE,null,j,NA,NA,NA,4,7,"12,6,3,13,2,11,15,8,14,7,5,1,4,9,10"
14651,commdev-image-keyboard-response,438,933230,learnblock1,null,img/planet11_left.png,11,Community 2,NA,FALSE,null,f,NA,NA,NA,4,7,"12,6,3,13,2,11,15,8,14,7,5,1,4,9,10"
14651,commdev-image-keyboard-response,439,934481,learnblock1,45.60000002384186,img/planet7_left.png,7,Community 2,NA,TRUE,f,f,NA,NA,NA,4,7,"12,6,3,13,2,11,15,8,14,7,5,1,4,9,10"
14651,commdev-image-keyboard-response,440,935733,learnblock1,737.3999999761581,img/planet8_left.png,8,Community 2,NA,TRUE,f,f,NA,NA,NA,4,7,"12,6,3,13,2,11,15,8,14,7,5,1,4,9,10"
14651,commdev-image-keyboard-response,441,936986,learnblock1,null,img/planet14_right.png,14,Community 2,NA,FALSE,null,j,NA,NA,NA,4,7,"12,6,3,13,2,11,15,8,14,7,5,1,4,9,10"
14651,commdev-image-keyboard-response,442,938238,learnblock1,null,img/planet11_left.png,11,Community 2,NA,FALSE,null,f,NA,NA,NA,4,7,"12,6,3,13,2,11,15,8,14,7,5,1,4,9,10"
14651,commdev-image-keyboard-response,443,939491,learnblock1,null,img/planet7_right.png,7,Community 2,NA,FALSE,null,j,NA,NA,NA,4,7,"12,6,3,13,2,11,15,8,14,7,5,1,4,9,10"
14651,commdev-image-keyboard-response,444,940743,learnblock1,null,img/planet8_left.png,8,Community 2,NA,FALSE,null,f,NA,NA,NA,4,7,"12,6,3,13,2,11,15,8,14,7,5,1,4,9,10"
14651,commdev-image-keyboard-response,445,941996,learnblock1,null,img/planet7_left.png,7,Community 2,NA,FALSE,null,f,NA,NA,NA,4,7,"12,6,3,13,2,11,15,8,14,7,5,1,4,9,10"
14651,commdev-image-keyboard-response,446,943248,learnblock1,null,img/planet14_right.png,14,Community 2,NA,FALSE,null,j,NA,NA,NA,4,7,"12,6,3,13,2,11,15,8,14,7,5,1,4,9,10"
14651,commdev-image-keyboard-response,447,944501,learnblock1,536.4000000357628,img/planet8_right.png,8,Community 2,NA,TRUE,j,j,NA,NA,NA,4,7,"12,6,3,13,2,11,15,8,14,7,5,1,4,9,10"
14651,commdev-image-keyboard-response,448,945754,learnblock1,null,img/planet15_right.png,15,Community 2,NA,FALSE,null,j,NA,NA,NA,4,7,"12,6,3,13,2,11,15,8,14,7,5,1,4,9,10"
14651,commdev-image-keyboard-response,449,947006,learnblock1,366.19999998807907,img/planet14_right.png,14,Community 2,NA,TRUE,j,j,NA,NA,NA,4,7,"12,6,3,13,2,11,15,8,14,7,5,1,4,9,10"
14651,commdev-image-keyboard-response,450,948259,learnblock1,272.80000001192093,img/planet15_left.png,15,Community 2,NA,FALSE,j,f,NA,NA,NA,4,7,"12,6,3,13,2,11,15,8,14,7,5,1,4,9,10"
14651,commdev-image-keyboard-response,451,949511,learnblock1,null,img/planet8_right.png,8,Community 2,NA,FALSE,null,j,NA,NA,NA,4,7,"12,6,3,13,2,11,15,8,14,7,5,1,4,9,10"
14651,commdev-image-keyboard-response,452,950763,learnblock1,null,img/planet7_right.png,7,Community 2,NA,FALSE,null,j,NA,NA,NA,4,7,"12,6,3,13,2,11,15,8,14,7,5,1,4,9,10"
14651,commdev-image-keyboard-response,453,952015,learnblock1,790.7999999523163,img/planet14_left.png,14,Community 2,NA,FALSE,j,f,NA,NA,NA,4,7,"12,6,3,13,2,11,15,8,14,7,5,1,4,9,10"
14651,commdev-image-keyboard-response,454,953268,learnblock1,null,img/planet7_right.png,7,Community 2,NA,FALSE,null,j,NA,NA,NA,4,7,"12,6,3,13,2,11,15,8,14,7,5,1,4,9,10"
14651,commdev-image-keyboard-response,455,954519,learnblock1,408.30000001192093,img/planet8_right.png,8,Community 2,NA,TRUE,j,j,NA,NA,NA,4,7,"12,6,3,13,2,11,15,8,14,7,5,1,4,9,10"
14651,commdev-image-keyboard-response,456,955772,learnblock1,null,img/planet7_right.png,7,Community 2,NA,FALSE,null,j,NA,NA,NA,4,7,"12,6,3,13,2,11,15,8,14,7,5,1,4,9,10"
14651,commdev-image-keyboard-response,457,957024,learnblock1,283.19999998807907,img/planet14_left.png,14,Community 2,NA,FALSE,j,f,NA,NA,NA,4,7,"12,6,3,13,2,11,15,8,14,7,5,1,4,9,10"
14651,commdev-image-keyboard-response,458,958277,learnblock1,null,img/planet7_right.png,7,Community 2,NA,FALSE,null,j,NA,NA,NA,4,7,"12,6,3,13,2,11,15,8,14,7,5,1,4,9,10"
14651,commdev-image-keyboard-response,459,959528,learnblock1,270,img/planet8_left.png,8,Community 2,NA,FALSE,j,f,NA,NA,NA,4,7,"12,6,3,13,2,11,15,8,14,7,5,1,4,9,10"
14651,commdev-image-keyboard-response,460,960780,learnblock1,null,img/planet15_left.png,15,Community 2,NA,FALSE,null,f,NA,NA,NA,4,7,"12,6,3,13,2,11,15,8,14,7,5,1,4,9,10"
14651,commdev-image-keyboard-response,461,962031,learnblock1,179.19999998807907,img/planet14_right.png,14,Community 2,NA,TRUE,j,j,NA,NA,NA,4,7,"12,6,3,13,2,11,15,8,14,7,5,1,4,9,10"
14651,commdev-image-keyboard-response,462,963284,learnblock1,null,img/planet8_right.png,8,Community 2,NA,FALSE,null,j,NA,NA,NA,4,7,"12,6,3,13,2,11,15,8,14,7,5,1,4,9,10"
14651,commdev-image-keyboard-response,463,964537,learnblock1,477.5,img/planet14_left.png,14,Community 2,NA,FALSE,j,f,NA,NA,NA,4,7,"12,6,3,13,2,11,15,8,14,7,5,1,4,9,10"
14651,commdev-image-keyboard-response,464,965789,learnblock1,null,img/planet15_left.png,15,Community 2,NA,FALSE,null,f,NA,NA,NA,4,7,"12,6,3,13,2,11,15,8,14,7,5,1,4,9,10"
14651,commdev-image-keyboard-response,465,967042,learnblock1,737.3999999761581,img/planet7_left.png,7,Community 2,NA,FALSE,j,f,NA,NA,NA,4,7,"12,6,3,13,2,11,15,8,14,7,5,1,4,9,10"
14651,commdev-image-keyboard-response,466,968294,learnblock1,null,img/planet14_right.png,14,Community 2,NA,FALSE,null,j,NA,NA,NA,4,7,"12,6,3,13,2,11,15,8,14,7,5,1,4,9,10"
14651,commdev-image-keyboard-response,467,969545,learnblock1,714.9000000357628,img/planet7_left.png,7,Community 2,NA,TRUE,f,f,NA,NA,NA,4,7,"12,6,3,13,2,11,15,8,14,7,5,1,4,9,10"
14651,commdev-image-keyboard-response,468,970797,learnblock1,372.60000002384186,img/planet15_left.png,15,Community 2,NA,FALSE,j,f,NA,NA,NA,4,7,"12,6,3,13,2,11,15,8,14,7,5,1,4,9,10"
14651,commdev-image-keyboard-response,469,972050,learnblock1,359.5999999642372,img/planet8_right.png,8,Community 2,NA,FALSE,f,j,NA,NA,NA,4,7,"12,6,3,13,2,11,15,8,14,7,5,1,4,9,10"
14651,commdev-image-keyboard-response,470,973303,learnblock1,1003.3000000119209,img/planet1_left.png,1,Community 3,NA,FALSE,j,f,NA,NA,NA,4,7,"12,6,3,13,2,11,15,8,14,7,5,1,4,9,10"
14651,commdev-image-keyboard-response,471,974555,learnblock1,691.5999999642372,img/planet4_right.png,4,Community 3,NA,FALSE,f,j,NA,NA,NA,4,7,"12,6,3,13,2,11,15,8,14,7,5,1,4,9,10"
14651,commdev-image-keyboard-response,472,975807,learnblock1,950.3000000119209,img/planet9_right.png,9,Community 3,NA,TRUE,j,j,NA,NA,NA,4,7,"12,6,3,13,2,11,15,8,14,7,5,1,4,9,10"
14651,commdev-image-keyboard-response,473,977060,learnblock1,356.30000001192093,img/planet10_right.png,10,Community 3,NA,FALSE,f,j,NA,NA,NA,4,7,"12,6,3,13,2,11,15,8,14,7,5,1,4,9,10"
14651,commdev-image-keyboard-response,474,978312,learnblock1,295.39999997615814,img/planet4_left.png,4,Community 3,NA,FALSE,j,f,NA,NA,NA,4,7,"12,6,3,13,2,11,15,8,14,7,5,1,4,9,10"
14651,commdev-image-keyboard-response,475,979565,learnblock1,null,img/planet10_right.png,10,Community 3,NA,FALSE,null,j,NA,NA,NA,4,7,"12,6,3,13,2,11,15,8,14,7,5,1,4,9,10"
14651,commdev-image-keyboard-response,476,980817,learnblock1,40.5,img/planet5_left.png,5,Community 3,NA,FALSE,j,f,NA,NA,NA,4,7,"12,6,3,13,2,11,15,8,14,7,5,1,4,9,10"
14651,commdev-image-keyboard-response,477,982069,learnblock1,835.8000000119209,img/planet9_left.png,9,Community 3,NA,TRUE,f,f,NA,NA,NA,4,7,"12,6,3,13,2,11,15,8,14,7,5,1,4,9,10"
14651,commdev-image-keyboard-response,478,983322,learnblock1,722.1999999880791,img/planet1_left.png,1,Community 3,NA,TRUE,f,f,NA,NA,NA,4,7,"12,6,3,13,2,11,15,8,14,7,5,1,4,9,10"
14651,commdev-image-keyboard-response,479,984574,learnblock1,755.4000000357628,img/planet9_left.png,9,Community 3,NA,TRUE,f,f,NA,NA,NA,4,7,"12,6,3,13,2,11,15,8,14,7,5,1,4,9,10"
14651,commdev-image-keyboard-response,480,985826,learnblock1,817.3999999761581,img/planet5_left.png,5,Community 3,NA,TRUE,f,f,NA,NA,NA,4,7,"12,6,3,13,2,11,15,8,14,7,5,1,4,9,10"
14651,commdev-image-keyboard-response,481,987079,learnblock1,972.9000000357628,img/planet10_right.png,10,Community 3,NA,FALSE,f,j,NA,NA,NA,4,7,"12,6,3,13,2,11,15,8,14,7,5,1,4,9,10"
14651,commdev-image-keyboard-response,482,988332,learnblock1,493.89999997615814,img/planet4_left.png,4,Community 3,NA,TRUE,f,f,NA,NA,NA,4,7,"12,6,3,13,2,11,15,8,14,7,5,1,4,9,10"
14651,commdev-image-keyboard-response,483,989584,learnblock1,255,img/planet10_right.png,10,Community 3,NA,TRUE,j,j,NA,NA,NA,4,7,"12,6,3,13,2,11,15,8,14,7,5,1,4,9,10"
14651,commdev-image-keyboard-response,484,990836,learnblock1,731.6999999880791,img/planet9_left.png,9,Community 3,NA,TRUE,f,f,NA,NA,NA,4,7,"12,6,3,13,2,11,15,8,14,7,5,1,4,9,10"
14651,commdev-image-keyboard-response,485,992089,learnblock1,null,img/planet10_right.png,10,Community 3,NA,FALSE,null,j,NA,NA,NA,4,7,"12,6,3,13,2,11,15,8,14,7,5,1,4,9,10"
14651,commdev-image-keyboard-response,486,993342,learnblock1,287.5,img/planet1_left.png,1,Community 3,NA,FALSE,j,f,NA,NA,NA,4,7,"12,6,3,13,2,11,15,8,14,7,5,1,4,9,10"
14651,commdev-image-keyboard-response,487,994594,learnblock1,389.2000000476837,img/planet4_right.png,4,Community 3,NA,FALSE,f,j,NA,NA,NA,4,7,"12,6,3,13,2,11,15,8,14,7,5,1,4,9,10"
14651,commdev-image-keyboard-response,488,995845,learnblock1,748.6000000238419,img/planet5_left.png,5,Community 3,NA,FALSE,j,f,NA,NA,NA,4,7,"12,6,3,13,2,11,15,8,14,7,5,1,4,9,10"
14651,commdev-image-keyboard-response,489,997097,learnblock1,1129.1000000238419,img/planet4_left.png,4,Community 3,NA,TRUE,f,f,NA,NA,NA,4,7,"12,6,3,13,2,11,15,8,14,7,5,1,4,9,10"
14651,commdev-image-keyboard-response,490,998349,learnblock1,828.4000000357628,img/planet9_left.png,9,Community 3,NA,TRUE,f,f,NA,NA,NA,4,7,"12,6,3,13,2,11,15,8,14,7,5,1,4,9,10"
14651,commdev-image-keyboard-response,491,999601,learnblock1,668.3999999761581,img/planet10_left.png,10,Community 3,NA,TRUE,f,f,NA,NA,NA,4,7,"12,6,3,13,2,11,15,8,14,7,5,1,4,9,10"
14651,commdev-image-keyboard-response,492,1000853,learnblock1,720.1000000238419,img/planet5_left.png,5,Community 3,NA,TRUE,f,f,NA,NA,NA,4,7,"12,6,3,13,2,11,15,8,14,7,5,1,4,9,10"
14651,commdev-image-keyboard-response,493,1002106,learnblock1,851.8000000119209,img/planet2_left.png,2,Community 1,NA,TRUE,f,f,NA,NA,NA,4,7,"12,6,3,13,2,11,15,8,14,7,5,1,4,9,10"
14651,commdev-image-keyboard-response,494,1003358,learnblock1,773.8000000119209,img/planet3_left.png,3,Community 1,NA,TRUE,f,f,NA,NA,NA,4,7,"12,6,3,13,2,11,15,8,14,7,5,1,4,9,10"
14651,commdev-image-keyboard-response,495,1004610,learnblock1,818.5,img/planet6_left.png,6,Community 1,NA,TRUE,f,f,NA,NA,NA,4,7,"12,6,3,13,2,11,15,8,14,7,5,1,4,9,10"
14651,commdev-image-keyboard-response,496,1005862,learnblock1,716.6000000238419,img/planet12_left.png,12,Community 1,NA,TRUE,f,f,NA,NA,NA,4,7,"12,6,3,13,2,11,15,8,14,7,5,1,4,9,10"
14651,commdev-image-keyboard-response,497,1007115,learnblock1,743.2000000476837,img/planet6_left.png,6,Community 1,NA,TRUE,f,f,NA,NA,NA,4,7,"12,6,3,13,2,11,15,8,14,7,5,1,4,9,10"
14651,commdev-image-keyboard-response,498,1008367,learnblock1,745.6999999880791,img/planet3_right.png,3,Community 1,NA,FALSE,f,j,NA,NA,NA,4,7,"12,6,3,13,2,11,15,8,14,7,5,1,4,9,10"
14651,commdev-image-keyboard-response,499,1009619,learnblock1,null,img/planet13_left.png,13,Community 1,NA,FALSE,null,f,NA,NA,NA,4,7,"12,6,3,13,2,11,15,8,14,7,5,1,4,9,10"
14651,commdev-image-keyboard-response,500,1010871,learnblock1,29.399999976158142,img/planet3_right.png,3,Community 1,NA,FALSE,f,j,NA,NA,NA,4,7,"12,6,3,13,2,11,15,8,14,7,5,1,4,9,10"
14651,commdev-image-keyboard-response,501,1012123,learnblock1,null,img/planet6_left.png,6,Community 1,NA,FALSE,null,f,NA,NA,NA,4,7,"12,6,3,13,2,11,15,8,14,7,5,1,4,9,10"
14651,commdev-image-keyboard-response,502,1013376,learnblock1,6.800000011920929,img/planet13_right.png,13,Community 1,NA,FALSE,f,j,NA,NA,NA,4,7,"12,6,3,13,2,11,15,8,14,7,5,1,4,9,10"
14651,commdev-image-keyboard-response,503,1014629,learnblock1,892.8999999761581,img/planet11_right.png,11,Community 2,NA,TRUE,j,j,NA,NA,NA,4,7,"12,6,3,13,2,11,15,8,14,7,5,1,4,9,10"
14651,commdev-image-keyboard-response,504,1015881,learnblock1,998.8000000119209,img/planet7_right.png,7,Community 2,NA,TRUE,j,j,NA,NA,NA,4,7,"12,6,3,13,2,11,15,8,14,7,5,1,4,9,10"
14651,commdev-image-keyboard-response,505,1017133,learnblock1,752,img/planet8_right.png,8,Community 2,NA,TRUE,j,j,NA,NA,NA,4,7,"12,6,3,13,2,11,15,8,14,7,5,1,4,9,10"
14651,commdev-image-keyboard-response,506,1018384,learnblock1,null,img/planet14_left.png,14,Community 2,NA,FALSE,null,f,NA,NA,NA,4,7,"12,6,3,13,2,11,15,8,14,7,5,1,4,9,10"
14651,commdev-image-keyboard-response,507,1019637,learnblock1,221.60000002384186,img/planet8_left.png,8,Community 2,NA,TRUE,f,f,NA,NA,NA,4,7,"12,6,3,13,2,11,15,8,14,7,5,1,4,9,10"
14651,commdev-image-keyboard-response,508,1020889,learnblock1,1072.5,img/planet1_right.png,1,Community 3,NA,FALSE,f,j,NA,NA,NA,4,7,"12,6,3,13,2,11,15,8,14,7,5,1,4,9,10"
14651,commdev-image-keyboard-response,509,1022142,learnblock1,773.3000000119209,img/planet4_right.png,4,Community 3,NA,TRUE,j,j,NA,NA,NA,4,7,"12,6,3,13,2,11,15,8,14,7,5,1,4,9,10"
14651,commdev-image-keyboard-response,510,1023395,learnblock1,471.5999999642372,img/planet9_right.png,9,Community 3,NA,TRUE,j,j,NA,NA,NA,4,7,"12,6,3,13,2,11,15,8,14,7,5,1,4,9,10"
14651,commdev-image-keyboard-response,511,1024647,learnblock1,538.6999999880791,img/planet4_left.png,4,Community 3,NA,FALSE,j,f,NA,NA,NA,4,7,"12,6,3,13,2,11,15,8,14,7,5,1,4,9,10"
14651,commdev-image-keyboard-response,512,1025899,learnblock1,332.30000001192093,img/planet1_right.png,1,Community 3,NA,FALSE,f,j,NA,NA,NA,4,7,"12,6,3,13,2,11,15,8,14,7,5,1,4,9,10"
14651,commdev-image-keyboard-response,513,1027151,learnblock1,242.5999999642372,img/planet8_right.png,8,Community 2,NA,TRUE,j,j,NA,NA,NA,4,7,"12,6,3,13,2,11,15,8,14,7,5,1,4,9,10"
14651,commdev-image-keyboard-response,514,1028403,learnblock1,393.9000000357628,img/planet14_right.png,14,Community 2,NA,FALSE,f,j,NA,NA,NA,4,7,"12,6,3,13,2,11,15,8,14,7,5,1,4,9,10"
14651,commdev-image-keyboard-response,515,1029656,learnblock1,602.3000000119209,img/planet7_left.png,7,Community 2,NA,TRUE,f,f,NA,NA,NA,4,7,"12,6,3,13,2,11,15,8,14,7,5,1,4,9,10"
14651,commdev-image-keyboard-response,516,1030908,learnblock1,708.5,img/planet14_left.png,14,Community 2,NA,TRUE,f,f,NA,NA,NA,4,7,"12,6,3,13,2,11,15,8,14,7,5,1,4,9,10"
14651,commdev-image-keyboard-response,517,1032160,learnblock1,83.39999997615814,img/planet7_right.png,7,Community 2,NA,TRUE,j,j,NA,NA,NA,4,7,"12,6,3,13,2,11,15,8,14,7,5,1,4,9,10"
14651,commdev-image-keyboard-response,518,1033413,learnblock1,282.80000001192093,img/planet8_right.png,8,Community 2,NA,TRUE,j,j,NA,NA,NA,4,7,"12,6,3,13,2,11,15,8,14,7,5,1,4,9,10"
14651,commdev-image-keyboard-response,519,1034664,learnblock1,13.600000023841858,img/planet14_right.png,14,Community 2,NA,FALSE,f,j,NA,NA,NA,4,7,"12,6,3,13,2,11,15,8,14,7,5,1,4,9,10"
14651,commdev-image-keyboard-response,520,1035917,learnblock1,408.19999998807907,img/planet11_right.png,11,Community 2,NA,FALSE,f,j,NA,NA,NA,4,7,"12,6,3,13,2,11,15,8,14,7,5,1,4,9,10"
14651,commdev-image-keyboard-response,524,1244628,learnblock2,null,img/planet13_right.png,13,Community 1,NA,FALSE,null,j,NA,NA,NA,4,7,"12,6,3,13,2,11,15,8,14,7,5,1,4,9,10"
14651,commdev-image-keyboard-response,525,1245881,learnblock2,154.69999998807907,img/planet12_right.png,12,Community 1,NA,TRUE,j,j,NA,NA,NA,4,7,"12,6,3,13,2,11,15,8,14,7,5,1,4,9,10"
14651,commdev-image-keyboard-response,526,1247133,learnblock2,1211.5,img/planet3_left.png,3,Community 1,NA,TRUE,f,f,NA,NA,NA,4,7,"12,6,3,13,2,11,15,8,14,7,5,1,4,9,10"
14651,commdev-image-keyboard-response,527,1248385,learnblock2,742.5,img/planet2_left.png,2,Community 1,NA,TRUE,f,f,NA,NA,NA,4,7,"12,6,3,13,2,11,15,8,14,7,5,1,4,9,10"
14651,commdev-image-keyboard-response,528,1249638,learnblock2,null,img/planet12_right.png,12,Community 1,NA,FALSE,null,j,NA,NA,NA,4,7,"12,6,3,13,2,11,15,8,14,7,5,1,4,9,10"
14651,commdev-image-keyboard-response,529,1250889,learnblock2,5.300000011920929,img/planet3_right.png,3,Community 1,NA,TRUE,j,j,NA,NA,NA,4,7,"12,6,3,13,2,11,15,8,14,7,5,1,4,9,10"
14651,commdev-image-keyboard-response,530,1252142,learnblock2,1008.8000000119209,img/planet2_right.png,2,Community 1,NA,TRUE,j,j,NA,NA,NA,4,7,"12,6,3,13,2,11,15,8,14,7,5,1,4,9,10"
14651,commdev-image-keyboard-response,531,1253394,learnblock2,1108.300000011921,img/planet3_left.png,3,Community 1,NA,TRUE,f,f,NA,NA,NA,4,7,"12,6,3,13,2,11,15,8,14,7,5,1,4,9,10"
14651,commdev-image-keyboard-response,532,1254647,learnblock2,849.6999999880791,img/planet12_right.png,12,Community 1,NA,TRUE,j,j,NA,NA,NA,4,7,"12,6,3,13,2,11,15,8,14,7,5,1,4,9,10"
14651,commdev-image-keyboard-response,533,1255899,learnblock2,992.9000000357628,img/planet3_left.png,3,Community 1,NA,TRUE,f,f,NA,NA,NA,4,7,"12,6,3,13,2,11,15,8,14,7,5,1,4,9,10"
14651,commdev-image-keyboard-response,534,1257152,learnblock2,1032.0999999642372,img/planet13_right.png,13,Community 1,NA,TRUE,j,j,NA,NA,NA,4,7,"12,6,3,13,2,11,15,8,14,7,5,1,4,9,10"
14651,commdev-image-keyboard-response,535,1258404,learnblock2,1102.699999988079,img/planet3_right.png,3,Community 1,NA,TRUE,j,j,NA,NA,NA,4,7,"12,6,3,13,2,11,15,8,14,7,5,1,4,9,10"
14651,commdev-image-keyboard-response,536,1259657,learnblock2,1112.6000000238419,img/planet12_right.png,12,Community 1,NA,TRUE,j,j,NA,NA,NA,4,7,"12,6,3,13,2,11,15,8,14,7,5,1,4,9,10"
14651,commdev-image-keyboard-response,537,1260910,learnblock2,1044.5999999642372,img/planet6_left.png,6,Community 1,NA,TRUE,f,f,NA,NA,NA,4,7,"12,6,3,13,2,11,15,8,14,7,5,1,4,9,10"
14651,commdev-image-keyboard-response,538,1262162,learnblock2,949.6999999880791,img/planet3_left.png,3,Community 1,NA,TRUE,f,f,NA,NA,NA,4,7,"12,6,3,13,2,11,15,8,14,7,5,1,4,9,10"
14651,commdev-image-keyboard-response,539,1263415,learnblock2,null,img/planet6_right.png,6,Community 1,NA,FALSE,null,j,NA,NA,NA,4,7,"12,6,3,13,2,11,15,8,14,7,5,1,4,9,10"
14651,commdev-image-keyboard-response,540,1264667,learnblock2,51.69999998807907,img/planet12_right.png,12,Community 1,NA,TRUE,j,j,NA,NA,NA,4,7,"12,6,3,13,2,11,15,8,14,7,5,1,4,9,10"
14651,commdev-image-keyboard-response,541,1265919,learnblock2,69.5,img/planet6_left.png,6,Community 1,NA,FALSE,j,f,NA,NA,NA,4,7,"12,6,3,13,2,11,15,8,14,7,5,1,4,9,10"
14651,commdev-image-keyboard-response,542,1267171,learnblock2,593.9000000357628,img/planet2_left.png,2,Community 1,NA,TRUE,f,f,NA,NA,NA,4,7,"12,6,3,13,2,11,15,8,14,7,5,1,4,9,10"
14651,commdev-image-keyboard-response,543,1268423,learnblock2,616.6000000238419,img/planet3_left.png,3,Community 1,NA,TRUE,f,f,NA,NA,NA,4,7,"12,6,3,13,2,11,15,8,14,7,5,1,4,9,10"
14651,commdev-image-keyboard-response,544,1269676,learnblock2,955.4000000357628,img/planet2_right.png,2,Community 1,NA,TRUE,j,j,NA,NA,NA,4,7,"12,6,3,13,2,11,15,8,14,7,5,1,4,9,10"
14651,commdev-image-keyboard-response,545,1270929,learnblock2,697.4000000357628,img/planet5_right.png,5,Community 3,NA,TRUE,j,j,NA,NA,NA,4,7,"12,6,3,13,2,11,15,8,14,7,5,1,4,9,10"
14651,commdev-image-keyboard-response,546,1272182,learnblock2,954.5999999642372,img/planet4_left.png,4,Community 3,NA,TRUE,f,f,NA,NA,NA,4,7,"12,6,3,13,2,11,15,8,14,7,5,1,4,9,10"
14651,commdev-image-keyboard-response,547,1273434,learnblock2,682.6999999880791,img/planet9_right.png,9,Community 3,NA,TRUE,j,j,NA,NA,NA,4,7,"12,6,3,13,2,11,15,8,14,7,5,1,4,9,10"
14651,commdev-image-keyboard-response,548,1274686,learnblock2,864.3999999761581,img/planet10_left.png,10,Community 3,NA,TRUE,f,f,NA,NA,NA,4,7,"12,6,3,13,2,11,15,8,14,7,5,1,4,9,10"
14651,commdev-image-keyboard-response,549,1275939,learnblock2,919.6000000238419,img/planet9_left.png,9,Community 3,NA,TRUE,f,f,NA,NA,NA,4,7,"12,6,3,13,2,11,15,8,14,7,5,1,4,9,10"
14651,commdev-image-keyboard-response,550,1277191,learnblock2,790.9000000357628,img/planet4_right.png,4,Community 3,NA,TRUE,j,j,NA,NA,NA,4,7,"12,6,3,13,2,11,15,8,14,7,5,1,4,9,10"
14651,commdev-image-keyboard-response,551,1278443,learnblock2,972.1000000238419,img/planet1_left.png,1,Community 3,NA,TRUE,f,f,NA,NA,NA,4,7,"12,6,3,13,2,11,15,8,14,7,5,1,4,9,10"
14651,commdev-image-keyboard-response,552,1279695,learnblock2,931.6999999880791,img/planet10_right.png,10,Community 3,NA,TRUE,j,j,NA,NA,NA,4,7,"12,6,3,13,2,11,15,8,14,7,5,1,4,9,10"
14651,commdev-image-keyboard-response,553,1280947,learnblock2,981.5,img/planet4_left.png,4,Community 3,NA,TRUE,f,f,NA,NA,NA,4,7,"12,6,3,13,2,11,15,8,14,7,5,1,4,9,10"
14651,commdev-image-keyboard-response,554,1282200,learnblock2,677.5999999642372,img/planet5_right.png,5,Community 3,NA,TRUE,j,j,NA,NA,NA,4,7,"12,6,3,13,2,11,15,8,14,7,5,1,4,9,10"
14651,commdev-image-keyboard-response,555,1283451,learnblock2,1119,img/planet9_right.png,9,Community 3,NA,FALSE,f,j,NA,NA,NA,4,7,"12,6,3,13,2,11,15,8,14,7,5,1,4,9,10"
14651,commdev-image-keyboard-response,556,1284704,learnblock2,652.6999999880791,img/planet1_right.png,1,Community 3,NA,TRUE,j,j,NA,NA,NA,4,7,"12,6,3,13,2,11,15,8,14,7,5,1,4,9,10"
14651,commdev-image-keyboard-response,557,1285956,learnblock2,1215.300000011921,img/planet8_left.png,8,Community 2,NA,TRUE,f,f,NA,NA,NA,4,7,"12,6,3,13,2,11,15,8,14,7,5,1,4,9,10"
14651,commdev-image-keyboard-response,558,1287209,learnblock2,999.9000000357628,img/planet7_right.png,7,Community 2,NA,TRUE,j,j,NA,NA,NA,4,7,"12,6,3,13,2,11,15,8,14,7,5,1,4,9,10"
14651,commdev-image-keyboard-response,559,1288461,learnblock2,null,img/planet8_right.png,8,Community 2,NA,FALSE,null,j,NA,NA,NA,4,7,"12,6,3,13,2,11,15,8,14,7,5,1,4,9,10"
14651,commdev-image-keyboard-response,560,1289714,learnblock2,105.10000002384186,img/planet14_left.png,14,Community 2,NA,FALSE,j,f,NA,NA,NA,4,7,"12,6,3,13,2,11,15,8,14,7,5,1,4,9,10"
14651,commdev-image-keyboard-response,561,1290966,learnblock2,1067.199999988079,img/planet15_left.png,15,Community 2,NA,TRUE,f,f,NA,NA,NA,4,7,"12,6,3,13,2,11,15,8,14,7,5,1,4,9,10"
14651,commdev-image-keyboard-response,562,1292218,learnblock2,928.7999999523163,img/planet11_right.png,11,Community 2,NA,TRUE,j,j,NA,NA,NA,4,7,"12,6,3,13,2,11,15,8,14,7,5,1,4,9,10"
14651,commdev-image-keyboard-response,563,1293470,learnblock2,796.0999999642372,img/planet7_left.png,7,Community 2,NA,TRUE,f,f,NA,NA,NA,4,7,"12,6,3,13,2,11,15,8,14,7,5,1,4,9,10"
14651,commdev-image-keyboard-response,564,1294723,learnblock2,812.6999999880791,img/planet14_left.png,14,Community 2,NA,FALSE,j,f,NA,NA,NA,4,7,"12,6,3,13,2,11,15,8,14,7,5,1,4,9,10"
14651,commdev-image-keyboard-response,565,1295975,learnblock2,538.5,img/planet7_right.png,7,Community 2,NA,FALSE,f,j,NA,NA,NA,4,7,"12,6,3,13,2,11,15,8,14,7,5,1,4,9,10"
14651,commdev-image-keyboard-response,566,1297228,learnblock2,null,img/planet8_left.png,8,Community 2,NA,FALSE,null,f,NA,NA,NA,4,7,"12,6,3,13,2,11,15,8,14,7,5,1,4,9,10"
14651,commdev-image-keyboard-response,567,1298480,learnblock2,43.10000002384186,img/planet15_right.png,15,Community 2,NA,FALSE,f,j,NA,NA,NA,4,7,"12,6,3,13,2,11,15,8,14,7,5,1,4,9,10"
14651,commdev-image-keyboard-response,568,1299733,learnblock2,null,img/planet7_right.png,7,Community 2,NA,FALSE,null,j,NA,NA,NA,4,7,"12,6,3,13,2,11,15,8,14,7,5,1,4,9,10"
14651,commdev-image-keyboard-response,569,1300986,learnblock2,70.40000003576279,img/planet8_right.png,8,Community 2,NA,TRUE,j,j,NA,NA,NA,4,7,"12,6,3,13,2,11,15,8,14,7,5,1,4,9,10"
14651,commdev-image-keyboard-response,570,1302238,learnblock2,395.69999998807907,img/planet14_right.png,14,Community 2,NA,TRUE,j,j,NA,NA,NA,4,7,"12,6,3,13,2,11,15,8,14,7,5,1,4,9,10"
14651,commdev-image-keyboard-response,571,1303489,learnblock2,1041.1000000238419,img/planet7_left.png,7,Community 2,NA,TRUE,f,f,NA,NA,NA,4,7,"12,6,3,13,2,11,15,8,14,7,5,1,4,9,10"
14651,commdev-image-keyboard-response,572,1304742,learnblock2,995.5,img/planet8_left.png,8,Community 2,NA,TRUE,f,f,NA,NA,NA,4,7,"12,6,3,13,2,11,15,8,14,7,5,1,4,9,10"
14651,commdev-image-keyboard-response,573,1305994,learnblock2,671.9000000357628,img/planet1_right.png,1,Community 3,NA,TRUE,j,j,NA,NA,NA,4,7,"12,6,3,13,2,11,15,8,14,7,5,1,4,9,10"
14651,commdev-image-keyboard-response,574,1307247,learnblock2,625.5,img/planet10_left.png,10,Community 3,NA,TRUE,f,f,NA,NA,NA,4,7,"12,6,3,13,2,11,15,8,14,7,5,1,4,9,10"
14651,commdev-image-keyboard-response,575,1308499,learnblock2,514.6000000238419,img/planet1_right.png,1,Community 3,NA,TRUE,j,j,NA,NA,NA,4,7,"12,6,3,13,2,11,15,8,14,7,5,1,4,9,10"
14651,commdev-image-keyboard-response,576,1309751,learnblock2,499.80000001192093,img/planet9_right.png,9,Community 3,NA,FALSE,f,j,NA,NA,NA,4,7,"12,6,3,13,2,11,15,8,14,7,5,1,4,9,10"
14651,commdev-image-keyboard-response,577,1311004,learnblock2,367.80000001192093,img/planet10_left.png,10,Community 3,NA,FALSE,j,f,NA,NA,NA,4,7,"12,6,3,13,2,11,15,8,14,7,5,1,4,9,10"
14651,commdev-image-keyboard-response,578,1312256,learnblock2,475.69999998807907,img/planet1_right.png,1,Community 3,NA,FALSE,f,j,NA,NA,NA,4,7,"12,6,3,13,2,11,15,8,14,7,5,1,4,9,10"
14651,commdev-image-keyboard-response,579,1313508,learnblock2,739.5,img/planet10_left.png,10,Community 3,NA,TRUE,f,f,NA,NA,NA,4,7,"12,6,3,13,2,11,15,8,14,7,5,1,4,9,10"
14651,commdev-image-keyboard-response,580,1314760,learnblock2,805.8000000119209,img/planet1_left.png,1,Community 3,NA,TRUE,f,f,NA,NA,NA,4,7,"12,6,3,13,2,11,15,8,14,7,5,1,4,9,10"
14651,commdev-image-keyboard-response,581,1316012,learnblock2,827.3999999761581,img/planet8_left.png,8,Community 2,NA,TRUE,f,f,NA,NA,NA,4,7,"12,6,3,13,2,11,15,8,14,7,5,1,4,9,10"
14651,commdev-image-keyboard-response,582,1317264,learnblock2,798.5999999642372,img/planet15_left.png,15,Community 2,NA,TRUE,f,f,NA,NA,NA,4,7,"12,6,3,13,2,11,15,8,14,7,5,1,4,9,10"
14651,commdev-image-keyboard-response,583,1318516,learnblock2,716.2000000476837,img/planet14_right.png,14,Community 2,NA,TRUE,j,j,NA,NA,NA,4,7,"12,6,3,13,2,11,15,8,14,7,5,1,4,9,10"
14651,commdev-image-keyboard-response,584,1319769,learnblock2,1091.6000000238419,img/planet8_right.png,8,Community 2,NA,TRUE,j,j,NA,NA,NA,4,7,"12,6,3,13,2,11,15,8,14,7,5,1,4,9,10"
14651,commdev-image-keyboard-response,585,1321021,learnblock2,866.6999999880791,img/planet7_right.png,7,Community 2,NA,TRUE,j,j,NA,NA,NA,4,7,"12,6,3,13,2,11,15,8,14,7,5,1,4,9,10"
14651,commdev-image-keyboard-response,586,1322274,learnblock2,1138.5,img/planet15_right.png,15,Community 2,NA,TRUE,j,j,NA,NA,NA,4,7,"12,6,3,13,2,11,15,8,14,7,5,1,4,9,10"
14651,commdev-image-keyboard-response,587,1323526,learnblock2,879.6000000238419,img/planet7_right.png,7,Community 2,NA,FALSE,f,j,NA,NA,NA,4,7,"12,6,3,13,2,11,15,8,14,7,5,1,4,9,10"
14651,commdev-image-keyboard-response,588,1324779,learnblock2,886.6999999880791,img/planet11_left.png,11,Community 2,NA,TRUE,f,f,NA,NA,NA,4,7,"12,6,3,13,2,11,15,8,14,7,5,1,4,9,10"
14651,commdev-image-keyboard-response,589,1326031,learnblock2,1201.5,img/planet13_left.png,13,Community 1,NA,TRUE,f,f,NA,NA,NA,4,7,"12,6,3,13,2,11,15,8,14,7,5,1,4,9,10"
14651,commdev-image-keyboard-response,590,1327284,learnblock2,805.9000000357628,img/planet11_left.png,11,Community 2,NA,TRUE,f,f,NA,NA,NA,4,7,"12,6,3,13,2,11,15,8,14,7,5,1,4,9,10"
14651,commdev-image-keyboard-response,591,1328537,learnblock2,702.4000000357628,img/planet7_right.png,7,Community 2,NA,TRUE,j,j,NA,NA,NA,4,7,"12,6,3,13,2,11,15,8,14,7,5,1,4,9,10"
14651,commdev-image-keyboard-response,592,1329789,learnblock2,842.4000000357628,img/planet11_left.png,11,Community 2,NA,TRUE,f,f,NA,NA,NA,4,7,"12,6,3,13,2,11,15,8,14,7,5,1,4,9,10"
14651,commdev-image-keyboard-response,593,1331041,learnblock2,816,img/planet14_right.png,14,Community 2,NA,TRUE,j,j,NA,NA,NA,4,7,"12,6,3,13,2,11,15,8,14,7,5,1,4,9,10"
14651,commdev-image-keyboard-response,594,1332293,learnblock2,864.5,img/planet8_left.png,8,Community 2,NA,TRUE,f,f,NA,NA,NA,4,7,"12,6,3,13,2,11,15,8,14,7,5,1,4,9,10"
14651,commdev-image-keyboard-response,595,1333545,learnblock2,743.8999999761581,img/planet7_right.png,7,Community 2,NA,TRUE,j,j,NA,NA,NA,4,7,"12,6,3,13,2,11,15,8,14,7,5,1,4,9,10"
14651,commdev-image-keyboard-response,596,1334796,learnblock2,748.8000000119209,img/planet15_left.png,15,Community 2,NA,TRUE,f,f,NA,NA,NA,4,7,"12,6,3,13,2,11,15,8,14,7,5,1,4,9,10"
14651,commdev-image-keyboard-response,597,1336049,learnblock2,656.3000000119209,img/planet14_right.png,14,Community 2,NA,TRUE,j,j,NA,NA,NA,4,7,"12,6,3,13,2,11,15,8,14,7,5,1,4,9,10"
14651,commdev-image-keyboard-response,598,1337302,learnblock2,1216.5,img/planet15_right.png,15,Community 2,NA,FALSE,f,j,NA,NA,NA,4,7,"12,6,3,13,2,11,15,8,14,7,5,1,4,9,10"
14651,commdev-image-keyboard-response,599,1338555,learnblock2,1187.300000011921,img/planet7_right.png,7,Community 2,NA,TRUE,j,j,NA,NA,NA,4,7,"12,6,3,13,2,11,15,8,14,7,5,1,4,9,10"
14651,commdev-image-keyboard-response,600,1339806,learnblock2,941,img/planet8_left.png,8,Community 2,NA,TRUE,f,f,NA,NA,NA,4,7,"12,6,3,13,2,11,15,8,14,7,5,1,4,9,10"
14651,commdev-image-keyboard-response,601,1341059,learnblock2,706.2000000476837,img/planet1_left.png,1,Community 3,NA,TRUE,f,f,NA,NA,NA,4,7,"12,6,3,13,2,11,15,8,14,7,5,1,4,9,10"
14651,commdev-image-keyboard-response,602,1342311,learnblock2,867.8999999761581,img/planet4_right.png,4,Community 3,NA,TRUE,j,j,NA,NA,NA,4,7,"12,6,3,13,2,11,15,8,14,7,5,1,4,9,10"
14651,commdev-image-keyboard-response,603,1343562,learnblock2,867.3999999761581,img/planet10_left.png,10,Community 3,NA,TRUE,f,f,NA,NA,NA,4,7,"12,6,3,13,2,11,15,8,14,7,5,1,4,9,10"
14651,commdev-image-keyboard-response,604,1344814,learnblock2,1046.5,img/planet4_left.png,4,Community 3,NA,TRUE,f,f,NA,NA,NA,4,7,"12,6,3,13,2,11,15,8,14,7,5,1,4,9,10"
14651,commdev-image-keyboard-response,605,1346066,learnblock2,1134.9000000357628,img/planet9_left.png,9,Community 3,NA,FALSE,j,f,NA,NA,NA,4,7,"12,6,3,13,2,11,15,8,14,7,5,1,4,9,10"
14651,commdev-image-keyboard-response,606,1347319,learnblock2,753.1000000238419,img/planet4_left.png,4,Community 3,NA,TRUE,f,f,NA,NA,NA,4,7,"12,6,3,13,2,11,15,8,14,7,5,1,4,9,10"
14651,commdev-image-keyboard-response,607,1348571,learnblock2,600.8000000119209,img/planet9_left.png,9,Community 3,NA,TRUE,f,f,NA,NA,NA,4,7,"12,6,3,13,2,11,15,8,14,7,5,1,4,9,10"
14651,commdev-image-keyboard-response,608,1349823,learnblock2,null,img/planet10_right.png,10,Community 3,NA,FALSE,null,j,NA,NA,NA,4,7,"12,6,3,13,2,11,15,8,14,7,5,1,4,9,10"
14651,commdev-image-keyboard-response,609,1351075,learnblock2,87.30000001192093,img/planet5_left.png,5,Community 3,NA,TRUE,f,f,NA,NA,NA,4,7,"12,6,3,13,2,11,15,8,14,7,5,1,4,9,10"
14651,commdev-image-keyboard-response,610,1352328,learnblock2,822,img/planet4_left.png,4,Community 3,NA,TRUE,f,f,NA,NA,NA,4,7,"12,6,3,13,2,11,15,8,14,7,5,1,4,9,10"
14651,commdev-image-keyboard-response,611,1353581,learnblock2,457.39999997615814,img/planet5_left.png,5,Community 3,NA,FALSE,j,f,NA,NA,NA,4,7,"12,6,3,13,2,11,15,8,14,7,5,1,4,9,10"
14651,commdev-image-keyboard-response,612,1354833,learnblock2,475.60000002384186,img/planet2_left.png,2,Community 1,NA,TRUE,f,f,NA,NA,NA,4,7,"12,6,3,13,2,11,15,8,14,7,5,1,4,9,10"
14651,commdev-image-keyboard-response,613,1356085,learnblock2,321.5,img/planet5_right.png,5,Community 3,NA,TRUE,j,j,NA,NA,NA,4,7,"12,6,3,13,2,11,15,8,14,7,5,1,4,9,10"
14651,commdev-image-keyboard-response,614,1357338,learnblock2,522.9000000357628,img/planet4_right.png,4,Community 3,NA,FALSE,f,j,NA,NA,NA,4,7,"12,6,3,13,2,11,15,8,14,7,5,1,4,9,10"
14651,commdev-image-keyboard-response,615,1358590,learnblock2,598.0999999642372,img/planet10_right.png,10,Community 3,NA,TRUE,j,j,NA,NA,NA,4,7,"12,6,3,13,2,11,15,8,14,7,5,1,4,9,10"
14651,commdev-image-keyboard-response,616,1359843,learnblock2,403.89999997615814,img/planet9_right.png,9,Community 3,NA,FALSE,f,j,NA,NA,NA,4,7,"12,6,3,13,2,11,15,8,14,7,5,1,4,9,10"
14651,commdev-image-keyboard-response,617,1361095,learnblock2,357.39999997615814,img/planet4_right.png,4,Community 3,NA,TRUE,j,j,NA,NA,NA,4,7,"12,6,3,13,2,11,15,8,14,7,5,1,4,9,10"
14651,commdev-image-keyboard-response,618,1362348,learnblock2,495.60000002384186,img/planet1_right.png,1,Community 3,NA,FALSE,f,j,NA,NA,NA,4,7,"12,6,3,13,2,11,15,8,14,7,5,1,4,9,10"
14651,commdev-image-keyboard-response,619,1363600,learnblock2,325.19999998807907,img/planet8_left.png,8,Community 2,NA,FALSE,j,f,NA,NA,NA,4,7,"12,6,3,13,2,11,15,8,14,7,5,1,4,9,10"
14651,commdev-image-keyboard-response,620,1364853,learnblock2,932.3000000119209,img/planet1_right.png,1,Community 3,NA,TRUE,j,j,NA,NA,NA,4,7,"12,6,3,13,2,11,15,8,14,7,5,1,4,9,10"
14651,commdev-image-keyboard-response,621,1366106,learnblock2,481.19999998807907,img/planet9_left.png,9,Community 3,NA,TRUE,f,f,NA,NA,NA,4,7,"12,6,3,13,2,11,15,8,14,7,5,1,4,9,10"
14651,commdev-image-keyboard-response,622,1367358,learnblock2,1111.8999999761581,img/planet4_right.png,4,Community 3,NA,TRUE,j,j,NA,NA,NA,4,7,"12,6,3,13,2,11,15,8,14,7,5,1,4,9,10"
14651,commdev-image-keyboard-response,623,1368609,learnblock2,918.5,img/planet10_right.png,10,Community 3,NA,TRUE,j,j,NA,NA,NA,4,7,"12,6,3,13,2,11,15,8,14,7,5,1,4,9,10"
14651,commdev-image-keyboard-response,624,1369862,learnblock2,1029,img/planet9_right.png,9,Community 3,NA,TRUE,j,j,NA,NA,NA,4,7,"12,6,3,13,2,11,15,8,14,7,5,1,4,9,10"
14651,commdev-image-keyboard-response,625,1371114,learnblock2,910,img/planet1_right.png,1,Community 3,NA,TRUE,j,j,NA,NA,NA,4,7,"12,6,3,13,2,11,15,8,14,7,5,1,4,9,10"
14651,commdev-image-keyboard-response,626,1372366,learnblock2,669.2999999523163,img/planet8_left.png,8,Community 2,NA,TRUE,f,f,NA,NA,NA,4,7,"12,6,3,13,2,11,15,8,14,7,5,1,4,9,10"
14651,commdev-image-keyboard-response,627,1373618,learnblock2,652.1999999880791,img/planet7_left.png,7,Community 2,NA,TRUE,f,f,NA,NA,NA,4,7,"12,6,3,13,2,11,15,8,14,7,5,1,4,9,10"
14651,commdev-image-keyboard-response,628,1374871,learnblock2,860.8999999761581,img/planet15_right.png,15,Community 2,NA,TRUE,j,j,NA,NA,NA,4,7,"12,6,3,13,2,11,15,8,14,7,5,1,4,9,10"
14651,commdev-image-keyboard-response,629,1376124,learnblock2,721.3000000119209,img/planet7_left.png,7,Community 2,NA,TRUE,f,f,NA,NA,NA,4,7,"12,6,3,13,2,11,15,8,14,7,5,1,4,9,10"
14651,commdev-image-keyboard-response,630,1377377,learnblock2,721.6000000238419,img/planet15_left.png,15,Community 2,NA,TRUE,f,f,NA,NA,NA,4,7,"12,6,3,13,2,11,15,8,14,7,5,1,4,9,10"
14651,commdev-image-keyboard-response,631,1378628,learnblock2,752.6999999880791,img/planet7_right.png,7,Community 2,NA,TRUE,j,j,NA,NA,NA,4,7,"12,6,3,13,2,11,15,8,14,7,5,1,4,9,10"
14651,commdev-image-keyboard-response,632,1379881,learnblock2,1127.4000000357628,img/planet15_right.png,15,Community 2,NA,TRUE,j,j,NA,NA,NA,4,7,"12,6,3,13,2,11,15,8,14,7,5,1,4,9,10"
14651,commdev-image-keyboard-response,633,1381133,learnblock2,701.3999999761581,img/planet7_left.png,7,Community 2,NA,TRUE,f,f,NA,NA,NA,4,7,"12,6,3,13,2,11,15,8,14,7,5,1,4,9,10"
14651,commdev-image-keyboard-response,634,1382386,learnblock2,919.3000000119209,img/planet15_left.png,15,Community 2,NA,TRUE,f,f,NA,NA,NA,4,7,"12,6,3,13,2,11,15,8,14,7,5,1,4,9,10"
14651,commdev-image-keyboard-response,635,1383639,learnblock2,1044.800000011921,img/planet14_left.png,14,Community 2,NA,TRUE,f,f,NA,NA,NA,4,7,"12,6,3,13,2,11,15,8,14,7,5,1,4,9,10"
14651,commdev-image-keyboard-response,636,1384891,learnblock2,790.4000000357628,img/planet11_left.png,11,Community 2,NA,TRUE,f,f,NA,NA,NA,4,7,"12,6,3,13,2,11,15,8,14,7,5,1,4,9,10"
14651,commdev-image-keyboard-response,637,1386144,learnblock2,844.1999999880791,img/planet13_right.png,13,Community 1,NA,TRUE,j,j,NA,NA,NA,4,7,"12,6,3,13,2,11,15,8,14,7,5,1,4,9,10"
14651,commdev-image-keyboard-response,638,1387395,learnblock2,987.9000000357628,img/planet6_right.png,6,Community 1,NA,TRUE,j,j,NA,NA,NA,4,7,"12,6,3,13,2,11,15,8,14,7,5,1,4,9,10"
14651,commdev-image-keyboard-response,639,1388648,learnblock2,685.4000000357628,img/planet13_left.png,13,Community 1,NA,TRUE,f,f,NA,NA,NA,4,7,"12,6,3,13,2,11,15,8,14,7,5,1,4,9,10"
14651,commdev-image-keyboard-response,640,1389901,learnblock2,929,img/planet6_right.png,6,Community 1,NA,TRUE,j,j,NA,NA,NA,4,7,"12,6,3,13,2,11,15,8,14,7,5,1,4,9,10"
14651,commdev-image-keyboard-response,641,1391153,learnblock2,1020.1000000238419,img/planet12_right.png,12,Community 1,NA,TRUE,j,j,NA,NA,NA,4,7,"12,6,3,13,2,11,15,8,14,7,5,1,4,9,10"
14651,commdev-image-keyboard-response,642,1392406,learnblock2,990.9000000357628,img/planet13_right.png,13,Community 1,NA,TRUE,j,j,NA,NA,NA,4,7,"12,6,3,13,2,11,15,8,14,7,5,1,4,9,10"
14651,commdev-image-keyboard-response,643,1393658,learnblock2,818,img/planet12_right.png,12,Community 1,NA,TRUE,j,j,NA,NA,NA,4,7,"12,6,3,13,2,11,15,8,14,7,5,1,4,9,10"
14651,commdev-image-keyboard-response,644,1394910,learnblock2,837.1000000238419,img/planet6_left.png,6,Community 1,NA,TRUE,f,f,NA,NA,NA,4,7,"12,6,3,13,2,11,15,8,14,7,5,1,4,9,10"
14651,commdev-image-keyboard-response,645,1396163,learnblock2,889.3000000119209,img/planet13_left.png,13,Community 1,NA,TRUE,f,f,NA,NA,NA,4,7,"12,6,3,13,2,11,15,8,14,7,5,1,4,9,10"
14651,commdev-image-keyboard-response,646,1397416,learnblock2,734.8000000119209,img/planet12_right.png,12,Community 1,NA,TRUE,j,j,NA,NA,NA,4,7,"12,6,3,13,2,11,15,8,14,7,5,1,4,9,10"
14651,commdev-image-keyboard-response,647,1398669,learnblock2,876.8000000119209,img/planet13_right.png,13,Community 1,NA,TRUE,j,j,NA,NA,NA,4,7,"12,6,3,13,2,11,15,8,14,7,5,1,4,9,10"
14651,commdev-image-keyboard-response,648,1399921,learnblock2,982.5,img/planet3_right.png,3,Community 1,NA,TRUE,j,j,NA,NA,NA,4,7,"12,6,3,13,2,11,15,8,14,7,5,1,4,9,10"
14651,commdev-image-keyboard-response,649,1401173,learnblock2,1155.2000000476837,img/planet6_right.png,6,Community 1,NA,TRUE,j,j,NA,NA,NA,4,7,"12,6,3,13,2,11,15,8,14,7,5,1,4,9,10"
14651,commdev-image-keyboard-response,650,1402426,learnblock2,875.5999999642372,img/planet2_right.png,2,Community 1,NA,TRUE,j,j,NA,NA,NA,4,7,"12,6,3,13,2,11,15,8,14,7,5,1,4,9,10"
14651,commdev-image-keyboard-response,651,1403679,learnblock2,706.9000000357628,img/planet5_right.png,5,Community 3,NA,TRUE,j,j,NA,NA,NA,4,7,"12,6,3,13,2,11,15,8,14,7,5,1,4,9,10"
14651,commdev-image-keyboard-response,652,1404930,learnblock2,971.8000000119209,img/planet10_right.png,10,Community 3,NA,FALSE,f,j,NA,NA,NA,4,7,"12,6,3,13,2,11,15,8,14,7,5,1,4,9,10"
14651,commdev-image-keyboard-response,653,1406182,learnblock2,866.4000000357628,img/planet9_left.png,9,Community 3,NA,TRUE,f,f,NA,NA,NA,4,7,"12,6,3,13,2,11,15,8,14,7,5,1,4,9,10"
14651,commdev-image-keyboard-response,654,1407435,learnblock2,784.1000000238419,img/planet5_left.png,5,Community 3,NA,TRUE,f,f,NA,NA,NA,4,7,"12,6,3,13,2,11,15,8,14,7,5,1,4,9,10"
14651,commdev-image-keyboard-response,655,1408687,learnblock2,683.6999999880791,img/planet2_left.png,2,Community 1,NA,TRUE,f,f,NA,NA,NA,4,7,"12,6,3,13,2,11,15,8,14,7,5,1,4,9,10"
14651,commdev-image-keyboard-response,656,1409940,learnblock2,1131.2999999523163,img/planet6_right.png,6,Community 1,NA,TRUE,j,j,NA,NA,NA,4,7,"12,6,3,13,2,11,15,8,14,7,5,1,4,9,10"
14651,commdev-image-keyboard-response,657,1411192,learnblock2,975.1999999880791,img/planet3_right.png,3,Community 1,NA,TRUE,j,j,NA,NA,NA,4,7,"12,6,3,13,2,11,15,8,14,7,5,1,4,9,10"
14651,commdev-image-keyboard-response,658,1412445,learnblock2,919.5,img/planet12_left.png,12,Community 1,NA,TRUE,f,f,NA,NA,NA,4,7,"12,6,3,13,2,11,15,8,14,7,5,1,4,9,10"
14651,commdev-image-keyboard-response,659,1413696,learnblock2,1164.2000000476837,img/planet3_left.png,3,Community 1,NA,TRUE,f,f,NA,NA,NA,4,7,"12,6,3,13,2,11,15,8,14,7,5,1,4,9,10"
14651,commdev-image-keyboard-response,660,1414948,learnblock2,746.9000000357628,img/planet2_right.png,2,Community 1,NA,TRUE,j,j,NA,NA,NA,4,7,"12,6,3,13,2,11,15,8,14,7,5,1,4,9,10"
14651,commdev-image-keyboard-response,661,1416200,learnblock2,990.5999999642372,img/planet12_right.png,12,Community 1,NA,TRUE,j,j,NA,NA,NA,4,7,"12,6,3,13,2,11,15,8,14,7,5,1,4,9,10"
14651,commdev-image-keyboard-response,662,1417451,learnblock2,748.8000000119209,img/planet13_right.png,13,Community 1,NA,TRUE,j,j,NA,NA,NA,4,7,"12,6,3,13,2,11,15,8,14,7,5,1,4,9,10"
14651,commdev-image-keyboard-response,663,1418705,learnblock2,836.5,img/planet11_right.png,11,Community 2,NA,TRUE,j,j,NA,NA,NA,4,7,"12,6,3,13,2,11,15,8,14,7,5,1,4,9,10"
14651,commdev-image-keyboard-response,664,1419957,learnblock2,687.1000000238419,img/planet15_left.png,15,Community 2,NA,FALSE,j,f,NA,NA,NA,4,7,"12,6,3,13,2,11,15,8,14,7,5,1,4,9,10"
14651,commdev-image-keyboard-response,665,1421210,learnblock2,855.5999999642372,img/planet14_right.png,14,Community 2,NA,TRUE,j,j,NA,NA,NA,4,7,"12,6,3,13,2,11,15,8,14,7,5,1,4,9,10"
14651,commdev-image-keyboard-response,666,1422462,learnblock2,978.1999999880791,img/planet15_left.png,15,Community 2,NA,TRUE,f,f,NA,NA,NA,4,7,"12,6,3,13,2,11,15,8,14,7,5,1,4,9,10"
14651,commdev-image-keyboard-response,667,1423715,learnblock2,868.8000000119209,img/planet11_left.png,11,Community 2,NA,TRUE,f,f,NA,NA,NA,4,7,"12,6,3,13,2,11,15,8,14,7,5,1,4,9,10"
14651,commdev-image-keyboard-response,668,1424967,learnblock2,734.8999999761581,img/planet7_left.png,7,Community 2,NA,TRUE,f,f,NA,NA,NA,4,7,"12,6,3,13,2,11,15,8,14,7,5,1,4,9,10"
14651,commdev-image-keyboard-response,669,1426220,learnblock2,798.6999999880791,img/planet14_right.png,14,Community 2,NA,TRUE,j,j,NA,NA,NA,4,7,"12,6,3,13,2,11,15,8,14,7,5,1,4,9,10"
14651,commdev-image-keyboard-response,670,1427473,learnblock2,809.5,img/planet15_right.png,15,Community 2,NA,TRUE,j,j,NA,NA,NA,4,7,"12,6,3,13,2,11,15,8,14,7,5,1,4,9,10"
14651,commdev-image-keyboard-response,671,1428725,learnblock2,435.30000001192093,img/planet11_left.png,11,Community 2,NA,TRUE,f,f,NA,NA,NA,4,7,"12,6,3,13,2,11,15,8,14,7,5,1,4,9,10"
14651,commdev-image-keyboard-response,672,1429977,learnblock2,629,img/planet13_left.png,13,Community 1,NA,FALSE,j,f,NA,NA,NA,4,7,"12,6,3,13,2,11,15,8,14,7,5,1,4,9,10"
14651,commdev-image-keyboard-response,673,1431229,learnblock2,805.5999999642372,img/planet12_left.png,12,Community 1,NA,TRUE,f,f,NA,NA,NA,4,7,"12,6,3,13,2,11,15,8,14,7,5,1,4,9,10"
14651,commdev-image-keyboard-response,674,1432481,learnblock2,637.8000000119209,img/planet2_left.png,2,Community 1,NA,TRUE,f,f,NA,NA,NA,4,7,"12,6,3,13,2,11,15,8,14,7,5,1,4,9,10"
14651,commdev-image-keyboard-response,675,1433734,learnblock2,803.6000000238419,img/planet5_left.png,5,Community 3,NA,TRUE,f,f,NA,NA,NA,4,7,"12,6,3,13,2,11,15,8,14,7,5,1,4,9,10"
14651,commdev-image-keyboard-response,676,1434986,learnblock2,638.6999999880791,img/planet2_right.png,2,Community 1,NA,FALSE,f,j,NA,NA,NA,4,7,"12,6,3,13,2,11,15,8,14,7,5,1,4,9,10"
14651,commdev-image-keyboard-response,677,1436237,learnblock2,984.8000000119209,img/planet5_left.png,5,Community 3,NA,TRUE,f,f,NA,NA,NA,4,7,"12,6,3,13,2,11,15,8,14,7,5,1,4,9,10"
14651,commdev-image-keyboard-response,678,1437490,learnblock2,704.8999999761581,img/planet4_right.png,4,Community 3,NA,TRUE,j,j,NA,NA,NA,4,7,"12,6,3,13,2,11,15,8,14,7,5,1,4,9,10"
14651,commdev-image-keyboard-response,679,1438741,learnblock2,733.6999999880791,img/planet9_left.png,9,Community 3,NA,TRUE,f,f,NA,NA,NA,4,7,"12,6,3,13,2,11,15,8,14,7,5,1,4,9,10"
14651,commdev-image-keyboard-response,680,1439994,learnblock2,847.4000000357628,img/planet5_right.png,5,Community 3,NA,TRUE,j,j,NA,NA,NA,4,7,"12,6,3,13,2,11,15,8,14,7,5,1,4,9,10"
14651,commdev-image-keyboard-response,681,1441246,learnblock2,963,img/planet4_right.png,4,Community 3,NA,TRUE,j,j,NA,NA,NA,4,7,"12,6,3,13,2,11,15,8,14,7,5,1,4,9,10"
14651,commdev-image-keyboard-response,682,1442499,learnblock2,899.8999999761581,img/planet1_right.png,1,Community 3,NA,TRUE,j,j,NA,NA,NA,4,7,"12,6,3,13,2,11,15,8,14,7,5,1,4,9,10"
14651,commdev-image-keyboard-response,683,1443751,learnblock2,1216.4000000357628,img/planet10_right.png,10,Community 3,NA,TRUE,j,j,NA,NA,NA,4,7,"12,6,3,13,2,11,15,8,14,7,5,1,4,9,10"
14651,commdev-image-keyboard-response,684,1445004,learnblock2,1015.1999999880791,img/planet9_right.png,9,Community 3,NA,TRUE,j,j,NA,NA,NA,4,7,"12,6,3,13,2,11,15,8,14,7,5,1,4,9,10"
14651,commdev-image-keyboard-response,685,1446257,learnblock2,669.6999999880791,img/planet10_right.png,10,Community 3,NA,TRUE,j,j,NA,NA,NA,4,7,"12,6,3,13,2,11,15,8,14,7,5,1,4,9,10"
14651,commdev-image-keyboard-response,686,1447509,learnblock2,1084,img/planet4_left.png,4,Community 3,NA,TRUE,f,f,NA,NA,NA,4,7,"12,6,3,13,2,11,15,8,14,7,5,1,4,9,10"
14651,commdev-image-keyboard-response,687,1448761,learnblock2,924,img/planet9_left.png,9,Community 3,NA,TRUE,f,f,NA,NA,NA,4,7,"12,6,3,13,2,11,15,8,14,7,5,1,4,9,10"
14651,commdev-image-keyboard-response,688,1450014,learnblock2,1045.300000011921,img/planet1_right.png,1,Community 3,NA,TRUE,j,j,NA,NA,NA,4,7,"12,6,3,13,2,11,15,8,14,7,5,1,4,9,10"
14651,commdev-image-keyboard-response,689,1451266,learnblock2,976.5,img/planet8_left.png,8,Community 2,NA,TRUE,f,f,NA,NA,NA,4,7,"12,6,3,13,2,11,15,8,14,7,5,1,4,9,10"
14651,commdev-image-keyboard-response,690,1452518,learnblock2,1209.300000011921,img/planet14_left.png,14,Community 2,NA,TRUE,f,f,NA,NA,NA,4,7,"12,6,3,13,2,11,15,8,14,7,5,1,4,9,10"
14651,commdev-image-keyboard-response,691,1453771,learnblock2,750.8000000119209,img/planet11_right.png,11,Community 2,NA,TRUE,j,j,NA,NA,NA,4,7,"12,6,3,13,2,11,15,8,14,7,5,1,4,9,10"
14651,commdev-image-keyboard-response,692,1455023,learnblock2,1061.300000011921,img/planet15_right.png,15,Community 2,NA,TRUE,j,j,NA,NA,NA,4,7,"12,6,3,13,2,11,15,8,14,7,5,1,4,9,10"
14651,commdev-image-keyboard-response,693,1456275,learnblock2,797.8000000119209,img/planet8_left.png,8,Community 2,NA,TRUE,f,f,NA,NA,NA,4,7,"12,6,3,13,2,11,15,8,14,7,5,1,4,9,10"
14651,commdev-image-keyboard-response,694,1457527,learnblock2,1240.1000000238419,img/planet15_right.png,15,Community 2,NA,TRUE,j,j,NA,NA,NA,4,7,"12,6,3,13,2,11,15,8,14,7,5,1,4,9,10"
14651,commdev-image-keyboard-response,695,1458780,learnblock2,822.1000000238419,img/planet7_left.png,7,Community 2,NA,TRUE,f,f,NA,NA,NA,4,7,"12,6,3,13,2,11,15,8,14,7,5,1,4,9,10"
14651,commdev-image-keyboard-response,696,1460033,learnblock2,1056.1000000238419,img/planet8_left.png,8,Community 2,NA,TRUE,f,f,NA,NA,NA,4,7,"12,6,3,13,2,11,15,8,14,7,5,1,4,9,10"
14651,commdev-image-keyboard-response,697,1461285,learnblock2,1072.5,img/planet7_left.png,7,Community 2,NA,FALSE,j,f,NA,NA,NA,4,7,"12,6,3,13,2,11,15,8,14,7,5,1,4,9,10"
14651,commdev-image-keyboard-response,698,1462538,learnblock2,680.5,img/planet14_left.png,14,Community 2,NA,TRUE,f,f,NA,NA,NA,4,7,"12,6,3,13,2,11,15,8,14,7,5,1,4,9,10"
14651,commdev-image-keyboard-response,699,1463790,learnblock2,555.4000000357628,img/planet8_left.png,8,Community 2,NA,TRUE,f,f,NA,NA,NA,4,7,"12,6,3,13,2,11,15,8,14,7,5,1,4,9,10"
14651,commdev-image-keyboard-response,700,1465043,learnblock2,null,img/planet7_left.png,7,Community 2,NA,FALSE,null,f,NA,NA,NA,4,7,"12,6,3,13,2,11,15,8,14,7,5,1,4,9,10"
14651,commdev-image-keyboard-response,701,1466294,learnblock2,28.69999998807907,img/planet15_right.png,15,Community 2,NA,FALSE,f,j,NA,NA,NA,4,7,"12,6,3,13,2,11,15,8,14,7,5,1,4,9,10"
14651,commdev-image-keyboard-response,702,1467546,learnblock2,258.80000001192093,img/planet11_right.png,11,Community 2,NA,TRUE,j,j,NA,NA,NA,4,7,"12,6,3,13,2,11,15,8,14,7,5,1,4,9,10"
14651,commdev-image-keyboard-response,703,1468799,learnblock2,131.30000001192093,img/planet7_left.png,7,Community 2,NA,FALSE,j,f,NA,NA,NA,4,7,"12,6,3,13,2,11,15,8,14,7,5,1,4,9,10"
14651,commdev-image-keyboard-response,704,1470052,learnblock2,802.1999999880791,img/planet11_right.png,11,Community 2,NA,TRUE,j,j,NA,NA,NA,4,7,"12,6,3,13,2,11,15,8,14,7,5,1,4,9,10"
14651,commdev-image-keyboard-response,705,1471305,learnblock2,675.8999999761581,img/planet14_right.png,14,Community 2,NA,FALSE,f,j,NA,NA,NA,4,7,"12,6,3,13,2,11,15,8,14,7,5,1,4,9,10"
14651,commdev-image-keyboard-response,706,1472557,learnblock2,1034.7000000476837,img/planet11_right.png,11,Community 2,NA,FALSE,f,j,NA,NA,NA,4,7,"12,6,3,13,2,11,15,8,14,7,5,1,4,9,10"
14651,commdev-image-keyboard-response,707,1473808,learnblock2,821.1999999880791,img/planet15_right.png,15,Community 2,NA,FALSE,f,j,NA,NA,NA,4,7,"12,6,3,13,2,11,15,8,14,7,5,1,4,9,10"
14651,commdev-image-keyboard-response,708,1475060,learnblock2,909.7999999523163,img/planet11_left.png,11,Community 2,NA,TRUE,f,f,NA,NA,NA,4,7,"12,6,3,13,2,11,15,8,14,7,5,1,4,9,10"
14651,commdev-image-keyboard-response,709,1476313,learnblock2,502.89999997615814,img/planet15_left.png,15,Community 2,NA,FALSE,j,f,NA,NA,NA,4,7,"12,6,3,13,2,11,15,8,14,7,5,1,4,9,10"
14651,commdev-image-keyboard-response,710,1477565,learnblock2,359.10000002384186,img/planet14_left.png,14,Community 2,NA,TRUE,f,f,NA,NA,NA,4,7,"12,6,3,13,2,11,15,8,14,7,5,1,4,9,10"
14651,commdev-image-keyboard-response,711,1478818,learnblock2,462,img/planet11_left.png,11,Community 2,NA,FALSE,j,f,NA,NA,NA,4,7,"12,6,3,13,2,11,15,8,14,7,5,1,4,9,10"
14651,commdev-image-keyboard-response,712,1480071,learnblock2,1123.5,img/planet7_right.png,7,Community 2,NA,TRUE,j,j,NA,NA,NA,4,7,"12,6,3,13,2,11,15,8,14,7,5,1,4,9,10"
14651,commdev-image-keyboard-response,713,1481322,learnblock2,744.3999999761581,img/planet14_left.png,14,Community 2,NA,TRUE,f,f,NA,NA,NA,4,7,"12,6,3,13,2,11,15,8,14,7,5,1,4,9,10"
14651,commdev-image-keyboard-response,714,1482575,learnblock2,580,img/planet15_right.png,15,Community 2,NA,TRUE,j,j,NA,NA,NA,4,7,"12,6,3,13,2,11,15,8,14,7,5,1,4,9,10"
14651,commdev-image-keyboard-response,715,1483828,learnblock2,656.5,img/planet8_left.png,8,Community 2,NA,TRUE,f,f,NA,NA,NA,4,7,"12,6,3,13,2,11,15,8,14,7,5,1,4,9,10"
14651,commdev-image-keyboard-response,716,1485080,learnblock2,466,img/planet14_right.png,14,Community 2,NA,TRUE,j,j,NA,NA,NA,4,7,"12,6,3,13,2,11,15,8,14,7,5,1,4,9,10"
14651,commdev-image-keyboard-response,717,1486332,learnblock2,435,img/planet8_right.png,8,Community 2,NA,FALSE,f,j,NA,NA,NA,4,7,"12,6,3,13,2,11,15,8,14,7,5,1,4,9,10"
14651,commdev-image-keyboard-response,718,1487585,learnblock2,808.2000000476837,img/planet1_right.png,1,Community 3,NA,TRUE,j,j,NA,NA,NA,4,7,"12,6,3,13,2,11,15,8,14,7,5,1,4,9,10"
14651,commdev-image-keyboard-response,719,1488838,learnblock2,887.6999999880791,img/planet9_left.png,9,Community 3,NA,TRUE,f,f,NA,NA,NA,4,7,"12,6,3,13,2,11,15,8,14,7,5,1,4,9,10"
14651,commdev-image-keyboard-response,720,1490091,learnblock2,957.6999999880791,img/planet4_left.png,4,Community 3,NA,TRUE,f,f,NA,NA,NA,4,7,"12,6,3,13,2,11,15,8,14,7,5,1,4,9,10"
14651,commdev-image-keyboard-response,721,1491343,learnblock2,718.3999999761581,img/planet5_right.png,5,Community 3,NA,TRUE,j,j,NA,NA,NA,4,7,"12,6,3,13,2,11,15,8,14,7,5,1,4,9,10"
14651,commdev-image-keyboard-response,722,1492595,learnblock2,826.3999999761581,img/planet10_right.png,10,Community 3,NA,TRUE,j,j,NA,NA,NA,4,7,"12,6,3,13,2,11,15,8,14,7,5,1,4,9,10"
14651,commdev-image-keyboard-response,723,1493848,learnblock2,821.1999999880791,img/planet9_left.png,9,Community 3,NA,TRUE,f,f,NA,NA,NA,4,7,"12,6,3,13,2,11,15,8,14,7,5,1,4,9,10"
14651,commdev-image-keyboard-response,724,1495101,learnblock2,646.0999999642372,img/planet5_right.png,5,Community 3,NA,TRUE,j,j,NA,NA,NA,4,7,"12,6,3,13,2,11,15,8,14,7,5,1,4,9,10"
14651,commdev-image-keyboard-response,725,1496354,learnblock2,692.1999999880791,img/planet4_left.png,4,Community 3,NA,TRUE,f,f,NA,NA,NA,4,7,"12,6,3,13,2,11,15,8,14,7,5,1,4,9,10"
14651,commdev-image-keyboard-response,726,1497606,learnblock2,800,img/planet9_right.png,9,Community 3,NA,TRUE,j,j,NA,NA,NA,4,7,"12,6,3,13,2,11,15,8,14,7,5,1,4,9,10"
14651,commdev-image-keyboard-response,727,1498858,learnblock2,null,img/planet4_right.png,4,Community 3,NA,FALSE,null,j,NA,NA,NA,4,7,"12,6,3,13,2,11,15,8,14,7,5,1,4,9,10"
14651,commdev-image-keyboard-response,728,1500111,learnblock2,44.60000002384186,img/planet1_right.png,1,Community 3,NA,TRUE,j,j,NA,NA,NA,4,7,"12,6,3,13,2,11,15,8,14,7,5,1,4,9,10"
14651,commdev-image-keyboard-response,729,1501363,learnblock2,826.5999999642372,img/planet4_left.png,4,Community 3,NA,TRUE,f,f,NA,NA,NA,4,7,"12,6,3,13,2,11,15,8,14,7,5,1,4,9,10"
14651,commdev-image-keyboard-response,730,1502614,learnblock2,949.3000000119209,img/planet1_left.png,1,Community 3,NA,TRUE,f,f,NA,NA,NA,4,7,"12,6,3,13,2,11,15,8,14,7,5,1,4,9,10"
14651,commdev-image-keyboard-response,731,1503867,learnblock2,847.2000000476837,img/planet10_left.png,10,Community 3,NA,TRUE,f,f,NA,NA,NA,4,7,"12,6,3,13,2,11,15,8,14,7,5,1,4,9,10"
14651,commdev-image-keyboard-response,732,1505120,learnblock2,928.6999999880791,img/planet9_left.png,9,Community 3,NA,TRUE,f,f,NA,NA,NA,4,7,"12,6,3,13,2,11,15,8,14,7,5,1,4,9,10"
14651,commdev-image-keyboard-response,733,1506373,learnblock2,813.1000000238419,img/planet10_left.png,10,Community 3,NA,TRUE,f,f,NA,NA,NA,4,7,"12,6,3,13,2,11,15,8,14,7,5,1,4,9,10"
14651,commdev-image-keyboard-response,734,1507625,learnblock2,808.9000000357628,img/planet9_right.png,9,Community 3,NA,TRUE,j,j,NA,NA,NA,4,7,"12,6,3,13,2,11,15,8,14,7,5,1,4,9,10"
14651,commdev-image-keyboard-response,735,1508878,learnblock2,1115.699999988079,img/planet10_right.png,10,Community 3,NA,TRUE,j,j,NA,NA,NA,4,7,"12,6,3,13,2,11,15,8,14,7,5,1,4,9,10"
14651,commdev-image-keyboard-response,736,1510130,learnblock2,1179.8999999761581,img/planet5_right.png,5,Community 3,NA,TRUE,j,j,NA,NA,NA,4,7,"12,6,3,13,2,11,15,8,14,7,5,1,4,9,10"
14651,commdev-image-keyboard-response,737,1511382,learnblock2,880,img/planet4_left.png,4,Community 3,NA,TRUE,f,f,NA,NA,NA,4,7,"12,6,3,13,2,11,15,8,14,7,5,1,4,9,10"
14651,commdev-image-keyboard-response,738,1512635,learnblock2,null,img/planet5_right.png,5,Community 3,NA,FALSE,null,j,NA,NA,NA,4,7,"12,6,3,13,2,11,15,8,14,7,5,1,4,9,10"
14651,commdev-image-keyboard-response,739,1513887,learnblock2,36.200000047683716,img/planet10_left.png,10,Community 3,NA,FALSE,j,f,NA,NA,NA,4,7,"12,6,3,13,2,11,15,8,14,7,5,1,4,9,10"
14651,commdev-image-keyboard-response,740,1515140,learnblock2,899.3000000119209,img/planet1_left.png,1,Community 3,NA,TRUE,f,f,NA,NA,NA,4,7,"12,6,3,13,2,11,15,8,14,7,5,1,4,9,10"
14651,commdev-image-keyboard-response,741,1516393,learnblock2,741.6999999880791,img/planet8_right.png,8,Community 2,NA,TRUE,j,j,NA,NA,NA,4,7,"12,6,3,13,2,11,15,8,14,7,5,1,4,9,10"
14651,commdev-image-keyboard-response,742,1517645,learnblock2,887.6000000238419,img/planet1_right.png,1,Community 3,NA,TRUE,j,j,NA,NA,NA,4,7,"12,6,3,13,2,11,15,8,14,7,5,1,4,9,10"
14651,commdev-image-keyboard-response,743,1518896,learnblock2,716.9000000357628,img/planet10_right.png,10,Community 3,NA,TRUE,j,j,NA,NA,NA,4,7,"12,6,3,13,2,11,15,8,14,7,5,1,4,9,10"
14651,commdev-image-keyboard-response,744,1520149,learnblock2,653.3000000119209,img/planet4_right.png,4,Community 3,NA,TRUE,j,j,NA,NA,NA,4,7,"12,6,3,13,2,11,15,8,14,7,5,1,4,9,10"
14651,commdev-image-keyboard-response,745,1521402,learnblock2,675.1999999880791,img/planet1_right.png,1,Community 3,NA,TRUE,j,j,NA,NA,NA,4,7,"12,6,3,13,2,11,15,8,14,7,5,1,4,9,10"
14651,commdev-image-keyboard-response,746,1522654,learnblock2,585,img/planet9_left.png,9,Community 3,NA,FALSE,j,f,NA,NA,NA,4,7,"12,6,3,13,2,11,15,8,14,7,5,1,4,9,10"
14651,commdev-image-keyboard-response,747,1523906,learnblock2,709.5999999642372,img/planet1_left.png,1,Community 3,NA,TRUE,f,f,NA,NA,NA,4,7,"12,6,3,13,2,11,15,8,14,7,5,1,4,9,10"
14651,commdev-image-keyboard-response,748,1525159,learnblock2,830.5,img/planet4_left.png,4,Community 3,NA,TRUE,f,f,NA,NA,NA,4,7,"12,6,3,13,2,11,15,8,14,7,5,1,4,9,10"
14651,commdev-image-keyboard-response,749,1526412,learnblock2,1017,img/planet9_right.png,9,Community 3,NA,TRUE,j,j,NA,NA,NA,4,7,"12,6,3,13,2,11,15,8,14,7,5,1,4,9,10"
14651,commdev-image-keyboard-response,750,1527664,learnblock2,686.1999999880791,img/planet10_right.png,10,Community 3,NA,TRUE,j,j,NA,NA,NA,4,7,"12,6,3,13,2,11,15,8,14,7,5,1,4,9,10"
14651,commdev-image-keyboard-response,751,1528916,learnblock2,723.6999999880791,img/planet1_right.png,1,Community 3,NA,TRUE,j,j,NA,NA,NA,4,7,"12,6,3,13,2,11,15,8,14,7,5,1,4,9,10"
