subject_id,trial_type,trial_index,time_elapsed,block,rt,stimulus,planet,community,response,correct,key_press,learning_correct_response,parse,init_locations,final_locations,browser_interactions,num_comp,planet_map
14519,commdev-instructions,7,44641,NA,742.3000000007451,"<p>In this game, you will be shown a 3x3 grid of patterns.</p> <p>The last one in the bottom right-hand corner, <strong>will be missing:</strong></p> <div style='width: 700px;'><div style='float: top;'><img style='width: 200px;' src='practice/p1_M1.png'></img><p class='small'>You need to select<strong> which of the four possible patterns </strong>along the bottom<strong> fits into the gap:</strong></p></div><div style='float: top;'><img style='width: 300px;' src='practice/p1_T1.png'></img></div><br>",NA,NA,NA,NA,NA,NA,NA,NA,NA,2,6,"14,12,6,5,3,11,15,7,13,9,2,8,10,1,4"
14519,commdev-instructions,8,63029,NA,509.30000000074506,"<p>Try to be as fast and as accurate as you can be.</p> <p>If you cannot solve the puzzle then you should guess - you will not be penalised for an incorrect answer.</p> <p>The task contains a shuffled mix of easy, medium and hard puzzles.</p> <p>You will have <strong>30 seconds</strong> to complete each puzzle.</p><br>",NA,NA,NA,NA,NA,NA,NA,NA,NA,2,6,"14,12,6,5,3,11,15,7,13,9,2,8,10,1,4"
14519,commdev-instructions,15,92463,NA,896.7999999970198,<p><strong>Success!</strong></p> <p>You seem to be getting the hang of this...</p> <p>Let's move on to the real trials.</p><br>,NA,NA,NA,NA,NA,NA,NA,NA,NA,2,6,"14,12,6,5,3,11,15,7,13,9,2,8,10,1,4"
14519,commdev-instructions,109,586105,NA,736.7999999970198,"<p>In this game, you are a scientist on board a space shuttle. </p><p> On each mission, you will visit planets all across the universe.</p><img src=""img/controlroom.jpg"" width=300vw>",NA,NA,NA,NA,NA,NA,NA,NA,NA,2,6,"14,12,6,5,3,11,15,7,13,9,2,8,10,1,4"
14519,commdev-instructions,110,588815,NA,636,"<p>Here are a few planets you might see:</p><img src=""img/practice1.png"" width=200vw><img src=""img/practice2.png"" width=200vw><img src=""img/practice3.png"" width=200vw>",NA,NA,NA,NA,NA,NA,NA,NA,NA,2,6,"14,12,6,5,3,11,15,7,13,9,2,8,10,1,4"
14519,commdev-instructions,111,596996,NA,784.2000000029802,"<p>Your job as a scientist is to record which direction the winds are moving on each planet.</p><p>There are two types of wind directions:</p><img src=""img/practice1_left.png"" width=200vw><img src=""img/practice1_right.png"" width=200vw>",NA,NA,NA,NA,NA,NA,NA,NA,NA,2,6,"14,12,6,5,3,11,15,7,13,9,2,8,10,1,4"
14519,commdev-instructions,112,603777,NA,1895.1999999955297,"<p>If the winds are moving this way, press the letter <strong>F</strong> on the keyboard as fast as you can.</p><img src=""img/leftwind.png"" width=250vw>",NA,NA,NA,NA,NA,NA,NA,NA,NA,2,6,"14,12,6,5,3,11,15,7,13,9,2,8,10,1,4"
14519,commdev-instructions,113,610360,NA,2077.1999999955297,"<p>If the winds are moving this way, press the letter <strong>J</strong> on the keyboard as fast as you can.</p><img src=""img/rightwind.png"" width=350vw>",NA,NA,NA,NA,NA,NA,NA,NA,NA,2,6,"14,12,6,5,3,11,15,7,13,9,2,8,10,1,4"
14519,commdev-instructions,114,616727,NA,1944.8000000044703,<p>You will have 1 second to respond. Try to respond before the time runs out!,NA,NA,NA,NA,NA,NA,NA,NA,NA,2,6,"14,12,6,5,3,11,15,7,13,9,2,8,10,1,4"
14519,commdev-instructions,115,622864,NA,702.2000000029802,<p>The planets you will visit will look different from each other.</p><p>You should respond <strong>only</strong> based on wind direction.,NA,NA,NA,NA,NA,NA,NA,NA,NA,2,6,"14,12,6,5,3,11,15,7,13,9,2,8,10,1,4"
14519,commdev-instructions,116,630845,NA,2802.5999999940395,"<p> Ready to start the practice round? </p><p> Remember, press <strong>F</strong> or <strong>J</strong> depending on the wind direction.<br><img src=""img/categorize_planet_example.png""",NA,NA,NA,NA,NA,NA,NA,NA,NA,2,6,"14,12,6,5,3,11,15,7,13,9,2,8,10,1,4"
14519,commdev-instructions,128,679382,NA,1227.1000000014901,"<p>Great, now try a short practice mission. </p><p> This time, you will have 1 second to respond and you won't know whether you pressed the right or wrong key for each planet.</p>",NA,NA,NA,NA,NA,NA,NA,NA,NA,2,6,"14,12,6,5,3,11,15,7,13,9,2,8,10,1,4"
14519,commdev-image-keyboard-response,129,680739,practice,593.3999999985099,img/practice4_right.png,NA,Number not found in mappings,NA,TRUE,j,j,NA,NA,NA,2,6,"14,12,6,5,3,11,15,7,13,9,2,8,10,1,4"
14519,commdev-image-keyboard-response,130,681997,practice,679,img/practice3_left.png,NA,Number not found in mappings,NA,TRUE,f,f,NA,NA,NA,2,6,"14,12,6,5,3,11,15,7,13,9,2,8,10,1,4"
14519,commdev-image-keyboard-response,131,683257,practice,null,img/practice4_right.png,NA,Number not found in mappings,NA,FALSE,null,j,NA,NA,NA,2,6,"14,12,6,5,3,11,15,7,13,9,2,8,10,1,4"
14519,commdev-image-keyboard-response,132,684514,practice,830.7999999970198,img/practice1_left.png,NA,Number not found in mappings,NA,TRUE,f,f,NA,NA,NA,2,6,"14,12,6,5,3,11,15,7,13,9,2,8,10,1,4"
14519,commdev-image-keyboard-response,133,685768,practice,553.3999999985099,img/practice4_left.png,NA,Number not found in mappings,NA,TRUE,f,f,NA,NA,NA,2,6,"14,12,6,5,3,11,15,7,13,9,2,8,10,1,4"
14519,commdev-image-keyboard-response,134,687021,practice,532.0999999940395,img/practice3_right.png,NA,Number not found in mappings,NA,TRUE,j,j,NA,NA,NA,2,6,"14,12,6,5,3,11,15,7,13,9,2,8,10,1,4"
14519,commdev-image-keyboard-response,135,688278,practice,708.2999999970198,img/practice2_left.png,NA,Number not found in mappings,NA,TRUE,f,f,NA,NA,NA,2,6,"14,12,6,5,3,11,15,7,13,9,2,8,10,1,4"
14519,commdev-image-keyboard-response,136,689538,practice,620,img/practice1_left.png,NA,Number not found in mappings,NA,TRUE,f,f,NA,NA,NA,2,6,"14,12,6,5,3,11,15,7,13,9,2,8,10,1,4"
14519,commdev-instructions,137,700537,NA,1452.8999999985099,"<p>Great job with the practice round.</p><p>During real missions, you won't know whether you pressed the right or wrong key for each planet.</p><p>But between missions, we will tell you how you did overall.</p>",NA,NA,NA,NA,NA,NA,NA,NA,NA,2,6,"14,12,6,5,3,11,15,7,13,9,2,8,10,1,4"
14519,commdev-instructions,138,710904,NA,2120.39999999851,<p>Try your best! You will be paid a bonus based on how many correct responses you make!</p><p>Responses that are too slow will not count toward your bonus.</p>,NA,NA,NA,NA,NA,NA,NA,NA,NA,2,6,"14,12,6,5,3,11,15,7,13,9,2,8,10,1,4"
14519,commdev-instructions,139,717676,NA,573.8000000044703,"<p>You are almost ready to start the real game.</p><p> First, we are going to ask you some questions about how the game works.</p>",NA,NA,NA,NA,NA,NA,NA,NA,NA,2,6,"14,12,6,5,3,11,15,7,13,9,2,8,10,1,4"
14519,commdev-instructions,148,791401,NA,1671.2999999970198,"<p> Nice work! It is now time to start the real game.<p></p>You will go on two missions to record wind directions of different planets.<p></p>Each one will take about 5 minutes. You will get to take a break between missions.<p><p> Remember, press <strong>F</strong> or <strong>J</strong> depending on the wind direction. Good luck!<br><img src=""img/categorize_planet_example.png""",NA,NA,NA,NA,NA,NA,NA,NA,NA,2,6,"14,12,6,5,3,11,15,7,13,9,2,8,10,1,4"
14519,commdev-image-keyboard-response,150,794348,learnblock1,975,img/planet13_right.png,13,Community 2,NA,TRUE,j,j,NA,NA,NA,2,6,"14,12,6,5,3,11,15,7,13,9,2,8,10,1,4"
14519,commdev-image-keyboard-response,151,795603,learnblock1,750.3000000044703,img/planet11_right.png,11,Community 2,NA,TRUE,j,j,NA,NA,NA,2,6,"14,12,6,5,3,11,15,7,13,9,2,8,10,1,4"
14519,commdev-image-keyboard-response,152,796856,learnblock1,605.5,img/planet9_right.png,9,Community 2,NA,TRUE,j,j,NA,NA,NA,2,6,"14,12,6,5,3,11,15,7,13,9,2,8,10,1,4"
14519,commdev-image-keyboard-response,153,798109,learnblock1,892.8000000044703,img/planet15_right.png,15,Community 2,NA,TRUE,j,j,NA,NA,NA,2,6,"14,12,6,5,3,11,15,7,13,9,2,8,10,1,4"
14519,commdev-image-keyboard-response,154,799361,learnblock1,739.1000000014901,img/planet7_left.png,7,Community 2,NA,TRUE,f,f,NA,NA,NA,2,6,"14,12,6,5,3,11,15,7,13,9,2,8,10,1,4"
14519,commdev-image-keyboard-response,155,800617,learnblock1,595.6000000014901,img/planet15_right.png,15,Community 2,NA,TRUE,j,j,NA,NA,NA,2,6,"14,12,6,5,3,11,15,7,13,9,2,8,10,1,4"
14519,commdev-image-keyboard-response,156,801876,learnblock1,891.0999999940395,img/planet11_right.png,11,Community 2,NA,TRUE,j,j,NA,NA,NA,2,6,"14,12,6,5,3,11,15,7,13,9,2,8,10,1,4"
14519,commdev-image-keyboard-response,157,803133,learnblock1,802.1000000014901,img/planet15_left.png,15,Community 2,NA,TRUE,f,f,NA,NA,NA,2,6,"14,12,6,5,3,11,15,7,13,9,2,8,10,1,4"
14519,commdev-image-keyboard-response,158,804387,learnblock1,584.8999999985099,img/planet11_right.png,11,Community 2,NA,TRUE,j,j,NA,NA,NA,2,6,"14,12,6,5,3,11,15,7,13,9,2,8,10,1,4"
14519,commdev-image-keyboard-response,159,805646,learnblock1,781.7000000029802,img/planet5_right.png,5,Community 1,NA,TRUE,j,j,NA,NA,NA,2,6,"14,12,6,5,3,11,15,7,13,9,2,8,10,1,4"
14519,commdev-image-keyboard-response,160,806906,learnblock1,810.7000000029802,img/planet14_left.png,14,Community 1,NA,TRUE,f,f,NA,NA,NA,2,6,"14,12,6,5,3,11,15,7,13,9,2,8,10,1,4"
14519,commdev-image-keyboard-response,161,808162,learnblock1,732.7999999970198,img/planet3_right.png,3,Community 1,NA,TRUE,j,j,NA,NA,NA,2,6,"14,12,6,5,3,11,15,7,13,9,2,8,10,1,4"
14519,commdev-image-keyboard-response,162,809419,learnblock1,805.8000000044703,img/planet2_right.png,2,Community 3,NA,TRUE,j,j,NA,NA,NA,2,6,"14,12,6,5,3,11,15,7,13,9,2,8,10,1,4"
14519,commdev-image-keyboard-response,163,810675,learnblock1,730.9000000059605,img/planet4_left.png,4,Community 3,NA,TRUE,f,f,NA,NA,NA,2,6,"14,12,6,5,3,11,15,7,13,9,2,8,10,1,4"
14519,commdev-image-keyboard-response,164,811934,learnblock1,562,img/planet2_right.png,2,Community 3,NA,TRUE,j,j,NA,NA,NA,2,6,"14,12,6,5,3,11,15,7,13,9,2,8,10,1,4"
14519,commdev-image-keyboard-response,165,813189,learnblock1,644.5,img/planet4_right.png,4,Community 3,NA,TRUE,j,j,NA,NA,NA,2,6,"14,12,6,5,3,11,15,7,13,9,2,8,10,1,4"
14519,commdev-image-keyboard-response,166,814444,learnblock1,988,img/planet8_right.png,8,Community 3,NA,TRUE,j,j,NA,NA,NA,2,6,"14,12,6,5,3,11,15,7,13,9,2,8,10,1,4"
14519,commdev-image-keyboard-response,167,815701,learnblock1,693.2000000029802,img/planet4_right.png,4,Community 3,NA,TRUE,j,j,NA,NA,NA,2,6,"14,12,6,5,3,11,15,7,13,9,2,8,10,1,4"
14519,commdev-image-keyboard-response,168,816957,learnblock1,627.6000000014901,img/planet1_right.png,1,Community 3,NA,TRUE,j,j,NA,NA,NA,2,6,"14,12,6,5,3,11,15,7,13,9,2,8,10,1,4"
14519,commdev-image-keyboard-response,169,818211,learnblock1,779.8000000044703,img/planet4_right.png,4,Community 3,NA,TRUE,j,j,NA,NA,NA,2,6,"14,12,6,5,3,11,15,7,13,9,2,8,10,1,4"
14519,commdev-image-keyboard-response,170,819464,learnblock1,676.1000000014901,img/planet8_right.png,8,Community 3,NA,TRUE,j,j,NA,NA,NA,2,6,"14,12,6,5,3,11,15,7,13,9,2,8,10,1,4"
14519,commdev-image-keyboard-response,171,820716,learnblock1,693.7999999970198,img/planet7_right.png,7,Community 2,NA,TRUE,j,j,NA,NA,NA,2,6,"14,12,6,5,3,11,15,7,13,9,2,8,10,1,4"
14519,commdev-image-keyboard-response,172,821970,learnblock1,534.0999999940395,img/planet9_right.png,9,Community 2,NA,TRUE,j,j,NA,NA,NA,2,6,"14,12,6,5,3,11,15,7,13,9,2,8,10,1,4"
14519,commdev-image-keyboard-response,173,823225,learnblock1,698.8999999985099,img/planet13_left.png,13,Community 2,NA,TRUE,f,f,NA,NA,NA,2,6,"14,12,6,5,3,11,15,7,13,9,2,8,10,1,4"
14519,commdev-image-keyboard-response,174,824484,learnblock1,550.8999999985099,img/planet15_left.png,15,Community 2,NA,TRUE,f,f,NA,NA,NA,2,6,"14,12,6,5,3,11,15,7,13,9,2,8,10,1,4"
14519,commdev-image-keyboard-response,175,825739,learnblock1,573.1000000014901,img/planet13_right.png,13,Community 2,NA,TRUE,j,j,NA,NA,NA,2,6,"14,12,6,5,3,11,15,7,13,9,2,8,10,1,4"
14519,commdev-image-keyboard-response,176,826992,learnblock1,688,img/planet7_left.png,7,Community 2,NA,TRUE,f,f,NA,NA,NA,2,6,"14,12,6,5,3,11,15,7,13,9,2,8,10,1,4"
14519,commdev-image-keyboard-response,177,828250,learnblock1,753.3999999985099,img/planet15_left.png,15,Community 2,NA,TRUE,f,f,NA,NA,NA,2,6,"14,12,6,5,3,11,15,7,13,9,2,8,10,1,4"
14519,commdev-image-keyboard-response,178,829505,learnblock1,538.5999999940395,img/planet9_right.png,9,Community 2,NA,TRUE,j,j,NA,NA,NA,2,6,"14,12,6,5,3,11,15,7,13,9,2,8,10,1,4"
14519,commdev-image-keyboard-response,179,830772,learnblock1,572.2999999970198,img/planet11_left.png,11,Community 2,NA,TRUE,f,f,NA,NA,NA,2,6,"14,12,6,5,3,11,15,7,13,9,2,8,10,1,4"
14519,commdev-image-keyboard-response,180,832027,learnblock1,635,img/planet13_right.png,13,Community 2,NA,TRUE,j,j,NA,NA,NA,2,6,"14,12,6,5,3,11,15,7,13,9,2,8,10,1,4"
14519,commdev-image-keyboard-response,181,833279,learnblock1,840.5,img/planet7_right.png,7,Community 2,NA,TRUE,j,j,NA,NA,NA,2,6,"14,12,6,5,3,11,15,7,13,9,2,8,10,1,4"
14519,commdev-image-keyboard-response,182,834532,learnblock1,728.6999999955297,img/planet9_left.png,9,Community 2,NA,TRUE,f,f,NA,NA,NA,2,6,"14,12,6,5,3,11,15,7,13,9,2,8,10,1,4"
14519,commdev-image-keyboard-response,183,835792,learnblock1,904.3999999985099,img/planet7_left.png,7,Community 2,NA,TRUE,f,f,NA,NA,NA,2,6,"14,12,6,5,3,11,15,7,13,9,2,8,10,1,4"
14519,commdev-image-keyboard-response,184,837051,learnblock1,904.3000000044703,img/planet9_left.png,9,Community 2,NA,TRUE,f,f,NA,NA,NA,2,6,"14,12,6,5,3,11,15,7,13,9,2,8,10,1,4"
14519,commdev-image-keyboard-response,185,838304,learnblock1,650.5,img/planet11_right.png,11,Community 2,NA,TRUE,j,j,NA,NA,NA,2,6,"14,12,6,5,3,11,15,7,13,9,2,8,10,1,4"
14519,commdev-image-keyboard-response,186,839558,learnblock1,777.7000000029802,img/planet15_right.png,15,Community 2,NA,TRUE,j,j,NA,NA,NA,2,6,"14,12,6,5,3,11,15,7,13,9,2,8,10,1,4"
14519,commdev-image-keyboard-response,187,840812,learnblock1,663.7000000029802,img/planet7_right.png,7,Community 2,NA,TRUE,j,j,NA,NA,NA,2,6,"14,12,6,5,3,11,15,7,13,9,2,8,10,1,4"
14519,commdev-image-keyboard-response,188,842067,learnblock1,1199.0999999940395,img/planet8_left.png,8,Community 3,NA,TRUE,f,f,NA,NA,NA,2,6,"14,12,6,5,3,11,15,7,13,9,2,8,10,1,4"
14519,commdev-image-keyboard-response,189,843322,learnblock1,995.5,img/planet7_left.png,7,Community 2,NA,TRUE,f,f,NA,NA,NA,2,6,"14,12,6,5,3,11,15,7,13,9,2,8,10,1,4"
14519,commdev-image-keyboard-response,190,844575,learnblock1,749.1000000014901,img/planet15_left.png,15,Community 2,NA,TRUE,f,f,NA,NA,NA,2,6,"14,12,6,5,3,11,15,7,13,9,2,8,10,1,4"
14519,commdev-image-keyboard-response,191,845831,learnblock1,645.5,img/planet11_right.png,11,Community 2,NA,TRUE,j,j,NA,NA,NA,2,6,"14,12,6,5,3,11,15,7,13,9,2,8,10,1,4"
14519,commdev-image-keyboard-response,192,847084,learnblock1,609.8999999985099,img/planet15_left.png,15,Community 2,NA,TRUE,f,f,NA,NA,NA,2,6,"14,12,6,5,3,11,15,7,13,9,2,8,10,1,4"
14519,commdev-image-keyboard-response,193,848339,learnblock1,519.2000000029802,img/planet13_right.png,13,Community 2,NA,TRUE,j,j,NA,NA,NA,2,6,"14,12,6,5,3,11,15,7,13,9,2,8,10,1,4"
14519,commdev-image-keyboard-response,194,849594,learnblock1,834.1000000014901,img/planet15_right.png,15,Community 2,NA,TRUE,j,j,NA,NA,NA,2,6,"14,12,6,5,3,11,15,7,13,9,2,8,10,1,4"
14519,commdev-image-keyboard-response,195,850846,learnblock1,528.1999999955297,img/planet13_left.png,13,Community 2,NA,TRUE,f,f,NA,NA,NA,2,6,"14,12,6,5,3,11,15,7,13,9,2,8,10,1,4"
14519,commdev-image-keyboard-response,196,852101,learnblock1,815.2999999970198,img/planet9_left.png,9,Community 2,NA,TRUE,f,f,NA,NA,NA,2,6,"14,12,6,5,3,11,15,7,13,9,2,8,10,1,4"
14519,commdev-image-keyboard-response,197,853356,learnblock1,700.8000000044703,img/planet11_right.png,11,Community 2,NA,TRUE,j,j,NA,NA,NA,2,6,"14,12,6,5,3,11,15,7,13,9,2,8,10,1,4"
14519,commdev-image-keyboard-response,198,854610,learnblock1,944.8999999985099,img/planet15_left.png,15,Community 2,NA,TRUE,f,f,NA,NA,NA,2,6,"14,12,6,5,3,11,15,7,13,9,2,8,10,1,4"
14519,commdev-image-keyboard-response,199,855864,learnblock1,492.30000000447035,img/planet7_right.png,7,Community 2,NA,TRUE,j,j,NA,NA,NA,2,6,"14,12,6,5,3,11,15,7,13,9,2,8,10,1,4"
14519,commdev-image-keyboard-response,200,857122,learnblock1,677.2000000029802,img/planet9_right.png,9,Community 2,NA,TRUE,j,j,NA,NA,NA,2,6,"14,12,6,5,3,11,15,7,13,9,2,8,10,1,4"
14519,commdev-image-keyboard-response,201,858378,learnblock1,728.7000000029802,img/planet7_left.png,7,Community 2,NA,TRUE,f,f,NA,NA,NA,2,6,"14,12,6,5,3,11,15,7,13,9,2,8,10,1,4"
14519,commdev-image-keyboard-response,202,859636,learnblock1,543.3999999985099,img/planet13_right.png,13,Community 2,NA,TRUE,j,j,NA,NA,NA,2,6,"14,12,6,5,3,11,15,7,13,9,2,8,10,1,4"
14519,commdev-image-keyboard-response,203,860892,learnblock1,584.8999999985099,img/planet11_right.png,11,Community 2,NA,TRUE,j,j,NA,NA,NA,2,6,"14,12,6,5,3,11,15,7,13,9,2,8,10,1,4"
14519,commdev-image-keyboard-response,204,862148,learnblock1,559.6000000014901,img/planet15_right.png,15,Community 2,NA,FALSE,f,j,NA,NA,NA,2,6,"14,12,6,5,3,11,15,7,13,9,2,8,10,1,4"
14519,commdev-image-keyboard-response,205,863404,learnblock1,893.8999999985099,img/planet11_right.png,11,Community 2,NA,TRUE,j,j,NA,NA,NA,2,6,"14,12,6,5,3,11,15,7,13,9,2,8,10,1,4"
14519,commdev-image-keyboard-response,206,864661,learnblock1,587.3000000044703,img/planet5_right.png,5,Community 1,NA,TRUE,j,j,NA,NA,NA,2,6,"14,12,6,5,3,11,15,7,13,9,2,8,10,1,4"
14519,commdev-image-keyboard-response,207,865914,learnblock1,751.8000000044703,img/planet11_left.png,11,Community 2,NA,TRUE,f,f,NA,NA,NA,2,6,"14,12,6,5,3,11,15,7,13,9,2,8,10,1,4"
14519,commdev-image-keyboard-response,208,867167,learnblock1,436,img/planet9_right.png,9,Community 2,NA,TRUE,j,j,NA,NA,NA,2,6,"14,12,6,5,3,11,15,7,13,9,2,8,10,1,4"
14519,commdev-image-keyboard-response,209,868423,learnblock1,754.7000000029802,img/planet13_right.png,13,Community 2,NA,TRUE,j,j,NA,NA,NA,2,6,"14,12,6,5,3,11,15,7,13,9,2,8,10,1,4"
14519,commdev-image-keyboard-response,210,869680,learnblock1,438.20000000298023,img/planet15_right.png,15,Community 2,NA,TRUE,j,j,NA,NA,NA,2,6,"14,12,6,5,3,11,15,7,13,9,2,8,10,1,4"
14519,commdev-image-keyboard-response,211,870936,learnblock1,572.5,img/planet9_left.png,9,Community 2,NA,TRUE,f,f,NA,NA,NA,2,6,"14,12,6,5,3,11,15,7,13,9,2,8,10,1,4"
14519,commdev-image-keyboard-response,212,872191,learnblock1,585.7999999970198,img/planet13_right.png,13,Community 2,NA,TRUE,j,j,NA,NA,NA,2,6,"14,12,6,5,3,11,15,7,13,9,2,8,10,1,4"
14519,commdev-image-keyboard-response,213,873444,learnblock1,559.5,img/planet9_left.png,9,Community 2,NA,TRUE,f,f,NA,NA,NA,2,6,"14,12,6,5,3,11,15,7,13,9,2,8,10,1,4"
14519,commdev-image-keyboard-response,214,874701,learnblock1,536.6000000014901,img/planet15_left.png,15,Community 2,NA,TRUE,f,f,NA,NA,NA,2,6,"14,12,6,5,3,11,15,7,13,9,2,8,10,1,4"
14519,commdev-image-keyboard-response,215,875957,learnblock1,540.7000000029802,img/planet13_right.png,13,Community 2,NA,TRUE,j,j,NA,NA,NA,2,6,"14,12,6,5,3,11,15,7,13,9,2,8,10,1,4"
14519,commdev-image-keyboard-response,216,877208,learnblock1,645.6000000014901,img/planet7_right.png,7,Community 2,NA,TRUE,j,j,NA,NA,NA,2,6,"14,12,6,5,3,11,15,7,13,9,2,8,10,1,4"
14519,commdev-image-keyboard-response,217,878476,learnblock1,442.80000000447035,img/planet15_left.png,15,Community 2,NA,TRUE,f,f,NA,NA,NA,2,6,"14,12,6,5,3,11,15,7,13,9,2,8,10,1,4"
14519,commdev-image-keyboard-response,218,879731,learnblock1,854.3999999985099,img/planet11_left.png,11,Community 2,NA,TRUE,f,f,NA,NA,NA,2,6,"14,12,6,5,3,11,15,7,13,9,2,8,10,1,4"
14519,commdev-image-keyboard-response,219,880987,learnblock1,539.7999999970198,img/planet5_right.png,5,Community 1,NA,TRUE,j,j,NA,NA,NA,2,6,"14,12,6,5,3,11,15,7,13,9,2,8,10,1,4"
14519,commdev-image-keyboard-response,220,882244,learnblock1,604.3999999985099,img/planet11_right.png,11,Community 2,NA,TRUE,j,j,NA,NA,NA,2,6,"14,12,6,5,3,11,15,7,13,9,2,8,10,1,4"
14519,commdev-image-keyboard-response,221,883496,learnblock1,687.5,img/planet15_left.png,15,Community 2,NA,TRUE,f,f,NA,NA,NA,2,6,"14,12,6,5,3,11,15,7,13,9,2,8,10,1,4"
14519,commdev-image-keyboard-response,222,884749,learnblock1,824.7000000029802,img/planet11_left.png,11,Community 2,NA,TRUE,f,f,NA,NA,NA,2,6,"14,12,6,5,3,11,15,7,13,9,2,8,10,1,4"
14519,commdev-image-keyboard-response,223,886003,learnblock1,732,img/planet13_left.png,13,Community 2,NA,TRUE,f,f,NA,NA,NA,2,6,"14,12,6,5,3,11,15,7,13,9,2,8,10,1,4"
14519,commdev-image-keyboard-response,224,887257,learnblock1,517.6000000014901,img/planet15_left.png,15,Community 2,NA,TRUE,f,f,NA,NA,NA,2,6,"14,12,6,5,3,11,15,7,13,9,2,8,10,1,4"
14519,commdev-image-keyboard-response,225,888515,learnblock1,513.6000000014901,img/planet11_left.png,11,Community 2,NA,TRUE,f,f,NA,NA,NA,2,6,"14,12,6,5,3,11,15,7,13,9,2,8,10,1,4"
14519,commdev-image-keyboard-response,226,889771,learnblock1,504.6000000014901,img/planet5_right.png,5,Community 1,NA,TRUE,j,j,NA,NA,NA,2,6,"14,12,6,5,3,11,15,7,13,9,2,8,10,1,4"
14519,commdev-image-keyboard-response,227,891023,learnblock1,810.3999999985099,img/planet14_left.png,14,Community 1,NA,TRUE,f,f,NA,NA,NA,2,6,"14,12,6,5,3,11,15,7,13,9,2,8,10,1,4"
14519,commdev-image-keyboard-response,228,892279,learnblock1,747.7999999970198,img/planet12_left.png,12,Community 1,NA,TRUE,f,f,NA,NA,NA,2,6,"14,12,6,5,3,11,15,7,13,9,2,8,10,1,4"
14519,commdev-image-keyboard-response,229,893532,learnblock1,641.2999999970198,img/planet14_left.png,14,Community 1,NA,TRUE,f,f,NA,NA,NA,2,6,"14,12,6,5,3,11,15,7,13,9,2,8,10,1,4"
14519,commdev-image-keyboard-response,230,894786,learnblock1,658.5,img/planet5_left.png,5,Community 1,NA,TRUE,f,f,NA,NA,NA,2,6,"14,12,6,5,3,11,15,7,13,9,2,8,10,1,4"
14519,commdev-image-keyboard-response,231,896038,learnblock1,714.7000000029802,img/planet12_left.png,12,Community 1,NA,TRUE,f,f,NA,NA,NA,2,6,"14,12,6,5,3,11,15,7,13,9,2,8,10,1,4"
14519,commdev-image-keyboard-response,232,897288,learnblock1,643,img/planet3_right.png,3,Community 1,NA,TRUE,j,j,NA,NA,NA,2,6,"14,12,6,5,3,11,15,7,13,9,2,8,10,1,4"
14519,commdev-image-keyboard-response,233,898540,learnblock1,640.2999999970198,img/planet2_left.png,2,Community 3,NA,TRUE,f,f,NA,NA,NA,2,6,"14,12,6,5,3,11,15,7,13,9,2,8,10,1,4"
14519,commdev-image-keyboard-response,234,899792,learnblock1,457.8999999985099,img/planet3_right.png,3,Community 1,NA,TRUE,j,j,NA,NA,NA,2,6,"14,12,6,5,3,11,15,7,13,9,2,8,10,1,4"
14519,commdev-image-keyboard-response,235,901044,learnblock1,814.7999999970198,img/planet6_right.png,6,Community 1,NA,TRUE,j,j,NA,NA,NA,2,6,"14,12,6,5,3,11,15,7,13,9,2,8,10,1,4"
14519,commdev-image-keyboard-response,236,902301,learnblock1,704.4000000059605,img/planet14_right.png,14,Community 1,NA,TRUE,j,j,NA,NA,NA,2,6,"14,12,6,5,3,11,15,7,13,9,2,8,10,1,4"
14519,commdev-image-keyboard-response,237,903556,learnblock1,466.30000000447035,img/planet6_right.png,6,Community 1,NA,TRUE,j,j,NA,NA,NA,2,6,"14,12,6,5,3,11,15,7,13,9,2,8,10,1,4"
14519,commdev-image-keyboard-response,238,904811,learnblock1,683.7000000029802,img/planet12_left.png,12,Community 1,NA,TRUE,f,f,NA,NA,NA,2,6,"14,12,6,5,3,11,15,7,13,9,2,8,10,1,4"
14519,commdev-image-keyboard-response,239,906063,learnblock1,1127.7999999970198,img/planet5_left.png,5,Community 1,NA,TRUE,f,f,NA,NA,NA,2,6,"14,12,6,5,3,11,15,7,13,9,2,8,10,1,4"
14519,commdev-image-keyboard-response,240,907318,learnblock1,746.5,img/planet12_right.png,12,Community 1,NA,TRUE,j,j,NA,NA,NA,2,6,"14,12,6,5,3,11,15,7,13,9,2,8,10,1,4"
14519,commdev-image-keyboard-response,241,908575,learnblock1,592.6999999955297,img/planet3_left.png,3,Community 1,NA,TRUE,f,f,NA,NA,NA,2,6,"14,12,6,5,3,11,15,7,13,9,2,8,10,1,4"
14519,commdev-image-keyboard-response,242,909826,learnblock1,554.1000000014901,img/planet6_left.png,6,Community 1,NA,TRUE,f,f,NA,NA,NA,2,6,"14,12,6,5,3,11,15,7,13,9,2,8,10,1,4"
14519,commdev-image-keyboard-response,243,911080,learnblock1,520.2000000029802,img/planet14_left.png,14,Community 1,NA,TRUE,f,f,NA,NA,NA,2,6,"14,12,6,5,3,11,15,7,13,9,2,8,10,1,4"
14519,commdev-image-keyboard-response,244,912335,learnblock1,436.5,img/planet12_right.png,12,Community 1,NA,TRUE,j,j,NA,NA,NA,2,6,"14,12,6,5,3,11,15,7,13,9,2,8,10,1,4"
14519,commdev-image-keyboard-response,245,913592,learnblock1,411,img/planet5_left.png,5,Community 1,NA,TRUE,f,f,NA,NA,NA,2,6,"14,12,6,5,3,11,15,7,13,9,2,8,10,1,4"
14519,commdev-image-keyboard-response,246,914846,learnblock1,654.2000000029802,img/planet6_left.png,6,Community 1,NA,TRUE,f,f,NA,NA,NA,2,6,"14,12,6,5,3,11,15,7,13,9,2,8,10,1,4"
14519,commdev-image-keyboard-response,247,916099,learnblock1,671.3999999985099,img/planet3_right.png,3,Community 1,NA,TRUE,j,j,NA,NA,NA,2,6,"14,12,6,5,3,11,15,7,13,9,2,8,10,1,4"
14519,commdev-image-keyboard-response,248,917354,learnblock1,557.7000000029802,img/planet6_left.png,6,Community 1,NA,TRUE,f,f,NA,NA,NA,2,6,"14,12,6,5,3,11,15,7,13,9,2,8,10,1,4"
14519,commdev-image-keyboard-response,249,918610,learnblock1,613.5,img/planet3_left.png,3,Community 1,NA,TRUE,f,f,NA,NA,NA,2,6,"14,12,6,5,3,11,15,7,13,9,2,8,10,1,4"
14519,commdev-image-keyboard-response,250,919865,learnblock1,590.3000000044703,img/planet2_left.png,2,Community 3,NA,TRUE,f,f,NA,NA,NA,2,6,"14,12,6,5,3,11,15,7,13,9,2,8,10,1,4"
14519,commdev-image-keyboard-response,251,921117,learnblock1,503.80000000447035,img/planet3_right.png,3,Community 1,NA,FALSE,f,j,NA,NA,NA,2,6,"14,12,6,5,3,11,15,7,13,9,2,8,10,1,4"
14519,commdev-image-keyboard-response,252,922368,learnblock1,620.5,img/planet6_right.png,6,Community 1,NA,TRUE,j,j,NA,NA,NA,2,6,"14,12,6,5,3,11,15,7,13,9,2,8,10,1,4"
14519,commdev-image-keyboard-response,253,923626,learnblock1,619,img/planet12_right.png,12,Community 1,NA,TRUE,j,j,NA,NA,NA,2,6,"14,12,6,5,3,11,15,7,13,9,2,8,10,1,4"
14519,commdev-image-keyboard-response,254,924881,learnblock1,560.7999999970198,img/planet5_left.png,5,Community 1,NA,TRUE,f,f,NA,NA,NA,2,6,"14,12,6,5,3,11,15,7,13,9,2,8,10,1,4"
14519,commdev-image-keyboard-response,255,926133,learnblock1,565.5,img/planet11_left.png,11,Community 2,NA,TRUE,f,f,NA,NA,NA,2,6,"14,12,6,5,3,11,15,7,13,9,2,8,10,1,4"
14519,commdev-image-keyboard-response,256,927387,learnblock1,507,img/planet15_right.png,15,Community 2,NA,TRUE,j,j,NA,NA,NA,2,6,"14,12,6,5,3,11,15,7,13,9,2,8,10,1,4"
14519,commdev-image-keyboard-response,257,928640,learnblock1,602,img/planet7_left.png,7,Community 2,NA,TRUE,f,f,NA,NA,NA,2,6,"14,12,6,5,3,11,15,7,13,9,2,8,10,1,4"
14519,commdev-image-keyboard-response,258,929897,learnblock1,649.2999999970198,img/planet9_right.png,9,Community 2,NA,TRUE,j,j,NA,NA,NA,2,6,"14,12,6,5,3,11,15,7,13,9,2,8,10,1,4"
14519,commdev-image-keyboard-response,259,931149,learnblock1,570.1000000014901,img/planet7_left.png,7,Community 2,NA,TRUE,f,f,NA,NA,NA,2,6,"14,12,6,5,3,11,15,7,13,9,2,8,10,1,4"
14519,commdev-image-keyboard-response,260,932401,learnblock1,459.3999999985099,img/planet15_right.png,15,Community 2,NA,TRUE,j,j,NA,NA,NA,2,6,"14,12,6,5,3,11,15,7,13,9,2,8,10,1,4"
14519,commdev-image-keyboard-response,261,933660,learnblock1,458.20000000298023,img/planet7_left.png,7,Community 2,NA,TRUE,f,f,NA,NA,NA,2,6,"14,12,6,5,3,11,15,7,13,9,2,8,10,1,4"
14519,commdev-image-keyboard-response,262,934916,learnblock1,326.8999999985099,img/planet15_right.png,15,Community 2,NA,TRUE,j,j,NA,NA,NA,2,6,"14,12,6,5,3,11,15,7,13,9,2,8,10,1,4"
14519,commdev-image-keyboard-response,263,936169,learnblock1,461.1000000014901,img/planet7_left.png,7,Community 2,NA,TRUE,f,f,NA,NA,NA,2,6,"14,12,6,5,3,11,15,7,13,9,2,8,10,1,4"
14519,commdev-image-keyboard-response,264,937423,learnblock1,378.5,img/planet15_right.png,15,Community 2,NA,TRUE,j,j,NA,NA,NA,2,6,"14,12,6,5,3,11,15,7,13,9,2,8,10,1,4"
14519,commdev-image-keyboard-response,265,938680,learnblock1,524.8999999985099,img/planet9_right.png,9,Community 2,NA,TRUE,j,j,NA,NA,NA,2,6,"14,12,6,5,3,11,15,7,13,9,2,8,10,1,4"
14519,commdev-image-keyboard-response,266,939932,learnblock1,518.2000000029802,img/planet15_left.png,15,Community 2,NA,TRUE,f,f,NA,NA,NA,2,6,"14,12,6,5,3,11,15,7,13,9,2,8,10,1,4"
14519,commdev-image-keyboard-response,267,941184,learnblock1,397.19999999552965,img/planet9_right.png,9,Community 2,NA,TRUE,j,j,NA,NA,NA,2,6,"14,12,6,5,3,11,15,7,13,9,2,8,10,1,4"
14519,commdev-image-keyboard-response,268,942437,learnblock1,322.6000000014901,img/planet15_left.png,15,Community 2,NA,TRUE,f,f,NA,NA,NA,2,6,"14,12,6,5,3,11,15,7,13,9,2,8,10,1,4"
14519,commdev-image-keyboard-response,269,943692,learnblock1,439.80000000447035,img/planet11_right.png,11,Community 2,NA,FALSE,f,j,NA,NA,NA,2,6,"14,12,6,5,3,11,15,7,13,9,2,8,10,1,4"
14519,commdev-image-keyboard-response,270,944946,learnblock1,494.5,img/planet9_left.png,9,Community 2,NA,TRUE,f,f,NA,NA,NA,2,6,"14,12,6,5,3,11,15,7,13,9,2,8,10,1,4"
14519,commdev-image-keyboard-response,271,946198,learnblock1,432.70000000298023,img/planet13_left.png,13,Community 2,NA,FALSE,j,f,NA,NA,NA,2,6,"14,12,6,5,3,11,15,7,13,9,2,8,10,1,4"
14519,commdev-image-keyboard-response,272,947453,learnblock1,629.2999999970198,img/planet7_left.png,7,Community 2,NA,TRUE,f,f,NA,NA,NA,2,6,"14,12,6,5,3,11,15,7,13,9,2,8,10,1,4"
14519,commdev-image-keyboard-response,273,948706,learnblock1,403.80000000447035,img/planet9_right.png,9,Community 2,NA,TRUE,j,j,NA,NA,NA,2,6,"14,12,6,5,3,11,15,7,13,9,2,8,10,1,4"
14519,commdev-image-keyboard-response,274,949961,learnblock1,461.5,img/planet7_left.png,7,Community 2,NA,TRUE,f,f,NA,NA,NA,2,6,"14,12,6,5,3,11,15,7,13,9,2,8,10,1,4"
14519,commdev-image-keyboard-response,275,951216,learnblock1,507.5,img/planet15_left.png,15,Community 2,NA,TRUE,f,f,NA,NA,NA,2,6,"14,12,6,5,3,11,15,7,13,9,2,8,10,1,4"
14519,commdev-image-keyboard-response,276,952469,learnblock1,461.19999999552965,img/planet11_right.png,11,Community 2,NA,TRUE,j,j,NA,NA,NA,2,6,"14,12,6,5,3,11,15,7,13,9,2,8,10,1,4"
14519,commdev-image-keyboard-response,277,953720,learnblock1,519.6000000014901,img/planet15_right.png,15,Community 2,NA,FALSE,f,j,NA,NA,NA,2,6,"14,12,6,5,3,11,15,7,13,9,2,8,10,1,4"
14519,commdev-image-keyboard-response,278,954974,learnblock1,556.5,img/planet9_right.png,9,Community 2,NA,TRUE,j,j,NA,NA,NA,2,6,"14,12,6,5,3,11,15,7,13,9,2,8,10,1,4"
14519,commdev-image-keyboard-response,279,956233,learnblock1,673.5,img/planet7_right.png,7,Community 2,NA,TRUE,j,j,NA,NA,NA,2,6,"14,12,6,5,3,11,15,7,13,9,2,8,10,1,4"
14519,commdev-image-keyboard-response,280,957486,learnblock1,503.80000000447035,img/planet8_right.png,8,Community 3,NA,TRUE,j,j,NA,NA,NA,2,6,"14,12,6,5,3,11,15,7,13,9,2,8,10,1,4"
14519,commdev-image-keyboard-response,281,958740,learnblock1,541.1000000014901,img/planet4_left.png,4,Community 3,NA,TRUE,f,f,NA,NA,NA,2,6,"14,12,6,5,3,11,15,7,13,9,2,8,10,1,4"
14519,commdev-image-keyboard-response,282,959995,learnblock1,386.79999999701977,img/planet2_right.png,2,Community 3,NA,FALSE,f,j,NA,NA,NA,2,6,"14,12,6,5,3,11,15,7,13,9,2,8,10,1,4"
14519,commdev-image-keyboard-response,283,961249,learnblock1,522.3000000044703,img/planet3_left.png,3,Community 1,NA,TRUE,f,f,NA,NA,NA,2,6,"14,12,6,5,3,11,15,7,13,9,2,8,10,1,4"
14519,commdev-image-keyboard-response,284,962503,learnblock1,407.70000000298023,img/planet14_right.png,14,Community 1,NA,TRUE,j,j,NA,NA,NA,2,6,"14,12,6,5,3,11,15,7,13,9,2,8,10,1,4"
14519,commdev-image-keyboard-response,285,963762,learnblock1,553.3000000044703,img/planet5_left.png,5,Community 1,NA,TRUE,f,f,NA,NA,NA,2,6,"14,12,6,5,3,11,15,7,13,9,2,8,10,1,4"
14519,commdev-image-keyboard-response,286,965014,learnblock1,445.69999999552965,img/planet12_right.png,12,Community 1,NA,TRUE,j,j,NA,NA,NA,2,6,"14,12,6,5,3,11,15,7,13,9,2,8,10,1,4"
14519,commdev-image-keyboard-response,287,966265,learnblock1,783.2000000029802,img/planet14_right.png,14,Community 1,NA,TRUE,j,j,NA,NA,NA,2,6,"14,12,6,5,3,11,15,7,13,9,2,8,10,1,4"
14519,commdev-image-keyboard-response,288,967519,learnblock1,541.7000000029802,img/planet5_left.png,5,Community 1,NA,FALSE,j,f,NA,NA,NA,2,6,"14,12,6,5,3,11,15,7,13,9,2,8,10,1,4"
14519,commdev-image-keyboard-response,289,968773,learnblock1,508.3999999985099,img/planet11_right.png,11,Community 2,NA,TRUE,j,j,NA,NA,NA,2,6,"14,12,6,5,3,11,15,7,13,9,2,8,10,1,4"
14519,commdev-image-keyboard-response,290,970032,learnblock1,614.7000000029802,img/planet9_right.png,9,Community 2,NA,TRUE,j,j,NA,NA,NA,2,6,"14,12,6,5,3,11,15,7,13,9,2,8,10,1,4"
14519,commdev-image-keyboard-response,291,971286,learnblock1,663.8999999985099,img/planet11_right.png,11,Community 2,NA,TRUE,j,j,NA,NA,NA,2,6,"14,12,6,5,3,11,15,7,13,9,2,8,10,1,4"
14519,commdev-image-keyboard-response,292,972543,learnblock1,561.2000000029802,img/planet13_right.png,13,Community 2,NA,TRUE,j,j,NA,NA,NA,2,6,"14,12,6,5,3,11,15,7,13,9,2,8,10,1,4"
14519,commdev-image-keyboard-response,293,973796,learnblock1,724.8999999985099,img/planet15_right.png,15,Community 2,NA,TRUE,j,j,NA,NA,NA,2,6,"14,12,6,5,3,11,15,7,13,9,2,8,10,1,4"
14519,commdev-image-keyboard-response,294,975052,learnblock1,550.8000000044703,img/planet9_right.png,9,Community 2,NA,TRUE,j,j,NA,NA,NA,2,6,"14,12,6,5,3,11,15,7,13,9,2,8,10,1,4"
14519,commdev-image-keyboard-response,295,976304,learnblock1,674.3000000044703,img/planet15_right.png,15,Community 2,NA,TRUE,j,j,NA,NA,NA,2,6,"14,12,6,5,3,11,15,7,13,9,2,8,10,1,4"
14519,commdev-image-keyboard-response,296,977557,learnblock1,522,img/planet13_right.png,13,Community 2,NA,TRUE,j,j,NA,NA,NA,2,6,"14,12,6,5,3,11,15,7,13,9,2,8,10,1,4"
14519,commdev-image-keyboard-response,297,978811,learnblock1,531.4000000059605,img/planet11_left.png,11,Community 2,NA,TRUE,f,f,NA,NA,NA,2,6,"14,12,6,5,3,11,15,7,13,9,2,8,10,1,4"
14519,commdev-image-keyboard-response,298,980070,learnblock1,485.29999999701977,img/planet9_right.png,9,Community 2,NA,TRUE,j,j,NA,NA,NA,2,6,"14,12,6,5,3,11,15,7,13,9,2,8,10,1,4"
14519,commdev-image-keyboard-response,299,981322,learnblock1,476.09999999403954,img/planet11_left.png,11,Community 2,NA,TRUE,f,f,NA,NA,NA,2,6,"14,12,6,5,3,11,15,7,13,9,2,8,10,1,4"
14519,commdev-image-keyboard-response,300,982576,learnblock1,576.5,img/planet13_left.png,13,Community 2,NA,TRUE,f,f,NA,NA,NA,2,6,"14,12,6,5,3,11,15,7,13,9,2,8,10,1,4"
14519,commdev-image-keyboard-response,301,983832,learnblock1,510.29999999701977,img/planet11_left.png,11,Community 2,NA,TRUE,f,f,NA,NA,NA,2,6,"14,12,6,5,3,11,15,7,13,9,2,8,10,1,4"
14519,commdev-image-keyboard-response,302,985085,learnblock1,485.29999999701977,img/planet5_left.png,5,Community 1,NA,TRUE,f,f,NA,NA,NA,2,6,"14,12,6,5,3,11,15,7,13,9,2,8,10,1,4"
14519,commdev-image-keyboard-response,303,986338,learnblock1,463.70000000298023,img/planet14_left.png,14,Community 1,NA,TRUE,f,f,NA,NA,NA,2,6,"14,12,6,5,3,11,15,7,13,9,2,8,10,1,4"
14519,commdev-image-keyboard-response,304,987590,learnblock1,468.8999999985099,img/planet6_right.png,6,Community 1,NA,TRUE,j,j,NA,NA,NA,2,6,"14,12,6,5,3,11,15,7,13,9,2,8,10,1,4"
14519,commdev-image-keyboard-response,305,988845,learnblock1,576.6999999955297,img/planet14_left.png,14,Community 1,NA,TRUE,f,f,NA,NA,NA,2,6,"14,12,6,5,3,11,15,7,13,9,2,8,10,1,4"
14519,commdev-image-keyboard-response,306,990098,learnblock1,492,img/planet12_right.png,12,Community 1,NA,TRUE,j,j,NA,NA,NA,2,6,"14,12,6,5,3,11,15,7,13,9,2,8,10,1,4"
14519,commdev-image-keyboard-response,307,991350,learnblock1,518.8999999985099,img/planet6_left.png,6,Community 1,NA,TRUE,f,f,NA,NA,NA,2,6,"14,12,6,5,3,11,15,7,13,9,2,8,10,1,4"
14519,commdev-image-keyboard-response,308,992603,learnblock1,601.0999999940395,img/planet14_left.png,14,Community 1,NA,TRUE,f,f,NA,NA,NA,2,6,"14,12,6,5,3,11,15,7,13,9,2,8,10,1,4"
14519,commdev-image-keyboard-response,309,993855,learnblock1,502.8999999985099,img/planet6_right.png,6,Community 1,NA,TRUE,j,j,NA,NA,NA,2,6,"14,12,6,5,3,11,15,7,13,9,2,8,10,1,4"
14519,commdev-image-keyboard-response,310,995112,learnblock1,551.5,img/planet14_left.png,14,Community 1,NA,TRUE,f,f,NA,NA,NA,2,6,"14,12,6,5,3,11,15,7,13,9,2,8,10,1,4"
14519,commdev-image-keyboard-response,311,996370,learnblock1,487.5,img/planet5_left.png,5,Community 1,NA,TRUE,f,f,NA,NA,NA,2,6,"14,12,6,5,3,11,15,7,13,9,2,8,10,1,4"
14519,commdev-image-keyboard-response,312,997625,learnblock1,449,img/planet11_right.png,11,Community 2,NA,FALSE,f,j,NA,NA,NA,2,6,"14,12,6,5,3,11,15,7,13,9,2,8,10,1,4"
14519,commdev-image-keyboard-response,313,998880,learnblock1,563.5,img/planet5_left.png,5,Community 1,NA,TRUE,f,f,NA,NA,NA,2,6,"14,12,6,5,3,11,15,7,13,9,2,8,10,1,4"
14519,commdev-image-keyboard-response,314,1000132,learnblock1,446.29999999701977,img/planet12_right.png,12,Community 1,NA,TRUE,j,j,NA,NA,NA,2,6,"14,12,6,5,3,11,15,7,13,9,2,8,10,1,4"
14519,commdev-image-keyboard-response,315,1001389,learnblock1,614.3999999985099,img/planet5_left.png,5,Community 1,NA,FALSE,j,f,NA,NA,NA,2,6,"14,12,6,5,3,11,15,7,13,9,2,8,10,1,4"
14519,commdev-image-keyboard-response,316,1002644,learnblock1,700.3000000044703,img/planet11_left.png,11,Community 2,NA,TRUE,f,f,NA,NA,NA,2,6,"14,12,6,5,3,11,15,7,13,9,2,8,10,1,4"
14519,commdev-image-keyboard-response,317,1003901,learnblock1,532.6000000014901,img/planet13_left.png,13,Community 2,NA,TRUE,f,f,NA,NA,NA,2,6,"14,12,6,5,3,11,15,7,13,9,2,8,10,1,4"
14519,commdev-image-keyboard-response,318,1005154,learnblock1,436.29999999701977,img/planet7_right.png,7,Community 2,NA,TRUE,j,j,NA,NA,NA,2,6,"14,12,6,5,3,11,15,7,13,9,2,8,10,1,4"
14519,commdev-image-keyboard-response,319,1006409,learnblock1,442.6000000014901,img/planet15_left.png,15,Community 2,NA,TRUE,f,f,NA,NA,NA,2,6,"14,12,6,5,3,11,15,7,13,9,2,8,10,1,4"
14519,commdev-image-keyboard-response,320,1007666,learnblock1,619.0999999940395,img/planet7_left.png,7,Community 2,NA,TRUE,f,f,NA,NA,NA,2,6,"14,12,6,5,3,11,15,7,13,9,2,8,10,1,4"
14519,commdev-image-keyboard-response,321,1008919,learnblock1,1101.3000000044703,img/planet8_left.png,8,Community 3,NA,TRUE,f,f,NA,NA,NA,2,6,"14,12,6,5,3,11,15,7,13,9,2,8,10,1,4"
14519,commdev-image-keyboard-response,322,1010175,learnblock1,688.1000000014901,img/planet7_right.png,7,Community 2,NA,TRUE,j,j,NA,NA,NA,2,6,"14,12,6,5,3,11,15,7,13,9,2,8,10,1,4"
14519,commdev-image-keyboard-response,323,1011430,learnblock1,663.6000000014901,img/planet15_left.png,15,Community 2,NA,FALSE,j,f,NA,NA,NA,2,6,"14,12,6,5,3,11,15,7,13,9,2,8,10,1,4"
14519,commdev-image-keyboard-response,324,1012686,learnblock1,636.8999999985099,img/planet11_left.png,11,Community 2,NA,TRUE,f,f,NA,NA,NA,2,6,"14,12,6,5,3,11,15,7,13,9,2,8,10,1,4"
14519,commdev-image-keyboard-response,325,1013943,learnblock1,613.7000000029802,img/planet13_left.png,13,Community 2,NA,FALSE,j,f,NA,NA,NA,2,6,"14,12,6,5,3,11,15,7,13,9,2,8,10,1,4"
14519,commdev-image-keyboard-response,326,1015195,learnblock1,675.2000000029802,img/planet11_left.png,11,Community 2,NA,TRUE,f,f,NA,NA,NA,2,6,"14,12,6,5,3,11,15,7,13,9,2,8,10,1,4"
14519,commdev-image-keyboard-response,327,1016449,learnblock1,561.7000000029802,img/planet15_right.png,15,Community 2,NA,TRUE,j,j,NA,NA,NA,2,6,"14,12,6,5,3,11,15,7,13,9,2,8,10,1,4"
14519,commdev-image-keyboard-response,328,1017708,learnblock1,570.7000000029802,img/planet9_right.png,9,Community 2,NA,TRUE,j,j,NA,NA,NA,2,6,"14,12,6,5,3,11,15,7,13,9,2,8,10,1,4"
14519,commdev-image-keyboard-response,329,1018964,learnblock1,562.1999999955297,img/planet15_left.png,15,Community 2,NA,TRUE,f,f,NA,NA,NA,2,6,"14,12,6,5,3,11,15,7,13,9,2,8,10,1,4"
14519,commdev-image-keyboard-response,330,1020218,learnblock1,534.7999999970198,img/planet13_left.png,13,Community 2,NA,TRUE,f,f,NA,NA,NA,2,6,"14,12,6,5,3,11,15,7,13,9,2,8,10,1,4"
14519,commdev-image-keyboard-response,331,1021471,learnblock1,470.8999999985099,img/planet7_left.png,7,Community 2,NA,TRUE,f,f,NA,NA,NA,2,6,"14,12,6,5,3,11,15,7,13,9,2,8,10,1,4"
14519,commdev-image-keyboard-response,332,1022723,learnblock1,399.6000000014901,img/planet15_left.png,15,Community 2,NA,TRUE,f,f,NA,NA,NA,2,6,"14,12,6,5,3,11,15,7,13,9,2,8,10,1,4"
14519,commdev-image-keyboard-response,333,1023974,learnblock1,467.20000000298023,img/planet13_right.png,13,Community 2,NA,TRUE,j,j,NA,NA,NA,2,6,"14,12,6,5,3,11,15,7,13,9,2,8,10,1,4"
14519,commdev-image-keyboard-response,334,1025229,learnblock1,596.1000000014901,img/planet15_right.png,15,Community 2,NA,TRUE,j,j,NA,NA,NA,2,6,"14,12,6,5,3,11,15,7,13,9,2,8,10,1,4"
14519,commdev-image-keyboard-response,335,1026481,learnblock1,549.8000000044703,img/planet9_right.png,9,Community 2,NA,TRUE,j,j,NA,NA,NA,2,6,"14,12,6,5,3,11,15,7,13,9,2,8,10,1,4"
14519,commdev-image-keyboard-response,336,1027738,learnblock1,587.7000000029802,img/planet13_right.png,13,Community 2,NA,TRUE,j,j,NA,NA,NA,2,6,"14,12,6,5,3,11,15,7,13,9,2,8,10,1,4"
14519,commdev-image-keyboard-response,337,1028990,learnblock1,560.7000000029802,img/planet7_right.png,7,Community 2,NA,TRUE,j,j,NA,NA,NA,2,6,"14,12,6,5,3,11,15,7,13,9,2,8,10,1,4"
14519,commdev-image-keyboard-response,338,1030245,learnblock1,558,img/planet13_right.png,13,Community 2,NA,TRUE,j,j,NA,NA,NA,2,6,"14,12,6,5,3,11,15,7,13,9,2,8,10,1,4"
14519,commdev-image-keyboard-response,339,1031502,learnblock1,603.2000000029802,img/planet15_right.png,15,Community 2,NA,TRUE,j,j,NA,NA,NA,2,6,"14,12,6,5,3,11,15,7,13,9,2,8,10,1,4"
14519,commdev-image-keyboard-response,340,1032757,learnblock1,487.3999999985099,img/planet9_left.png,9,Community 2,NA,FALSE,j,f,NA,NA,NA,2,6,"14,12,6,5,3,11,15,7,13,9,2,8,10,1,4"
14519,commdev-image-keyboard-response,341,1034010,learnblock1,541.7999999970198,img/planet13_left.png,13,Community 2,NA,TRUE,f,f,NA,NA,NA,2,6,"14,12,6,5,3,11,15,7,13,9,2,8,10,1,4"
14519,commdev-image-keyboard-response,342,1035265,learnblock1,569.3999999985099,img/planet9_left.png,9,Community 2,NA,TRUE,f,f,NA,NA,NA,2,6,"14,12,6,5,3,11,15,7,13,9,2,8,10,1,4"
14519,commdev-image-keyboard-response,343,1036519,learnblock1,523.8999999985099,img/planet11_left.png,11,Community 2,NA,TRUE,f,f,NA,NA,NA,2,6,"14,12,6,5,3,11,15,7,13,9,2,8,10,1,4"
14519,commdev-image-keyboard-response,344,1037775,learnblock1,500.29999999701977,img/planet13_right.png,13,Community 2,NA,TRUE,j,j,NA,NA,NA,2,6,"14,12,6,5,3,11,15,7,13,9,2,8,10,1,4"
14519,commdev-image-keyboard-response,345,1039029,learnblock1,533.5,img/planet9_right.png,9,Community 2,NA,TRUE,j,j,NA,NA,NA,2,6,"14,12,6,5,3,11,15,7,13,9,2,8,10,1,4"
14519,commdev-image-keyboard-response,346,1040281,learnblock1,630.5,img/planet11_right.png,11,Community 2,NA,TRUE,j,j,NA,NA,NA,2,6,"14,12,6,5,3,11,15,7,13,9,2,8,10,1,4"
14519,commdev-image-keyboard-response,347,1041536,learnblock1,556.7000000029802,img/planet5_left.png,5,Community 1,NA,FALSE,j,f,NA,NA,NA,2,6,"14,12,6,5,3,11,15,7,13,9,2,8,10,1,4"
14519,commdev-image-keyboard-response,348,1042792,learnblock1,594.1000000014901,img/planet6_left.png,6,Community 1,NA,TRUE,f,f,NA,NA,NA,2,6,"14,12,6,5,3,11,15,7,13,9,2,8,10,1,4"
14519,commdev-image-keyboard-response,349,1044049,learnblock1,706.1000000014901,img/planet3_left.png,3,Community 1,NA,TRUE,f,f,NA,NA,NA,2,6,"14,12,6,5,3,11,15,7,13,9,2,8,10,1,4"
14519,commdev-image-keyboard-response,350,1045303,learnblock1,500.29999999701977,img/planet6_right.png,6,Community 1,NA,TRUE,j,j,NA,NA,NA,2,6,"14,12,6,5,3,11,15,7,13,9,2,8,10,1,4"
14519,commdev-image-keyboard-response,351,1046555,learnblock1,556,img/planet12_right.png,12,Community 1,NA,TRUE,j,j,NA,NA,NA,2,6,"14,12,6,5,3,11,15,7,13,9,2,8,10,1,4"
14519,commdev-image-keyboard-response,352,1047807,learnblock1,543,img/planet5_right.png,5,Community 1,NA,TRUE,j,j,NA,NA,NA,2,6,"14,12,6,5,3,11,15,7,13,9,2,8,10,1,4"
14519,commdev-image-keyboard-response,353,1049059,learnblock1,421.1000000014901,img/planet12_right.png,12,Community 1,NA,TRUE,j,j,NA,NA,NA,2,6,"14,12,6,5,3,11,15,7,13,9,2,8,10,1,4"
14519,commdev-image-keyboard-response,354,1050314,learnblock1,430.5,img/planet6_right.png,6,Community 1,NA,FALSE,f,j,NA,NA,NA,2,6,"14,12,6,5,3,11,15,7,13,9,2,8,10,1,4"
14519,commdev-image-keyboard-response,355,1051569,learnblock1,564.3000000044703,img/planet5_right.png,5,Community 1,NA,TRUE,j,j,NA,NA,NA,2,6,"14,12,6,5,3,11,15,7,13,9,2,8,10,1,4"
14519,commdev-image-keyboard-response,356,1052826,learnblock1,419.6000000014901,img/planet6_right.png,6,Community 1,NA,TRUE,j,j,NA,NA,NA,2,6,"14,12,6,5,3,11,15,7,13,9,2,8,10,1,4"
14519,commdev-image-keyboard-response,357,1054079,learnblock1,453.29999999701977,img/planet5_right.png,5,Community 1,NA,TRUE,j,j,NA,NA,NA,2,6,"14,12,6,5,3,11,15,7,13,9,2,8,10,1,4"
14519,commdev-image-keyboard-response,358,1055335,learnblock1,309,img/planet14_left.png,14,Community 1,NA,FALSE,j,f,NA,NA,NA,2,6,"14,12,6,5,3,11,15,7,13,9,2,8,10,1,4"
14519,commdev-image-keyboard-response,359,1056595,learnblock1,513.6999999955297,img/planet3_right.png,3,Community 1,NA,TRUE,j,j,NA,NA,NA,2,6,"14,12,6,5,3,11,15,7,13,9,2,8,10,1,4"
14519,commdev-image-keyboard-response,360,1057847,learnblock1,525.1000000014901,img/planet2_right.png,2,Community 3,NA,TRUE,j,j,NA,NA,NA,2,6,"14,12,6,5,3,11,15,7,13,9,2,8,10,1,4"
14519,commdev-image-keyboard-response,361,1059099,learnblock1,512.5,img/planet1_right.png,1,Community 3,NA,TRUE,j,j,NA,NA,NA,2,6,"14,12,6,5,3,11,15,7,13,9,2,8,10,1,4"
14519,commdev-image-keyboard-response,362,1060357,learnblock1,349.30000000447035,img/planet10_right.png,10,Community 3,NA,TRUE,j,j,NA,NA,NA,2,6,"14,12,6,5,3,11,15,7,13,9,2,8,10,1,4"
14519,commdev-image-keyboard-response,363,1061609,learnblock1,342.79999999701977,img/planet2_left.png,2,Community 3,NA,FALSE,j,f,NA,NA,NA,2,6,"14,12,6,5,3,11,15,7,13,9,2,8,10,1,4"
14519,commdev-image-keyboard-response,364,1062864,learnblock1,544.3999999985099,img/planet1_left.png,1,Community 3,NA,TRUE,f,f,NA,NA,NA,2,6,"14,12,6,5,3,11,15,7,13,9,2,8,10,1,4"
14519,commdev-image-keyboard-response,365,1064117,learnblock1,405.70000000298023,img/planet8_left.png,8,Community 3,NA,FALSE,j,f,NA,NA,NA,2,6,"14,12,6,5,3,11,15,7,13,9,2,8,10,1,4"
14519,commdev-image-keyboard-response,366,1065375,learnblock1,482.79999999701977,img/planet1_left.png,1,Community 3,NA,TRUE,f,f,NA,NA,NA,2,6,"14,12,6,5,3,11,15,7,13,9,2,8,10,1,4"
14519,commdev-image-keyboard-response,367,1066632,learnblock1,274.70000000298023,img/planet10_right.png,10,Community 3,NA,FALSE,f,j,NA,NA,NA,2,6,"14,12,6,5,3,11,15,7,13,9,2,8,10,1,4"
14519,commdev-image-keyboard-response,368,1067887,learnblock1,607.5,img/planet8_right.png,8,Community 3,NA,TRUE,j,j,NA,NA,NA,2,6,"14,12,6,5,3,11,15,7,13,9,2,8,10,1,4"
14519,commdev-image-keyboard-response,369,1069146,learnblock1,532.2999999970198,img/planet7_left.png,7,Community 2,NA,TRUE,f,f,NA,NA,NA,2,6,"14,12,6,5,3,11,15,7,13,9,2,8,10,1,4"
14519,commdev-image-keyboard-response,370,1070406,learnblock1,676.3999999985099,img/planet9_left.png,9,Community 2,NA,TRUE,f,f,NA,NA,NA,2,6,"14,12,6,5,3,11,15,7,13,9,2,8,10,1,4"
14519,commdev-image-keyboard-response,371,1071660,learnblock1,622.6000000014901,img/planet11_right.png,11,Community 2,NA,TRUE,j,j,NA,NA,NA,2,6,"14,12,6,5,3,11,15,7,13,9,2,8,10,1,4"
14519,commdev-image-keyboard-response,372,1072913,learnblock1,589.3999999985099,img/planet9_right.png,9,Community 2,NA,TRUE,j,j,NA,NA,NA,2,6,"14,12,6,5,3,11,15,7,13,9,2,8,10,1,4"
14519,commdev-image-keyboard-response,373,1074174,learnblock1,496.3999999985099,img/planet7_left.png,7,Community 2,NA,TRUE,f,f,NA,NA,NA,2,6,"14,12,6,5,3,11,15,7,13,9,2,8,10,1,4"
14519,commdev-image-keyboard-response,374,1075426,learnblock1,536.8999999985099,img/planet15_left.png,15,Community 2,NA,FALSE,j,f,NA,NA,NA,2,6,"14,12,6,5,3,11,15,7,13,9,2,8,10,1,4"
14519,commdev-image-keyboard-response,375,1076677,learnblock1,664.6000000014901,img/planet13_left.png,13,Community 2,NA,TRUE,f,f,NA,NA,NA,2,6,"14,12,6,5,3,11,15,7,13,9,2,8,10,1,4"
14519,commdev-image-keyboard-response,376,1077929,learnblock1,585.1000000014901,img/planet7_left.png,7,Community 2,NA,TRUE,f,f,NA,NA,NA,2,6,"14,12,6,5,3,11,15,7,13,9,2,8,10,1,4"
14519,commdev-image-keyboard-response,377,1079182,learnblock1,926.1000000014901,img/planet15_left.png,15,Community 2,NA,TRUE,f,f,NA,NA,NA,2,6,"14,12,6,5,3,11,15,7,13,9,2,8,10,1,4"
14519,commdev-image-keyboard-response,378,1080437,learnblock1,682,img/planet9_right.png,9,Community 2,NA,TRUE,j,j,NA,NA,NA,2,6,"14,12,6,5,3,11,15,7,13,9,2,8,10,1,4"
14519,commdev-image-keyboard-response,379,1081690,learnblock1,847.3999999985099,img/planet15_right.png,15,Community 2,NA,TRUE,j,j,NA,NA,NA,2,6,"14,12,6,5,3,11,15,7,13,9,2,8,10,1,4"
14519,commdev-image-keyboard-response,380,1082943,learnblock1,554.0999999940395,img/planet9_right.png,9,Community 2,NA,TRUE,j,j,NA,NA,NA,2,6,"14,12,6,5,3,11,15,7,13,9,2,8,10,1,4"
14519,commdev-image-keyboard-response,381,1084196,learnblock1,811.2999999970198,img/planet13_right.png,13,Community 2,NA,FALSE,f,j,NA,NA,NA,2,6,"14,12,6,5,3,11,15,7,13,9,2,8,10,1,4"
14519,commdev-image-keyboard-response,382,1085450,learnblock1,687.6000000014901,img/planet7_right.png,7,Community 2,NA,TRUE,j,j,NA,NA,NA,2,6,"14,12,6,5,3,11,15,7,13,9,2,8,10,1,4"
14519,commdev-image-keyboard-response,383,1086704,learnblock1,554.6000000014901,img/planet8_right.png,8,Community 3,NA,TRUE,j,j,NA,NA,NA,2,6,"14,12,6,5,3,11,15,7,13,9,2,8,10,1,4"
14519,commdev-image-keyboard-response,384,1087961,learnblock1,701.6000000014901,img/planet7_left.png,7,Community 2,NA,TRUE,f,f,NA,NA,NA,2,6,"14,12,6,5,3,11,15,7,13,9,2,8,10,1,4"
14519,commdev-image-keyboard-response,385,1089218,learnblock1,541.8999999985099,img/planet13_right.png,13,Community 2,NA,TRUE,j,j,NA,NA,NA,2,6,"14,12,6,5,3,11,15,7,13,9,2,8,10,1,4"
14519,commdev-image-keyboard-response,386,1090472,learnblock1,485.5,img/planet11_left.png,11,Community 2,NA,TRUE,f,f,NA,NA,NA,2,6,"14,12,6,5,3,11,15,7,13,9,2,8,10,1,4"
14519,commdev-image-keyboard-response,387,1091726,learnblock1,412.1000000014901,img/planet5_right.png,5,Community 1,NA,TRUE,j,j,NA,NA,NA,2,6,"14,12,6,5,3,11,15,7,13,9,2,8,10,1,4"
14519,commdev-image-keyboard-response,388,1092983,learnblock1,877.2999999970198,img/planet14_right.png,14,Community 1,NA,TRUE,j,j,NA,NA,NA,2,6,"14,12,6,5,3,11,15,7,13,9,2,8,10,1,4"
14519,commdev-image-keyboard-response,389,1094240,learnblock1,551.6999999955297,img/planet5_right.png,5,Community 1,NA,TRUE,j,j,NA,NA,NA,2,6,"14,12,6,5,3,11,15,7,13,9,2,8,10,1,4"
14519,commdev-image-keyboard-response,390,1095496,learnblock1,544.6999999955297,img/planet6_right.png,6,Community 1,NA,TRUE,j,j,NA,NA,NA,2,6,"14,12,6,5,3,11,15,7,13,9,2,8,10,1,4"
14519,commdev-image-keyboard-response,391,1096752,learnblock1,539.5,img/planet12_right.png,12,Community 1,NA,TRUE,j,j,NA,NA,NA,2,6,"14,12,6,5,3,11,15,7,13,9,2,8,10,1,4"
14519,commdev-image-keyboard-response,392,1098008,learnblock1,521.5,img/planet6_left.png,6,Community 1,NA,FALSE,j,f,NA,NA,NA,2,6,"14,12,6,5,3,11,15,7,13,9,2,8,10,1,4"
14519,commdev-image-keyboard-response,393,1099266,learnblock1,536.3000000044703,img/planet12_right.png,12,Community 1,NA,TRUE,j,j,NA,NA,NA,2,6,"14,12,6,5,3,11,15,7,13,9,2,8,10,1,4"
14519,commdev-image-keyboard-response,394,1100520,learnblock1,628,img/planet3_right.png,3,Community 1,NA,TRUE,j,j,NA,NA,NA,2,6,"14,12,6,5,3,11,15,7,13,9,2,8,10,1,4"
14519,commdev-image-keyboard-response,395,1101772,learnblock1,425.5,img/planet12_right.png,12,Community 1,NA,TRUE,j,j,NA,NA,NA,2,6,"14,12,6,5,3,11,15,7,13,9,2,8,10,1,4"
14519,commdev-image-keyboard-response,396,1103027,learnblock1,461.6000000014901,img/planet14_left.png,14,Community 1,NA,FALSE,j,f,NA,NA,NA,2,6,"14,12,6,5,3,11,15,7,13,9,2,8,10,1,4"
14519,commdev-image-keyboard-response,397,1104284,learnblock1,16.899999998509884,img/planet6_left.png,6,Community 1,NA,FALSE,j,f,NA,NA,NA,2,6,"14,12,6,5,3,11,15,7,13,9,2,8,10,1,4"
14519,commdev-image-keyboard-response,398,1105536,learnblock1,130.30000000447035,img/planet3_left.png,3,Community 1,NA,TRUE,f,f,NA,NA,NA,2,6,"14,12,6,5,3,11,15,7,13,9,2,8,10,1,4"
14519,commdev-image-keyboard-response,399,1106791,learnblock1,158.10000000149012,img/planet2_left.png,2,Community 3,NA,TRUE,f,f,NA,NA,NA,2,6,"14,12,6,5,3,11,15,7,13,9,2,8,10,1,4"
14519,commdev-image-keyboard-response,400,1108043,learnblock1,332.79999999701977,img/planet4_left.png,4,Community 3,NA,TRUE,f,f,NA,NA,NA,2,6,"14,12,6,5,3,11,15,7,13,9,2,8,10,1,4"
14519,commdev-image-keyboard-response,401,1109295,learnblock1,291,img/planet10_left.png,10,Community 3,NA,TRUE,f,f,NA,NA,NA,2,6,"14,12,6,5,3,11,15,7,13,9,2,8,10,1,4"
14519,commdev-image-keyboard-response,402,1110573,learnblock1,509.79999999701977,img/planet1_left.png,1,Community 3,NA,TRUE,f,f,NA,NA,NA,2,6,"14,12,6,5,3,11,15,7,13,9,2,8,10,1,4"
14519,commdev-image-keyboard-response,403,1111829,learnblock1,522.2000000029802,img/planet2_right.png,2,Community 3,NA,FALSE,f,j,NA,NA,NA,2,6,"14,12,6,5,3,11,15,7,13,9,2,8,10,1,4"
14519,commdev-image-keyboard-response,404,1113088,learnblock1,544.6000000014901,img/planet10_left.png,10,Community 3,NA,TRUE,f,f,NA,NA,NA,2,6,"14,12,6,5,3,11,15,7,13,9,2,8,10,1,4"
14519,commdev-image-keyboard-response,405,1114347,learnblock1,728,img/planet1_right.png,1,Community 3,NA,TRUE,j,j,NA,NA,NA,2,6,"14,12,6,5,3,11,15,7,13,9,2,8,10,1,4"
14519,commdev-image-keyboard-response,406,1115601,learnblock1,607.4000000059605,img/planet10_right.png,10,Community 3,NA,TRUE,j,j,NA,NA,NA,2,6,"14,12,6,5,3,11,15,7,13,9,2,8,10,1,4"
14519,commdev-image-keyboard-response,407,1116855,learnblock1,693.7000000029802,img/planet4_right.png,4,Community 3,NA,TRUE,j,j,NA,NA,NA,2,6,"14,12,6,5,3,11,15,7,13,9,2,8,10,1,4"
14519,commdev-image-keyboard-response,408,1118109,learnblock1,421.1000000014901,img/planet1_right.png,1,Community 3,NA,TRUE,j,j,NA,NA,NA,2,6,"14,12,6,5,3,11,15,7,13,9,2,8,10,1,4"
14519,commdev-image-keyboard-response,409,1119362,learnblock1,484.5,img/planet2_right.png,2,Community 3,NA,TRUE,j,j,NA,NA,NA,2,6,"14,12,6,5,3,11,15,7,13,9,2,8,10,1,4"
14519,commdev-image-keyboard-response,410,1120614,learnblock1,661.8999999985099,img/planet10_right.png,10,Community 3,NA,FALSE,f,j,NA,NA,NA,2,6,"14,12,6,5,3,11,15,7,13,9,2,8,10,1,4"
14519,commdev-image-keyboard-response,411,1121870,learnblock1,488,img/planet4_left.png,4,Community 3,NA,FALSE,j,f,NA,NA,NA,2,6,"14,12,6,5,3,11,15,7,13,9,2,8,10,1,4"
14519,commdev-image-keyboard-response,412,1123124,learnblock1,602.9000000059605,img/planet2_right.png,2,Community 3,NA,TRUE,j,j,NA,NA,NA,2,6,"14,12,6,5,3,11,15,7,13,9,2,8,10,1,4"
14519,commdev-image-keyboard-response,413,1124378,learnblock1,539.7999999970198,img/planet4_right.png,4,Community 3,NA,TRUE,j,j,NA,NA,NA,2,6,"14,12,6,5,3,11,15,7,13,9,2,8,10,1,4"
14519,commdev-image-keyboard-response,414,1125632,learnblock1,545.7000000029802,img/planet8_right.png,8,Community 3,NA,TRUE,j,j,NA,NA,NA,2,6,"14,12,6,5,3,11,15,7,13,9,2,8,10,1,4"
14519,commdev-image-keyboard-response,415,1126884,learnblock1,751.7000000029802,img/planet10_left.png,10,Community 3,NA,TRUE,f,f,NA,NA,NA,2,6,"14,12,6,5,3,11,15,7,13,9,2,8,10,1,4"
14519,commdev-image-keyboard-response,416,1128140,learnblock1,651.5,img/planet1_left.png,1,Community 3,NA,TRUE,f,f,NA,NA,NA,2,6,"14,12,6,5,3,11,15,7,13,9,2,8,10,1,4"
14519,commdev-image-keyboard-response,417,1129393,learnblock1,463.8999999985099,img/planet4_right.png,4,Community 3,NA,TRUE,j,j,NA,NA,NA,2,6,"14,12,6,5,3,11,15,7,13,9,2,8,10,1,4"
14519,commdev-image-keyboard-response,418,1130649,learnblock1,482.30000000447035,img/planet10_left.png,10,Community 3,NA,TRUE,f,f,NA,NA,NA,2,6,"14,12,6,5,3,11,15,7,13,9,2,8,10,1,4"
14519,commdev-image-keyboard-response,419,1131902,learnblock1,556.2000000029802,img/planet4_left.png,4,Community 3,NA,TRUE,f,f,NA,NA,NA,2,6,"14,12,6,5,3,11,15,7,13,9,2,8,10,1,4"
14519,commdev-image-keyboard-response,420,1133158,learnblock1,532.7999999970198,img/planet1_left.png,1,Community 3,NA,TRUE,f,f,NA,NA,NA,2,6,"14,12,6,5,3,11,15,7,13,9,2,8,10,1,4"
14519,commdev-image-keyboard-response,421,1134412,learnblock1,466.40000000596046,img/planet2_right.png,2,Community 3,NA,TRUE,j,j,NA,NA,NA,2,6,"14,12,6,5,3,11,15,7,13,9,2,8,10,1,4"
14519,commdev-image-keyboard-response,422,1135670,learnblock1,502.3999999985099,img/planet3_left.png,3,Community 1,NA,FALSE,j,f,NA,NA,NA,2,6,"14,12,6,5,3,11,15,7,13,9,2,8,10,1,4"
14519,commdev-image-keyboard-response,423,1136926,learnblock1,576.3000000044703,img/planet2_right.png,2,Community 3,NA,TRUE,j,j,NA,NA,NA,2,6,"14,12,6,5,3,11,15,7,13,9,2,8,10,1,4"
14519,commdev-image-keyboard-response,424,1138182,learnblock1,506.6000000014901,img/planet3_left.png,3,Community 1,NA,TRUE,f,f,NA,NA,NA,2,6,"14,12,6,5,3,11,15,7,13,9,2,8,10,1,4"
14519,commdev-image-keyboard-response,425,1139434,learnblock1,524,img/planet12_left.png,12,Community 1,NA,FALSE,j,f,NA,NA,NA,2,6,"14,12,6,5,3,11,15,7,13,9,2,8,10,1,4"
14519,commdev-image-keyboard-response,426,1140692,learnblock1,735.2000000029802,img/planet14_left.png,14,Community 1,NA,FALSE,j,f,NA,NA,NA,2,6,"14,12,6,5,3,11,15,7,13,9,2,8,10,1,4"
14519,commdev-image-keyboard-response,427,1141945,learnblock1,516,img/planet5_left.png,5,Community 1,NA,TRUE,f,f,NA,NA,NA,2,6,"14,12,6,5,3,11,15,7,13,9,2,8,10,1,4"
14519,commdev-image-keyboard-response,428,1143200,learnblock1,482.5,img/planet11_left.png,11,Community 2,NA,TRUE,f,f,NA,NA,NA,2,6,"14,12,6,5,3,11,15,7,13,9,2,8,10,1,4"
14519,commdev-image-keyboard-response,429,1144455,learnblock1,505.1000000014901,img/planet15_left.png,15,Community 2,NA,TRUE,f,f,NA,NA,NA,2,6,"14,12,6,5,3,11,15,7,13,9,2,8,10,1,4"
14519,commdev-image-keyboard-response,430,1145709,learnblock1,483.70000000298023,img/planet13_left.png,13,Community 2,NA,TRUE,f,f,NA,NA,NA,2,6,"14,12,6,5,3,11,15,7,13,9,2,8,10,1,4"
14519,commdev-image-keyboard-response,431,1146963,learnblock1,497.79999999701977,img/planet15_right.png,15,Community 2,NA,TRUE,j,j,NA,NA,NA,2,6,"14,12,6,5,3,11,15,7,13,9,2,8,10,1,4"
14519,commdev-image-keyboard-response,432,1148215,learnblock1,513.8000000044703,img/planet7_left.png,7,Community 2,NA,TRUE,f,f,NA,NA,NA,2,6,"14,12,6,5,3,11,15,7,13,9,2,8,10,1,4"
14519,commdev-image-keyboard-response,433,1149469,learnblock1,623.1000000014901,img/planet15_right.png,15,Community 2,NA,TRUE,j,j,NA,NA,NA,2,6,"14,12,6,5,3,11,15,7,13,9,2,8,10,1,4"
14519,commdev-image-keyboard-response,434,1150724,learnblock1,699.5,img/planet9_right.png,9,Community 2,NA,TRUE,j,j,NA,NA,NA,2,6,"14,12,6,5,3,11,15,7,13,9,2,8,10,1,4"
14519,commdev-image-keyboard-response,435,1151977,learnblock1,503,img/planet7_left.png,7,Community 2,NA,TRUE,f,f,NA,NA,NA,2,6,"14,12,6,5,3,11,15,7,13,9,2,8,10,1,4"
14519,commdev-image-keyboard-response,436,1153234,learnblock1,652.2999999970198,img/planet13_right.png,13,Community 2,NA,TRUE,j,j,NA,NA,NA,2,6,"14,12,6,5,3,11,15,7,13,9,2,8,10,1,4"
14519,commdev-image-keyboard-response,437,1154486,learnblock1,502.8999999985099,img/planet11_left.png,11,Community 2,NA,TRUE,f,f,NA,NA,NA,2,6,"14,12,6,5,3,11,15,7,13,9,2,8,10,1,4"
14519,commdev-image-keyboard-response,438,1155743,learnblock1,442.59999999403954,img/planet15_right.png,15,Community 2,NA,TRUE,j,j,NA,NA,NA,2,6,"14,12,6,5,3,11,15,7,13,9,2,8,10,1,4"
14519,commdev-image-keyboard-response,439,1156997,learnblock1,552.7999999970198,img/planet9_right.png,9,Community 2,NA,TRUE,j,j,NA,NA,NA,2,6,"14,12,6,5,3,11,15,7,13,9,2,8,10,1,4"
14519,commdev-image-keyboard-response,440,1158249,learnblock1,811.8999999985099,img/planet11_right.png,11,Community 2,NA,TRUE,j,j,NA,NA,NA,2,6,"14,12,6,5,3,11,15,7,13,9,2,8,10,1,4"
14519,commdev-image-keyboard-response,441,1159502,learnblock1,678.3999999985099,img/planet9_left.png,9,Community 2,NA,TRUE,f,f,NA,NA,NA,2,6,"14,12,6,5,3,11,15,7,13,9,2,8,10,1,4"
14519,commdev-image-keyboard-response,442,1160757,learnblock1,655.6999999955297,img/planet11_left.png,11,Community 2,NA,TRUE,f,f,NA,NA,NA,2,6,"14,12,6,5,3,11,15,7,13,9,2,8,10,1,4"
14519,commdev-image-keyboard-response,443,1162012,learnblock1,450.5,img/planet5_right.png,5,Community 1,NA,TRUE,j,j,NA,NA,NA,2,6,"14,12,6,5,3,11,15,7,13,9,2,8,10,1,4"
14519,commdev-image-keyboard-response,444,1163266,learnblock1,706.3999999985099,img/planet6_left.png,6,Community 1,NA,TRUE,f,f,NA,NA,NA,2,6,"14,12,6,5,3,11,15,7,13,9,2,8,10,1,4"
14519,commdev-image-keyboard-response,445,1164518,learnblock1,833.3999999985099,img/planet12_left.png,12,Community 1,NA,TRUE,f,f,NA,NA,NA,2,6,"14,12,6,5,3,11,15,7,13,9,2,8,10,1,4"
14519,commdev-image-keyboard-response,446,1165774,learnblock1,599.0999999940395,img/planet14_right.png,14,Community 1,NA,TRUE,j,j,NA,NA,NA,2,6,"14,12,6,5,3,11,15,7,13,9,2,8,10,1,4"
14519,commdev-image-keyboard-response,447,1167028,learnblock1,564.3999999985099,img/planet5_right.png,5,Community 1,NA,TRUE,j,j,NA,NA,NA,2,6,"14,12,6,5,3,11,15,7,13,9,2,8,10,1,4"
14519,commdev-image-keyboard-response,448,1168282,learnblock1,498.29999999701977,img/planet12_right.png,12,Community 1,NA,TRUE,j,j,NA,NA,NA,2,6,"14,12,6,5,3,11,15,7,13,9,2,8,10,1,4"
14519,commdev-image-keyboard-response,449,1169537,learnblock1,463.70000000298023,img/planet3_left.png,3,Community 1,NA,FALSE,j,f,NA,NA,NA,2,6,"14,12,6,5,3,11,15,7,13,9,2,8,10,1,4"
14519,commdev-image-keyboard-response,453,1185356,learnblock2,754.2000000029802,img/planet8_right.png,8,Community 3,NA,TRUE,j,j,NA,NA,NA,2,6,"14,12,6,5,3,11,15,7,13,9,2,8,10,1,4"
14519,commdev-image-keyboard-response,454,1186610,learnblock2,661.7000000029802,img/planet7_left.png,7,Community 2,NA,TRUE,f,f,NA,NA,NA,2,6,"14,12,6,5,3,11,15,7,13,9,2,8,10,1,4"
14519,commdev-image-keyboard-response,455,1187865,learnblock2,796.8999999985099,img/planet13_right.png,13,Community 2,NA,TRUE,j,j,NA,NA,NA,2,6,"14,12,6,5,3,11,15,7,13,9,2,8,10,1,4"
14519,commdev-image-keyboard-response,456,1189119,learnblock2,672.1999999955297,img/planet7_right.png,7,Community 2,NA,TRUE,j,j,NA,NA,NA,2,6,"14,12,6,5,3,11,15,7,13,9,2,8,10,1,4"
14519,commdev-image-keyboard-response,457,1190371,learnblock2,608.6000000014901,img/planet15_left.png,15,Community 2,NA,TRUE,f,f,NA,NA,NA,2,6,"14,12,6,5,3,11,15,7,13,9,2,8,10,1,4"
14519,commdev-image-keyboard-response,458,1191626,learnblock2,655.1999999955297,img/planet7_right.png,7,Community 2,NA,TRUE,j,j,NA,NA,NA,2,6,"14,12,6,5,3,11,15,7,13,9,2,8,10,1,4"
14519,commdev-image-keyboard-response,459,1192880,learnblock2,631.0999999940395,img/planet9_right.png,9,Community 2,NA,TRUE,j,j,NA,NA,NA,2,6,"14,12,6,5,3,11,15,7,13,9,2,8,10,1,4"
14519,commdev-image-keyboard-response,460,1194135,learnblock2,559,img/planet7_left.png,7,Community 2,NA,TRUE,f,f,NA,NA,NA,2,6,"14,12,6,5,3,11,15,7,13,9,2,8,10,1,4"
14519,commdev-image-keyboard-response,461,1195389,learnblock2,622.6000000014901,img/planet13_right.png,13,Community 2,NA,TRUE,j,j,NA,NA,NA,2,6,"14,12,6,5,3,11,15,7,13,9,2,8,10,1,4"
14519,commdev-image-keyboard-response,462,1196646,learnblock2,527.6000000014901,img/planet11_left.png,11,Community 2,NA,TRUE,f,f,NA,NA,NA,2,6,"14,12,6,5,3,11,15,7,13,9,2,8,10,1,4"
14519,commdev-image-keyboard-response,463,1197910,learnblock2,740.3000000044703,img/planet13_left.png,13,Community 2,NA,TRUE,f,f,NA,NA,NA,2,6,"14,12,6,5,3,11,15,7,13,9,2,8,10,1,4"
14519,commdev-image-keyboard-response,464,1199166,learnblock2,468.6000000014901,img/planet15_right.png,15,Community 2,NA,TRUE,j,j,NA,NA,NA,2,6,"14,12,6,5,3,11,15,7,13,9,2,8,10,1,4"
14519,commdev-image-keyboard-response,465,1200425,learnblock2,822.1999999955297,img/planet7_right.png,7,Community 2,NA,TRUE,j,j,NA,NA,NA,2,6,"14,12,6,5,3,11,15,7,13,9,2,8,10,1,4"
14519,commdev-image-keyboard-response,466,1201678,learnblock2,761.5,img/planet15_right.png,15,Community 2,NA,TRUE,j,j,NA,NA,NA,2,6,"14,12,6,5,3,11,15,7,13,9,2,8,10,1,4"
14519,commdev-image-keyboard-response,467,1202931,learnblock2,639.2000000029802,img/planet13_right.png,13,Community 2,NA,TRUE,j,j,NA,NA,NA,2,6,"14,12,6,5,3,11,15,7,13,9,2,8,10,1,4"
14519,commdev-image-keyboard-response,468,1204183,learnblock2,586.1000000014901,img/planet9_right.png,9,Community 2,NA,TRUE,j,j,NA,NA,NA,2,6,"14,12,6,5,3,11,15,7,13,9,2,8,10,1,4"
14519,commdev-image-keyboard-response,469,1205436,learnblock2,655.6000000014901,img/planet15_left.png,15,Community 2,NA,TRUE,f,f,NA,NA,NA,2,6,"14,12,6,5,3,11,15,7,13,9,2,8,10,1,4"
14519,commdev-image-keyboard-response,470,1206689,learnblock2,644.5,img/planet9_left.png,9,Community 2,NA,TRUE,f,f,NA,NA,NA,2,6,"14,12,6,5,3,11,15,7,13,9,2,8,10,1,4"
14519,commdev-image-keyboard-response,471,1207949,learnblock2,679.2000000029802,img/planet15_left.png,15,Community 2,NA,TRUE,f,f,NA,NA,NA,2,6,"14,12,6,5,3,11,15,7,13,9,2,8,10,1,4"
14519,commdev-image-keyboard-response,472,1209208,learnblock2,537.0999999940395,img/planet13_right.png,13,Community 2,NA,TRUE,j,j,NA,NA,NA,2,6,"14,12,6,5,3,11,15,7,13,9,2,8,10,1,4"
14519,commdev-image-keyboard-response,473,1210466,learnblock2,549.2999999970198,img/planet11_left.png,11,Community 2,NA,TRUE,f,f,NA,NA,NA,2,6,"14,12,6,5,3,11,15,7,13,9,2,8,10,1,4"
14519,commdev-image-keyboard-response,474,1211718,learnblock2,652.5,img/planet15_left.png,15,Community 2,NA,TRUE,f,f,NA,NA,NA,2,6,"14,12,6,5,3,11,15,7,13,9,2,8,10,1,4"
14519,commdev-image-keyboard-response,475,1212970,learnblock2,529.8000000044703,img/planet11_right.png,11,Community 2,NA,TRUE,j,j,NA,NA,NA,2,6,"14,12,6,5,3,11,15,7,13,9,2,8,10,1,4"
14519,commdev-image-keyboard-response,476,1214227,learnblock2,600.8000000044703,img/planet15_left.png,15,Community 2,NA,TRUE,f,f,NA,NA,NA,2,6,"14,12,6,5,3,11,15,7,13,9,2,8,10,1,4"
14519,commdev-image-keyboard-response,477,1215482,learnblock2,661.2000000029802,img/planet11_left.png,11,Community 2,NA,TRUE,f,f,NA,NA,NA,2,6,"14,12,6,5,3,11,15,7,13,9,2,8,10,1,4"
14519,commdev-image-keyboard-response,478,1216739,learnblock2,667.1999999955297,img/planet9_left.png,9,Community 2,NA,TRUE,f,f,NA,NA,NA,2,6,"14,12,6,5,3,11,15,7,13,9,2,8,10,1,4"
14519,commdev-image-keyboard-response,479,1217996,learnblock2,660.2000000029802,img/planet11_right.png,11,Community 2,NA,TRUE,j,j,NA,NA,NA,2,6,"14,12,6,5,3,11,15,7,13,9,2,8,10,1,4"
14519,commdev-image-keyboard-response,480,1219249,learnblock2,743.3999999985099,img/planet9_right.png,9,Community 2,NA,TRUE,j,j,NA,NA,NA,2,6,"14,12,6,5,3,11,15,7,13,9,2,8,10,1,4"
14519,commdev-image-keyboard-response,481,1220503,learnblock2,798.5,img/planet13_left.png,13,Community 2,NA,TRUE,f,f,NA,NA,NA,2,6,"14,12,6,5,3,11,15,7,13,9,2,8,10,1,4"
14519,commdev-image-keyboard-response,482,1221759,learnblock2,714.6999999955297,img/planet9_right.png,9,Community 2,NA,TRUE,j,j,NA,NA,NA,2,6,"14,12,6,5,3,11,15,7,13,9,2,8,10,1,4"
14519,commdev-image-keyboard-response,483,1223014,learnblock2,738.3999999985099,img/planet7_right.png,7,Community 2,NA,TRUE,j,j,NA,NA,NA,2,6,"14,12,6,5,3,11,15,7,13,9,2,8,10,1,4"
14519,commdev-image-keyboard-response,484,1224268,learnblock2,644.4000000059605,img/planet9_left.png,9,Community 2,NA,TRUE,f,f,NA,NA,NA,2,6,"14,12,6,5,3,11,15,7,13,9,2,8,10,1,4"
14519,commdev-image-keyboard-response,485,1225524,learnblock2,700.1000000014901,img/planet15_right.png,15,Community 2,NA,TRUE,j,j,NA,NA,NA,2,6,"14,12,6,5,3,11,15,7,13,9,2,8,10,1,4"
14519,commdev-image-keyboard-response,486,1226779,learnblock2,784.3999999985099,img/planet13_left.png,13,Community 2,NA,TRUE,f,f,NA,NA,NA,2,6,"14,12,6,5,3,11,15,7,13,9,2,8,10,1,4"
14519,commdev-image-keyboard-response,487,1228032,learnblock2,718.6000000014901,img/planet15_right.png,15,Community 2,NA,TRUE,j,j,NA,NA,NA,2,6,"14,12,6,5,3,11,15,7,13,9,2,8,10,1,4"
14519,commdev-image-keyboard-response,488,1229291,learnblock2,736.6999999955297,img/planet13_right.png,13,Community 2,NA,TRUE,j,j,NA,NA,NA,2,6,"14,12,6,5,3,11,15,7,13,9,2,8,10,1,4"
14519,commdev-image-keyboard-response,489,1230547,learnblock2,576.7000000029802,img/planet11_right.png,11,Community 2,NA,TRUE,j,j,NA,NA,NA,2,6,"14,12,6,5,3,11,15,7,13,9,2,8,10,1,4"
14519,commdev-image-keyboard-response,490,1231804,learnblock2,621.2000000029802,img/planet5_right.png,5,Community 1,NA,TRUE,j,j,NA,NA,NA,2,6,"14,12,6,5,3,11,15,7,13,9,2,8,10,1,4"
14519,commdev-image-keyboard-response,491,1233059,learnblock2,763.6000000014901,img/planet12_left.png,12,Community 1,NA,TRUE,f,f,NA,NA,NA,2,6,"14,12,6,5,3,11,15,7,13,9,2,8,10,1,4"
14519,commdev-image-keyboard-response,492,1234310,learnblock2,598.8000000044703,img/planet5_right.png,5,Community 1,NA,TRUE,j,j,NA,NA,NA,2,6,"14,12,6,5,3,11,15,7,13,9,2,8,10,1,4"
14519,commdev-image-keyboard-response,493,1235562,learnblock2,658.9000000059605,img/planet6_right.png,6,Community 1,NA,TRUE,j,j,NA,NA,NA,2,6,"14,12,6,5,3,11,15,7,13,9,2,8,10,1,4"
14519,commdev-image-keyboard-response,494,1236814,learnblock2,646.6999999955297,img/planet3_left.png,3,Community 1,NA,TRUE,f,f,NA,NA,NA,2,6,"14,12,6,5,3,11,15,7,13,9,2,8,10,1,4"
14519,commdev-image-keyboard-response,495,1238070,learnblock2,644.2000000029802,img/planet12_right.png,12,Community 1,NA,TRUE,j,j,NA,NA,NA,2,6,"14,12,6,5,3,11,15,7,13,9,2,8,10,1,4"
14519,commdev-image-keyboard-response,496,1239322,learnblock2,600.5,img/planet3_left.png,3,Community 1,NA,TRUE,f,f,NA,NA,NA,2,6,"14,12,6,5,3,11,15,7,13,9,2,8,10,1,4"
14519,commdev-image-keyboard-response,497,1240577,learnblock2,736.6000000014901,img/planet14_right.png,14,Community 1,NA,FALSE,f,j,NA,NA,NA,2,6,"14,12,6,5,3,11,15,7,13,9,2,8,10,1,4"
14519,commdev-image-keyboard-response,498,1241830,learnblock2,741.3999999985099,img/planet6_left.png,6,Community 1,NA,TRUE,f,f,NA,NA,NA,2,6,"14,12,6,5,3,11,15,7,13,9,2,8,10,1,4"
14519,commdev-image-keyboard-response,499,1243082,learnblock2,638.1000000014901,img/planet5_left.png,5,Community 1,NA,TRUE,f,f,NA,NA,NA,2,6,"14,12,6,5,3,11,15,7,13,9,2,8,10,1,4"
14519,commdev-image-keyboard-response,500,1244340,learnblock2,595.7000000029802,img/planet6_left.png,6,Community 1,NA,TRUE,f,f,NA,NA,NA,2,6,"14,12,6,5,3,11,15,7,13,9,2,8,10,1,4"
14519,commdev-image-keyboard-response,501,1245592,learnblock2,701.6999999955297,img/planet14_left.png,14,Community 1,NA,TRUE,f,f,NA,NA,NA,2,6,"14,12,6,5,3,11,15,7,13,9,2,8,10,1,4"
14519,commdev-image-keyboard-response,502,1246847,learnblock2,625.3999999985099,img/planet6_left.png,6,Community 1,NA,TRUE,f,f,NA,NA,NA,2,6,"14,12,6,5,3,11,15,7,13,9,2,8,10,1,4"
14519,commdev-image-keyboard-response,503,1248101,learnblock2,812.8999999985099,img/planet12_left.png,12,Community 1,NA,TRUE,f,f,NA,NA,NA,2,6,"14,12,6,5,3,11,15,7,13,9,2,8,10,1,4"
14519,commdev-image-keyboard-response,504,1249353,learnblock2,746.6000000014901,img/planet14_left.png,14,Community 1,NA,TRUE,f,f,NA,NA,NA,2,6,"14,12,6,5,3,11,15,7,13,9,2,8,10,1,4"
14519,commdev-image-keyboard-response,505,1250606,learnblock2,876,img/planet6_left.png,6,Community 1,NA,TRUE,f,f,NA,NA,NA,2,6,"14,12,6,5,3,11,15,7,13,9,2,8,10,1,4"
14519,commdev-image-keyboard-response,506,1251863,learnblock2,622.7000000029802,img/planet3_left.png,3,Community 1,NA,TRUE,f,f,NA,NA,NA,2,6,"14,12,6,5,3,11,15,7,13,9,2,8,10,1,4"
14519,commdev-image-keyboard-response,507,1253120,learnblock2,634.3999999985099,img/planet6_left.png,6,Community 1,NA,TRUE,f,f,NA,NA,NA,2,6,"14,12,6,5,3,11,15,7,13,9,2,8,10,1,4"
14519,commdev-image-keyboard-response,508,1254375,learnblock2,768.1999999955297,img/planet3_right.png,3,Community 1,NA,TRUE,j,j,NA,NA,NA,2,6,"14,12,6,5,3,11,15,7,13,9,2,8,10,1,4"
14519,commdev-image-keyboard-response,509,1255632,learnblock2,662.8000000044703,img/planet12_right.png,12,Community 1,NA,TRUE,j,j,NA,NA,NA,2,6,"14,12,6,5,3,11,15,7,13,9,2,8,10,1,4"
14519,commdev-image-keyboard-response,510,1256888,learnblock2,527.7999999970198,img/planet5_right.png,5,Community 1,NA,TRUE,j,j,NA,NA,NA,2,6,"14,12,6,5,3,11,15,7,13,9,2,8,10,1,4"
14519,commdev-image-keyboard-response,511,1258140,learnblock2,589.1000000014901,img/planet6_left.png,6,Community 1,NA,TRUE,f,f,NA,NA,NA,2,6,"14,12,6,5,3,11,15,7,13,9,2,8,10,1,4"
14519,commdev-image-keyboard-response,512,1259395,learnblock2,715.1000000014901,img/planet5_left.png,5,Community 1,NA,TRUE,f,f,NA,NA,NA,2,6,"14,12,6,5,3,11,15,7,13,9,2,8,10,1,4"
14519,commdev-image-keyboard-response,513,1260650,learnblock2,660.5,img/planet6_left.png,6,Community 1,NA,TRUE,f,f,NA,NA,NA,2,6,"14,12,6,5,3,11,15,7,13,9,2,8,10,1,4"
14519,commdev-image-keyboard-response,514,1261905,learnblock2,835.7000000029802,img/planet12_right.png,12,Community 1,NA,TRUE,j,j,NA,NA,NA,2,6,"14,12,6,5,3,11,15,7,13,9,2,8,10,1,4"
14519,commdev-image-keyboard-response,515,1263164,learnblock2,590.5,img/planet3_left.png,3,Community 1,NA,TRUE,f,f,NA,NA,NA,2,6,"14,12,6,5,3,11,15,7,13,9,2,8,10,1,4"
14519,commdev-image-keyboard-response,516,1264419,learnblock2,541.2000000029802,img/planet12_right.png,12,Community 1,NA,TRUE,j,j,NA,NA,NA,2,6,"14,12,6,5,3,11,15,7,13,9,2,8,10,1,4"
14519,commdev-image-keyboard-response,517,1265671,learnblock2,487.20000000298023,img/planet5_left.png,5,Community 1,NA,TRUE,f,f,NA,NA,NA,2,6,"14,12,6,5,3,11,15,7,13,9,2,8,10,1,4"
14519,commdev-image-keyboard-response,518,1266925,learnblock2,767.5999999940395,img/planet12_left.png,12,Community 1,NA,TRUE,f,f,NA,NA,NA,2,6,"14,12,6,5,3,11,15,7,13,9,2,8,10,1,4"
14519,commdev-image-keyboard-response,519,1268178,learnblock2,712.6000000014901,img/planet6_left.png,6,Community 1,NA,TRUE,f,f,NA,NA,NA,2,6,"14,12,6,5,3,11,15,7,13,9,2,8,10,1,4"
14519,commdev-image-keyboard-response,520,1269440,learnblock2,839.2999999970198,img/planet14_right.png,14,Community 1,NA,TRUE,j,j,NA,NA,NA,2,6,"14,12,6,5,3,11,15,7,13,9,2,8,10,1,4"
14519,commdev-image-keyboard-response,521,1270699,learnblock2,825.7999999970198,img/planet3_right.png,3,Community 1,NA,TRUE,j,j,NA,NA,NA,2,6,"14,12,6,5,3,11,15,7,13,9,2,8,10,1,4"
14519,commdev-image-keyboard-response,522,1271952,learnblock2,567.7000000029802,img/planet2_right.png,2,Community 3,NA,TRUE,j,j,NA,NA,NA,2,6,"14,12,6,5,3,11,15,7,13,9,2,8,10,1,4"
14519,commdev-image-keyboard-response,523,1273209,learnblock2,563.2999999970198,img/planet4_right.png,4,Community 3,NA,TRUE,j,j,NA,NA,NA,2,6,"14,12,6,5,3,11,15,7,13,9,2,8,10,1,4"
14519,commdev-image-keyboard-response,524,1274462,learnblock2,656.7999999970198,img/planet8_right.png,8,Community 3,NA,TRUE,j,j,NA,NA,NA,2,6,"14,12,6,5,3,11,15,7,13,9,2,8,10,1,4"
14519,commdev-image-keyboard-response,525,1275715,learnblock2,634.3999999985099,img/planet4_left.png,4,Community 3,NA,TRUE,f,f,NA,NA,NA,2,6,"14,12,6,5,3,11,15,7,13,9,2,8,10,1,4"
14519,commdev-image-keyboard-response,526,1276974,learnblock2,769.2000000029802,img/planet1_right.png,1,Community 3,NA,TRUE,j,j,NA,NA,NA,2,6,"14,12,6,5,3,11,15,7,13,9,2,8,10,1,4"
14519,commdev-image-keyboard-response,527,1278226,learnblock2,632.2000000029802,img/planet2_right.png,2,Community 3,NA,TRUE,j,j,NA,NA,NA,2,6,"14,12,6,5,3,11,15,7,13,9,2,8,10,1,4"
14519,commdev-image-keyboard-response,528,1279480,learnblock2,610.3000000044703,img/planet10_left.png,10,Community 3,NA,TRUE,f,f,NA,NA,NA,2,6,"14,12,6,5,3,11,15,7,13,9,2,8,10,1,4"
14519,commdev-image-keyboard-response,529,1280734,learnblock2,567.5,img/planet8_right.png,8,Community 3,NA,TRUE,j,j,NA,NA,NA,2,6,"14,12,6,5,3,11,15,7,13,9,2,8,10,1,4"
14519,commdev-image-keyboard-response,530,1281989,learnblock2,571.2999999970198,img/planet1_right.png,1,Community 3,NA,TRUE,j,j,NA,NA,NA,2,6,"14,12,6,5,3,11,15,7,13,9,2,8,10,1,4"
14519,commdev-image-keyboard-response,531,1283241,learnblock2,858,img/planet2_right.png,2,Community 3,NA,TRUE,j,j,NA,NA,NA,2,6,"14,12,6,5,3,11,15,7,13,9,2,8,10,1,4"
14519,commdev-image-keyboard-response,532,1284496,learnblock2,725.6999999955297,img/planet1_right.png,1,Community 3,NA,TRUE,j,j,NA,NA,NA,2,6,"14,12,6,5,3,11,15,7,13,9,2,8,10,1,4"
14519,commdev-image-keyboard-response,533,1285750,learnblock2,920.3999999985099,img/planet10_left.png,10,Community 3,NA,TRUE,f,f,NA,NA,NA,2,6,"14,12,6,5,3,11,15,7,13,9,2,8,10,1,4"
14519,commdev-image-keyboard-response,534,1287010,learnblock2,794.6999999955297,img/planet8_right.png,8,Community 3,NA,TRUE,j,j,NA,NA,NA,2,6,"14,12,6,5,3,11,15,7,13,9,2,8,10,1,4"
14519,commdev-image-keyboard-response,535,1288266,learnblock2,695.7000000029802,img/planet10_right.png,10,Community 3,NA,TRUE,j,j,NA,NA,NA,2,6,"14,12,6,5,3,11,15,7,13,9,2,8,10,1,4"
14519,commdev-image-keyboard-response,536,1289519,learnblock2,758.1999999955297,img/planet4_left.png,4,Community 3,NA,TRUE,f,f,NA,NA,NA,2,6,"14,12,6,5,3,11,15,7,13,9,2,8,10,1,4"
14519,commdev-image-keyboard-response,537,1290771,learnblock2,655.2999999970198,img/planet10_right.png,10,Community 3,NA,TRUE,j,j,NA,NA,NA,2,6,"14,12,6,5,3,11,15,7,13,9,2,8,10,1,4"
14519,commdev-image-keyboard-response,538,1292027,learnblock2,644.1000000014901,img/planet8_right.png,8,Community 3,NA,TRUE,j,j,NA,NA,NA,2,6,"14,12,6,5,3,11,15,7,13,9,2,8,10,1,4"
14519,commdev-image-keyboard-response,539,1293282,learnblock2,640,img/planet7_right.png,7,Community 2,NA,TRUE,j,j,NA,NA,NA,2,6,"14,12,6,5,3,11,15,7,13,9,2,8,10,1,4"
14519,commdev-image-keyboard-response,540,1294537,learnblock2,613.5,img/planet8_right.png,8,Community 3,NA,TRUE,j,j,NA,NA,NA,2,6,"14,12,6,5,3,11,15,7,13,9,2,8,10,1,4"
14519,commdev-image-keyboard-response,541,1295790,learnblock2,697.7000000029802,img/planet10_left.png,10,Community 3,NA,TRUE,f,f,NA,NA,NA,2,6,"14,12,6,5,3,11,15,7,13,9,2,8,10,1,4"
14519,commdev-image-keyboard-response,542,1297043,learnblock2,555.0999999940395,img/planet4_left.png,4,Community 3,NA,TRUE,f,f,NA,NA,NA,2,6,"14,12,6,5,3,11,15,7,13,9,2,8,10,1,4"
14519,commdev-image-keyboard-response,543,1298302,learnblock2,744.5,img/planet10_right.png,10,Community 3,NA,TRUE,j,j,NA,NA,NA,2,6,"14,12,6,5,3,11,15,7,13,9,2,8,10,1,4"
14519,commdev-image-keyboard-response,544,1299554,learnblock2,1183.1999999955297,img/planet8_left.png,8,Community 3,NA,TRUE,f,f,NA,NA,NA,2,6,"14,12,6,5,3,11,15,7,13,9,2,8,10,1,4"
14519,commdev-image-keyboard-response,545,1300811,learnblock2,801.5999999940395,img/planet4_left.png,4,Community 3,NA,TRUE,f,f,NA,NA,NA,2,6,"14,12,6,5,3,11,15,7,13,9,2,8,10,1,4"
14519,commdev-image-keyboard-response,546,1302068,learnblock2,624.1000000014901,img/planet10_left.png,10,Community 3,NA,TRUE,f,f,NA,NA,NA,2,6,"14,12,6,5,3,11,15,7,13,9,2,8,10,1,4"
14519,commdev-image-keyboard-response,547,1303321,learnblock2,509.3999999985099,img/planet4_right.png,4,Community 3,NA,TRUE,j,j,NA,NA,NA,2,6,"14,12,6,5,3,11,15,7,13,9,2,8,10,1,4"
14519,commdev-image-keyboard-response,548,1304573,learnblock2,694.7999999970198,img/planet1_right.png,1,Community 3,NA,TRUE,j,j,NA,NA,NA,2,6,"14,12,6,5,3,11,15,7,13,9,2,8,10,1,4"
14519,commdev-image-keyboard-response,549,1305826,learnblock2,484.20000000298023,img/planet4_left.png,4,Community 3,NA,TRUE,f,f,NA,NA,NA,2,6,"14,12,6,5,3,11,15,7,13,9,2,8,10,1,4"
14519,commdev-image-keyboard-response,550,1307078,learnblock2,609.1000000014901,img/planet2_left.png,2,Community 3,NA,TRUE,f,f,NA,NA,NA,2,6,"14,12,6,5,3,11,15,7,13,9,2,8,10,1,4"
14519,commdev-image-keyboard-response,551,1308333,learnblock2,456.19999999552965,img/planet4_right.png,4,Community 3,NA,TRUE,j,j,NA,NA,NA,2,6,"14,12,6,5,3,11,15,7,13,9,2,8,10,1,4"
14519,commdev-image-keyboard-response,552,1309588,learnblock2,623,img/planet1_right.png,1,Community 3,NA,TRUE,j,j,NA,NA,NA,2,6,"14,12,6,5,3,11,15,7,13,9,2,8,10,1,4"
14519,commdev-image-keyboard-response,553,1310843,learnblock2,549.7999999970198,img/planet8_left.png,8,Community 3,NA,TRUE,f,f,NA,NA,NA,2,6,"14,12,6,5,3,11,15,7,13,9,2,8,10,1,4"
14519,commdev-image-keyboard-response,554,1312098,learnblock2,874.1999999955297,img/planet10_left.png,10,Community 3,NA,TRUE,f,f,NA,NA,NA,2,6,"14,12,6,5,3,11,15,7,13,9,2,8,10,1,4"
14519,commdev-image-keyboard-response,555,1313353,learnblock2,669.7000000029802,img/planet2_left.png,2,Community 3,NA,TRUE,f,f,NA,NA,NA,2,6,"14,12,6,5,3,11,15,7,13,9,2,8,10,1,4"
14519,commdev-image-keyboard-response,556,1314606,learnblock2,643.2000000029802,img/planet3_left.png,3,Community 1,NA,TRUE,f,f,NA,NA,NA,2,6,"14,12,6,5,3,11,15,7,13,9,2,8,10,1,4"
14519,commdev-image-keyboard-response,557,1315863,learnblock2,533.7999999970198,img/planet6_right.png,6,Community 1,NA,FALSE,f,j,NA,NA,NA,2,6,"14,12,6,5,3,11,15,7,13,9,2,8,10,1,4"
14519,commdev-image-keyboard-response,558,1317123,learnblock2,832.5,img/planet5_left.png,5,Community 1,NA,TRUE,f,f,NA,NA,NA,2,6,"14,12,6,5,3,11,15,7,13,9,2,8,10,1,4"
14519,commdev-image-keyboard-response,559,1318375,learnblock2,733.1999999955297,img/planet14_left.png,14,Community 1,NA,TRUE,f,f,NA,NA,NA,2,6,"14,12,6,5,3,11,15,7,13,9,2,8,10,1,4"
14519,commdev-image-keyboard-response,560,1319634,learnblock2,671.7000000029802,img/planet12_left.png,12,Community 1,NA,TRUE,f,f,NA,NA,NA,2,6,"14,12,6,5,3,11,15,7,13,9,2,8,10,1,4"
14519,commdev-image-keyboard-response,561,1320891,learnblock2,574.3999999985099,img/planet5_right.png,5,Community 1,NA,TRUE,j,j,NA,NA,NA,2,6,"14,12,6,5,3,11,15,7,13,9,2,8,10,1,4"
14519,commdev-image-keyboard-response,562,1322143,learnblock2,695.3000000044703,img/planet14_left.png,14,Community 1,NA,TRUE,f,f,NA,NA,NA,2,6,"14,12,6,5,3,11,15,7,13,9,2,8,10,1,4"
14519,commdev-image-keyboard-response,563,1323399,learnblock2,803.6000000014901,img/planet5_left.png,5,Community 1,NA,TRUE,f,f,NA,NA,NA,2,6,"14,12,6,5,3,11,15,7,13,9,2,8,10,1,4"
14519,commdev-image-keyboard-response,564,1324655,learnblock2,1186.8999999985099,img/planet11_right.png,11,Community 2,NA,TRUE,j,j,NA,NA,NA,2,6,"14,12,6,5,3,11,15,7,13,9,2,8,10,1,4"
14519,commdev-image-keyboard-response,565,1325907,learnblock2,663.5,img/planet13_right.png,13,Community 2,NA,TRUE,j,j,NA,NA,NA,2,6,"14,12,6,5,3,11,15,7,13,9,2,8,10,1,4"
14519,commdev-image-keyboard-response,566,1327159,learnblock2,648.7000000029802,img/planet7_left.png,7,Community 2,NA,TRUE,f,f,NA,NA,NA,2,6,"14,12,6,5,3,11,15,7,13,9,2,8,10,1,4"
14519,commdev-image-keyboard-response,567,1328412,learnblock2,677.2000000029802,img/planet9_left.png,9,Community 2,NA,TRUE,f,f,NA,NA,NA,2,6,"14,12,6,5,3,11,15,7,13,9,2,8,10,1,4"
14519,commdev-image-keyboard-response,568,1329665,learnblock2,454,img/planet11_right.png,11,Community 2,NA,TRUE,j,j,NA,NA,NA,2,6,"14,12,6,5,3,11,15,7,13,9,2,8,10,1,4"
14519,commdev-image-keyboard-response,569,1330921,learnblock2,121.79999999701977,img/planet15_left.png,15,Community 2,NA,FALSE,j,f,NA,NA,NA,2,6,"14,12,6,5,3,11,15,7,13,9,2,8,10,1,4"
14519,commdev-image-keyboard-response,570,1332182,learnblock2,836.8999999985099,img/planet9_left.png,9,Community 2,NA,TRUE,f,f,NA,NA,NA,2,6,"14,12,6,5,3,11,15,7,13,9,2,8,10,1,4"
14519,commdev-image-keyboard-response,571,1333434,learnblock2,585,img/planet15_left.png,15,Community 2,NA,TRUE,f,f,NA,NA,NA,2,6,"14,12,6,5,3,11,15,7,13,9,2,8,10,1,4"
14519,commdev-image-keyboard-response,572,1334693,learnblock2,662.8999999985099,img/planet13_right.png,13,Community 2,NA,TRUE,j,j,NA,NA,NA,2,6,"14,12,6,5,3,11,15,7,13,9,2,8,10,1,4"
14519,commdev-image-keyboard-response,573,1335945,learnblock2,1012.9000000059605,img/planet15_left.png,15,Community 2,NA,TRUE,f,f,NA,NA,NA,2,6,"14,12,6,5,3,11,15,7,13,9,2,8,10,1,4"
14519,commdev-image-keyboard-response,574,1337200,learnblock2,622.1999999955297,img/planet11_right.png,11,Community 2,NA,TRUE,j,j,NA,NA,NA,2,6,"14,12,6,5,3,11,15,7,13,9,2,8,10,1,4"
14519,commdev-image-keyboard-response,575,1338455,learnblock2,655.2999999970198,img/planet15_left.png,15,Community 2,NA,TRUE,f,f,NA,NA,NA,2,6,"14,12,6,5,3,11,15,7,13,9,2,8,10,1,4"
14519,commdev-image-keyboard-response,576,1339711,learnblock2,482.69999999552965,img/planet13_right.png,13,Community 2,NA,TRUE,j,j,NA,NA,NA,2,6,"14,12,6,5,3,11,15,7,13,9,2,8,10,1,4"
14519,commdev-image-keyboard-response,577,1340966,learnblock2,706.3000000044703,img/planet15_right.png,15,Community 2,NA,TRUE,j,j,NA,NA,NA,2,6,"14,12,6,5,3,11,15,7,13,9,2,8,10,1,4"
14519,commdev-image-keyboard-response,578,1342218,learnblock2,null,img/planet13_left.png,13,Community 2,NA,FALSE,null,f,NA,NA,NA,2,6,"14,12,6,5,3,11,15,7,13,9,2,8,10,1,4"
14519,commdev-image-keyboard-response,579,1343472,learnblock2,39.399999998509884,img/planet15_left.png,15,Community 2,NA,TRUE,f,f,NA,NA,NA,2,6,"14,12,6,5,3,11,15,7,13,9,2,8,10,1,4"
14519,commdev-image-keyboard-response,580,1344724,learnblock2,694.7000000029802,img/planet9_left.png,9,Community 2,NA,TRUE,f,f,NA,NA,NA,2,6,"14,12,6,5,3,11,15,7,13,9,2,8,10,1,4"
14519,commdev-image-keyboard-response,581,1345977,learnblock2,620.7000000029802,img/planet11_right.png,11,Community 2,NA,TRUE,j,j,NA,NA,NA,2,6,"14,12,6,5,3,11,15,7,13,9,2,8,10,1,4"
14519,commdev-image-keyboard-response,582,1347231,learnblock2,1100.6000000014901,img/planet13_left.png,13,Community 2,NA,TRUE,f,f,NA,NA,NA,2,6,"14,12,6,5,3,11,15,7,13,9,2,8,10,1,4"
14519,commdev-image-keyboard-response,583,1348485,learnblock2,848.1000000014901,img/planet9_right.png,9,Community 2,NA,TRUE,j,j,NA,NA,NA,2,6,"14,12,6,5,3,11,15,7,13,9,2,8,10,1,4"
14519,commdev-image-keyboard-response,584,1349744,learnblock2,692.8999999985099,img/planet7_right.png,7,Community 2,NA,TRUE,j,j,NA,NA,NA,2,6,"14,12,6,5,3,11,15,7,13,9,2,8,10,1,4"
14519,commdev-image-keyboard-response,585,1350996,learnblock2,772.6999999955297,img/planet9_left.png,9,Community 2,NA,TRUE,f,f,NA,NA,NA,2,6,"14,12,6,5,3,11,15,7,13,9,2,8,10,1,4"
14519,commdev-image-keyboard-response,586,1352253,learnblock2,688.7000000029802,img/planet7_left.png,7,Community 2,NA,TRUE,f,f,NA,NA,NA,2,6,"14,12,6,5,3,11,15,7,13,9,2,8,10,1,4"
14519,commdev-image-keyboard-response,587,1353507,learnblock2,863.2999999970198,img/planet9_left.png,9,Community 2,NA,TRUE,f,f,NA,NA,NA,2,6,"14,12,6,5,3,11,15,7,13,9,2,8,10,1,4"
14519,commdev-image-keyboard-response,588,1354759,learnblock2,949.0999999940395,img/planet7_right.png,7,Community 2,NA,TRUE,j,j,NA,NA,NA,2,6,"14,12,6,5,3,11,15,7,13,9,2,8,10,1,4"
14519,commdev-image-keyboard-response,589,1356016,learnblock2,607.7999999970198,img/planet13_right.png,13,Community 2,NA,TRUE,j,j,NA,NA,NA,2,6,"14,12,6,5,3,11,15,7,13,9,2,8,10,1,4"
14519,commdev-image-keyboard-response,590,1357270,learnblock2,619.9000000059605,img/planet7_right.png,7,Community 2,NA,TRUE,j,j,NA,NA,NA,2,6,"14,12,6,5,3,11,15,7,13,9,2,8,10,1,4"
14519,commdev-image-keyboard-response,591,1358524,learnblock2,666.9000000059605,img/planet9_left.png,9,Community 2,NA,TRUE,f,f,NA,NA,NA,2,6,"14,12,6,5,3,11,15,7,13,9,2,8,10,1,4"
14519,commdev-image-keyboard-response,592,1359778,learnblock2,552.6999999955297,img/planet7_left.png,7,Community 2,NA,TRUE,f,f,NA,NA,NA,2,6,"14,12,6,5,3,11,15,7,13,9,2,8,10,1,4"
14519,commdev-image-keyboard-response,593,1361035,learnblock2,548.8000000044703,img/planet13_left.png,13,Community 2,NA,TRUE,f,f,NA,NA,NA,2,6,"14,12,6,5,3,11,15,7,13,9,2,8,10,1,4"
14519,commdev-image-keyboard-response,594,1362287,learnblock2,864.3000000044703,img/planet15_left.png,15,Community 2,NA,TRUE,f,f,NA,NA,NA,2,6,"14,12,6,5,3,11,15,7,13,9,2,8,10,1,4"
14519,commdev-image-keyboard-response,595,1363542,learnblock2,628.8000000044703,img/planet11_left.png,11,Community 2,NA,TRUE,f,f,NA,NA,NA,2,6,"14,12,6,5,3,11,15,7,13,9,2,8,10,1,4"
14519,commdev-image-keyboard-response,596,1364800,learnblock2,585.1000000014901,img/planet5_left.png,5,Community 1,NA,TRUE,f,f,NA,NA,NA,2,6,"14,12,6,5,3,11,15,7,13,9,2,8,10,1,4"
14519,commdev-image-keyboard-response,597,1366057,learnblock2,557.5,img/planet11_right.png,11,Community 2,NA,TRUE,j,j,NA,NA,NA,2,6,"14,12,6,5,3,11,15,7,13,9,2,8,10,1,4"
14519,commdev-image-keyboard-response,598,1367310,learnblock2,788.7000000029802,img/planet13_right.png,13,Community 2,NA,TRUE,j,j,NA,NA,NA,2,6,"14,12,6,5,3,11,15,7,13,9,2,8,10,1,4"
14519,commdev-image-keyboard-response,599,1368562,learnblock2,707.2999999970198,img/planet11_right.png,11,Community 2,NA,TRUE,j,j,NA,NA,NA,2,6,"14,12,6,5,3,11,15,7,13,9,2,8,10,1,4"
14519,commdev-image-keyboard-response,600,1369816,learnblock2,683.8999999985099,img/planet9_left.png,9,Community 2,NA,TRUE,f,f,NA,NA,NA,2,6,"14,12,6,5,3,11,15,7,13,9,2,8,10,1,4"
14519,commdev-image-keyboard-response,601,1371072,learnblock2,591.5,img/planet15_right.png,15,Community 2,NA,TRUE,j,j,NA,NA,NA,2,6,"14,12,6,5,3,11,15,7,13,9,2,8,10,1,4"
14519,commdev-image-keyboard-response,602,1372327,learnblock2,505.8999999985099,img/planet9_left.png,9,Community 2,NA,TRUE,f,f,NA,NA,NA,2,6,"14,12,6,5,3,11,15,7,13,9,2,8,10,1,4"
14519,commdev-image-keyboard-response,603,1373580,learnblock2,519.8000000044703,img/planet11_right.png,11,Community 2,NA,TRUE,j,j,NA,NA,NA,2,6,"14,12,6,5,3,11,15,7,13,9,2,8,10,1,4"
14519,commdev-image-keyboard-response,604,1374835,learnblock2,666.3999999985099,img/planet13_right.png,13,Community 2,NA,TRUE,j,j,NA,NA,NA,2,6,"14,12,6,5,3,11,15,7,13,9,2,8,10,1,4"
14519,commdev-image-keyboard-response,605,1376093,learnblock2,631.1000000014901,img/planet7_left.png,7,Community 2,NA,TRUE,f,f,NA,NA,NA,2,6,"14,12,6,5,3,11,15,7,13,9,2,8,10,1,4"
14519,commdev-image-keyboard-response,606,1377344,learnblock2,593.2999999970198,img/planet15_left.png,15,Community 2,NA,TRUE,f,f,NA,NA,NA,2,6,"14,12,6,5,3,11,15,7,13,9,2,8,10,1,4"
14519,commdev-image-keyboard-response,607,1378599,learnblock2,559.1000000014901,img/planet9_right.png,9,Community 2,NA,TRUE,j,j,NA,NA,NA,2,6,"14,12,6,5,3,11,15,7,13,9,2,8,10,1,4"
14519,commdev-image-keyboard-response,608,1379855,learnblock2,833.7000000029802,img/planet15_right.png,15,Community 2,NA,TRUE,j,j,NA,NA,NA,2,6,"14,12,6,5,3,11,15,7,13,9,2,8,10,1,4"
14519,commdev-image-keyboard-response,609,1381114,learnblock2,728.5,img/planet13_left.png,13,Community 2,NA,TRUE,f,f,NA,NA,NA,2,6,"14,12,6,5,3,11,15,7,13,9,2,8,10,1,4"
14519,commdev-image-keyboard-response,610,1382371,learnblock2,751.1000000014901,img/planet9_left.png,9,Community 2,NA,TRUE,f,f,NA,NA,NA,2,6,"14,12,6,5,3,11,15,7,13,9,2,8,10,1,4"
14519,commdev-image-keyboard-response,611,1383633,learnblock2,773.8000000044703,img/planet7_left.png,7,Community 2,NA,TRUE,f,f,NA,NA,NA,2,6,"14,12,6,5,3,11,15,7,13,9,2,8,10,1,4"
14519,commdev-image-keyboard-response,612,1384891,learnblock2,952,img/planet8_left.png,8,Community 3,NA,TRUE,f,f,NA,NA,NA,2,6,"14,12,6,5,3,11,15,7,13,9,2,8,10,1,4"
14519,commdev-image-keyboard-response,613,1386148,learnblock2,983.3000000044703,img/planet10_right.png,10,Community 3,NA,TRUE,j,j,NA,NA,NA,2,6,"14,12,6,5,3,11,15,7,13,9,2,8,10,1,4"
14519,commdev-image-keyboard-response,614,1387400,learnblock2,837.7999999970198,img/planet2_right.png,2,Community 3,NA,TRUE,j,j,NA,NA,NA,2,6,"14,12,6,5,3,11,15,7,13,9,2,8,10,1,4"
14519,commdev-image-keyboard-response,615,1388655,learnblock2,652.6000000014901,img/planet3_left.png,3,Community 1,NA,TRUE,f,f,NA,NA,NA,2,6,"14,12,6,5,3,11,15,7,13,9,2,8,10,1,4"
14519,commdev-image-keyboard-response,616,1389910,learnblock2,949.2000000029802,img/planet12_right.png,12,Community 1,NA,TRUE,j,j,NA,NA,NA,2,6,"14,12,6,5,3,11,15,7,13,9,2,8,10,1,4"
14519,commdev-image-keyboard-response,617,1391167,learnblock2,583.5,img/planet3_left.png,3,Community 1,NA,TRUE,f,f,NA,NA,NA,2,6,"14,12,6,5,3,11,15,7,13,9,2,8,10,1,4"
14519,commdev-image-keyboard-response,618,1392422,learnblock2,907.3000000044703,img/planet12_left.png,12,Community 1,NA,TRUE,f,f,NA,NA,NA,2,6,"14,12,6,5,3,11,15,7,13,9,2,8,10,1,4"
14519,commdev-image-keyboard-response,619,1393679,learnblock2,711.2999999970198,img/planet5_left.png,5,Community 1,NA,TRUE,f,f,NA,NA,NA,2,6,"14,12,6,5,3,11,15,7,13,9,2,8,10,1,4"
14519,commdev-image-keyboard-response,620,1394932,learnblock2,546.5,img/planet14_right.png,14,Community 1,NA,TRUE,j,j,NA,NA,NA,2,6,"14,12,6,5,3,11,15,7,13,9,2,8,10,1,4"
14519,commdev-image-keyboard-response,621,1396186,learnblock2,824.3999999985099,img/planet6_left.png,6,Community 1,NA,TRUE,f,f,NA,NA,NA,2,6,"14,12,6,5,3,11,15,7,13,9,2,8,10,1,4"
14519,commdev-image-keyboard-response,622,1397442,learnblock2,707.8999999985099,img/planet5_left.png,5,Community 1,NA,TRUE,f,f,NA,NA,NA,2,6,"14,12,6,5,3,11,15,7,13,9,2,8,10,1,4"
14519,commdev-image-keyboard-response,623,1398699,learnblock2,912.0999999940395,img/planet14_left.png,14,Community 1,NA,TRUE,f,f,NA,NA,NA,2,6,"14,12,6,5,3,11,15,7,13,9,2,8,10,1,4"
14519,commdev-image-keyboard-response,624,1399953,learnblock2,773.7999999970198,img/planet12_left.png,12,Community 1,NA,TRUE,f,f,NA,NA,NA,2,6,"14,12,6,5,3,11,15,7,13,9,2,8,10,1,4"
14519,commdev-image-keyboard-response,625,1401211,learnblock2,620.6000000014901,img/planet14_right.png,14,Community 1,NA,TRUE,j,j,NA,NA,NA,2,6,"14,12,6,5,3,11,15,7,13,9,2,8,10,1,4"
14519,commdev-image-keyboard-response,626,1402468,learnblock2,643.2999999970198,img/planet6_right.png,6,Community 1,NA,TRUE,j,j,NA,NA,NA,2,6,"14,12,6,5,3,11,15,7,13,9,2,8,10,1,4"
14519,commdev-image-keyboard-response,627,1403721,learnblock2,668.1000000014901,img/planet12_right.png,12,Community 1,NA,TRUE,j,j,NA,NA,NA,2,6,"14,12,6,5,3,11,15,7,13,9,2,8,10,1,4"
14519,commdev-image-keyboard-response,628,1404980,learnblock2,1224.6999999955297,img/planet5_left.png,5,Community 1,NA,TRUE,f,f,NA,NA,NA,2,6,"14,12,6,5,3,11,15,7,13,9,2,8,10,1,4"
14519,commdev-image-keyboard-response,629,1406233,learnblock2,694.2999999970198,img/planet6_right.png,6,Community 1,NA,TRUE,j,j,NA,NA,NA,2,6,"14,12,6,5,3,11,15,7,13,9,2,8,10,1,4"
14519,commdev-image-keyboard-response,630,1407486,learnblock2,890.6000000014901,img/planet14_right.png,14,Community 1,NA,TRUE,j,j,NA,NA,NA,2,6,"14,12,6,5,3,11,15,7,13,9,2,8,10,1,4"
14519,commdev-image-keyboard-response,631,1408742,learnblock2,617.3999999985099,img/planet12_right.png,12,Community 1,NA,TRUE,j,j,NA,NA,NA,2,6,"14,12,6,5,3,11,15,7,13,9,2,8,10,1,4"
14519,commdev-image-keyboard-response,632,1409997,learnblock2,511.3999999985099,img/planet5_right.png,5,Community 1,NA,TRUE,j,j,NA,NA,NA,2,6,"14,12,6,5,3,11,15,7,13,9,2,8,10,1,4"
14519,commdev-image-keyboard-response,633,1411251,learnblock2,776.2999999970198,img/planet11_right.png,11,Community 2,NA,FALSE,f,j,NA,NA,NA,2,6,"14,12,6,5,3,11,15,7,13,9,2,8,10,1,4"
14519,commdev-image-keyboard-response,634,1412511,learnblock2,521.0999999940395,img/planet15_left.png,15,Community 2,NA,TRUE,f,f,NA,NA,NA,2,6,"14,12,6,5,3,11,15,7,13,9,2,8,10,1,4"
14519,commdev-image-keyboard-response,635,1413770,learnblock2,532.6999999955297,img/planet11_right.png,11,Community 2,NA,TRUE,j,j,NA,NA,NA,2,6,"14,12,6,5,3,11,15,7,13,9,2,8,10,1,4"
14519,commdev-image-keyboard-response,636,1415023,learnblock2,643.7999999970198,img/planet15_right.png,15,Community 2,NA,TRUE,j,j,NA,NA,NA,2,6,"14,12,6,5,3,11,15,7,13,9,2,8,10,1,4"
14519,commdev-image-keyboard-response,637,1416275,learnblock2,621.1000000014901,img/planet11_right.png,11,Community 2,NA,TRUE,j,j,NA,NA,NA,2,6,"14,12,6,5,3,11,15,7,13,9,2,8,10,1,4"
14519,commdev-image-keyboard-response,638,1417529,learnblock2,449.6000000014901,img/planet15_left.png,15,Community 2,NA,FALSE,j,f,NA,NA,NA,2,6,"14,12,6,5,3,11,15,7,13,9,2,8,10,1,4"
14519,commdev-image-keyboard-response,639,1418786,learnblock2,664.5,img/planet11_left.png,11,Community 2,NA,TRUE,f,f,NA,NA,NA,2,6,"14,12,6,5,3,11,15,7,13,9,2,8,10,1,4"
14519,commdev-image-keyboard-response,640,1420041,learnblock2,1115.5,img/planet5_left.png,5,Community 1,NA,TRUE,f,f,NA,NA,NA,2,6,"14,12,6,5,3,11,15,7,13,9,2,8,10,1,4"
14519,commdev-image-keyboard-response,641,1421299,learnblock2,633.8999999985099,img/planet12_right.png,12,Community 1,NA,TRUE,j,j,NA,NA,NA,2,6,"14,12,6,5,3,11,15,7,13,9,2,8,10,1,4"
14519,commdev-image-keyboard-response,642,1422553,learnblock2,563.2999999970198,img/planet14_left.png,14,Community 1,NA,TRUE,f,f,NA,NA,NA,2,6,"14,12,6,5,3,11,15,7,13,9,2,8,10,1,4"
14519,commdev-image-keyboard-response,643,1423810,learnblock2,601.2000000029802,img/planet5_right.png,5,Community 1,NA,TRUE,j,j,NA,NA,NA,2,6,"14,12,6,5,3,11,15,7,13,9,2,8,10,1,4"
14519,commdev-image-keyboard-response,644,1425066,learnblock2,642.3999999985099,img/planet14_right.png,14,Community 1,NA,TRUE,j,j,NA,NA,NA,2,6,"14,12,6,5,3,11,15,7,13,9,2,8,10,1,4"
14519,commdev-image-keyboard-response,645,1426319,learnblock2,817.3999999985099,img/planet6_left.png,6,Community 1,NA,TRUE,f,f,NA,NA,NA,2,6,"14,12,6,5,3,11,15,7,13,9,2,8,10,1,4"
14519,commdev-image-keyboard-response,646,1427571,learnblock2,745,img/planet14_left.png,14,Community 1,NA,TRUE,f,f,NA,NA,NA,2,6,"14,12,6,5,3,11,15,7,13,9,2,8,10,1,4"
14519,commdev-image-keyboard-response,647,1428824,learnblock2,613.2000000029802,img/planet12_left.png,12,Community 1,NA,TRUE,f,f,NA,NA,NA,2,6,"14,12,6,5,3,11,15,7,13,9,2,8,10,1,4"
14519,commdev-image-keyboard-response,648,1430079,learnblock2,599.5,img/planet5_left.png,5,Community 1,NA,TRUE,f,f,NA,NA,NA,2,6,"14,12,6,5,3,11,15,7,13,9,2,8,10,1,4"
14519,commdev-image-keyboard-response,649,1431332,learnblock2,585.6000000014901,img/planet11_left.png,11,Community 2,NA,TRUE,f,f,NA,NA,NA,2,6,"14,12,6,5,3,11,15,7,13,9,2,8,10,1,4"
14519,commdev-image-keyboard-response,650,1432584,learnblock2,711.1000000014901,img/planet9_left.png,9,Community 2,NA,TRUE,f,f,NA,NA,NA,2,6,"14,12,6,5,3,11,15,7,13,9,2,8,10,1,4"
14519,commdev-image-keyboard-response,651,1433839,learnblock2,682,img/planet13_left.png,13,Community 2,NA,TRUE,f,f,NA,NA,NA,2,6,"14,12,6,5,3,11,15,7,13,9,2,8,10,1,4"
14519,commdev-image-keyboard-response,652,1435095,learnblock2,746.3000000044703,img/planet11_right.png,11,Community 2,NA,TRUE,j,j,NA,NA,NA,2,6,"14,12,6,5,3,11,15,7,13,9,2,8,10,1,4"
14519,commdev-image-keyboard-response,653,1436351,learnblock2,849.2999999970198,img/planet9_left.png,9,Community 2,NA,TRUE,f,f,NA,NA,NA,2,6,"14,12,6,5,3,11,15,7,13,9,2,8,10,1,4"
14519,commdev-image-keyboard-response,654,1437607,learnblock2,902.2000000029802,img/planet13_left.png,13,Community 2,NA,TRUE,f,f,NA,NA,NA,2,6,"14,12,6,5,3,11,15,7,13,9,2,8,10,1,4"
14519,commdev-image-keyboard-response,655,1438859,learnblock2,755.2999999970198,img/planet15_left.png,15,Community 2,NA,TRUE,f,f,NA,NA,NA,2,6,"14,12,6,5,3,11,15,7,13,9,2,8,10,1,4"
14519,commdev-image-keyboard-response,656,1440118,learnblock2,834.4000000059605,img/planet11_left.png,11,Community 2,NA,TRUE,f,f,NA,NA,NA,2,6,"14,12,6,5,3,11,15,7,13,9,2,8,10,1,4"
14519,commdev-image-keyboard-response,657,1441372,learnblock2,773.3999999985099,img/planet9_left.png,9,Community 2,NA,TRUE,f,f,NA,NA,NA,2,6,"14,12,6,5,3,11,15,7,13,9,2,8,10,1,4"
14519,commdev-image-keyboard-response,658,1442631,learnblock2,732.2999999970198,img/planet11_left.png,11,Community 2,NA,TRUE,f,f,NA,NA,NA,2,6,"14,12,6,5,3,11,15,7,13,9,2,8,10,1,4"
14519,commdev-image-keyboard-response,659,1443888,learnblock2,673.5,img/planet5_right.png,5,Community 1,NA,TRUE,j,j,NA,NA,NA,2,6,"14,12,6,5,3,11,15,7,13,9,2,8,10,1,4"
14519,commdev-image-keyboard-response,660,1445140,learnblock2,594.5,img/planet12_left.png,12,Community 1,NA,TRUE,f,f,NA,NA,NA,2,6,"14,12,6,5,3,11,15,7,13,9,2,8,10,1,4"
14519,commdev-image-keyboard-response,661,1446400,learnblock2,864.5999999940395,img/planet14_left.png,14,Community 1,NA,TRUE,f,f,NA,NA,NA,2,6,"14,12,6,5,3,11,15,7,13,9,2,8,10,1,4"
14519,commdev-image-keyboard-response,662,1447659,learnblock2,623.5,img/planet3_right.png,3,Community 1,NA,TRUE,j,j,NA,NA,NA,2,6,"14,12,6,5,3,11,15,7,13,9,2,8,10,1,4"
14519,commdev-image-keyboard-response,663,1448924,learnblock2,634.1000000014901,img/planet12_left.png,12,Community 1,NA,TRUE,f,f,NA,NA,NA,2,6,"14,12,6,5,3,11,15,7,13,9,2,8,10,1,4"
14519,commdev-image-keyboard-response,664,1450177,learnblock2,537.6000000014901,img/planet3_right.png,3,Community 1,NA,TRUE,j,j,NA,NA,NA,2,6,"14,12,6,5,3,11,15,7,13,9,2,8,10,1,4"
14519,commdev-image-keyboard-response,665,1451431,learnblock2,786.0999999940395,img/planet14_right.png,14,Community 1,NA,TRUE,j,j,NA,NA,NA,2,6,"14,12,6,5,3,11,15,7,13,9,2,8,10,1,4"
14519,commdev-image-keyboard-response,666,1452687,learnblock2,621.6000000014901,img/planet6_left.png,6,Community 1,NA,TRUE,f,f,NA,NA,NA,2,6,"14,12,6,5,3,11,15,7,13,9,2,8,10,1,4"
14519,commdev-image-keyboard-response,667,1453944,learnblock2,735.5,img/planet3_left.png,3,Community 1,NA,TRUE,f,f,NA,NA,NA,2,6,"14,12,6,5,3,11,15,7,13,9,2,8,10,1,4"
14519,commdev-image-keyboard-response,668,1455197,learnblock2,706.5999999940395,img/planet12_left.png,12,Community 1,NA,TRUE,f,f,NA,NA,NA,2,6,"14,12,6,5,3,11,15,7,13,9,2,8,10,1,4"
14519,commdev-image-keyboard-response,669,1456452,learnblock2,495.1000000014901,img/planet6_right.png,6,Community 1,NA,TRUE,j,j,NA,NA,NA,2,6,"14,12,6,5,3,11,15,7,13,9,2,8,10,1,4"
14519,commdev-image-keyboard-response,670,1457706,learnblock2,621.2999999970198,img/planet3_left.png,3,Community 1,NA,TRUE,f,f,NA,NA,NA,2,6,"14,12,6,5,3,11,15,7,13,9,2,8,10,1,4"
14519,commdev-image-keyboard-response,671,1458959,learnblock2,687,img/planet12_left.png,12,Community 1,NA,TRUE,f,f,NA,NA,NA,2,6,"14,12,6,5,3,11,15,7,13,9,2,8,10,1,4"
14519,commdev-image-keyboard-response,672,1460214,learnblock2,642.7999999970198,img/planet3_right.png,3,Community 1,NA,TRUE,j,j,NA,NA,NA,2,6,"14,12,6,5,3,11,15,7,13,9,2,8,10,1,4"
14519,commdev-image-keyboard-response,673,1461469,learnblock2,547.5,img/planet6_right.png,6,Community 1,NA,TRUE,j,j,NA,NA,NA,2,6,"14,12,6,5,3,11,15,7,13,9,2,8,10,1,4"
14519,commdev-image-keyboard-response,674,1462723,learnblock2,595.2999999970198,img/planet14_left.png,14,Community 1,NA,TRUE,f,f,NA,NA,NA,2,6,"14,12,6,5,3,11,15,7,13,9,2,8,10,1,4"
14519,commdev-image-keyboard-response,675,1463978,learnblock2,569,img/planet6_right.png,6,Community 1,NA,TRUE,j,j,NA,NA,NA,2,6,"14,12,6,5,3,11,15,7,13,9,2,8,10,1,4"
14519,commdev-image-keyboard-response,676,1465236,learnblock2,1059.3000000044703,img/planet5_right.png,5,Community 1,NA,TRUE,j,j,NA,NA,NA,2,6,"14,12,6,5,3,11,15,7,13,9,2,8,10,1,4"
14519,commdev-image-keyboard-response,677,1466487,learnblock2,677,img/planet12_right.png,12,Community 1,NA,TRUE,j,j,NA,NA,NA,2,6,"14,12,6,5,3,11,15,7,13,9,2,8,10,1,4"
