subject_id,trial_type,trial_index,time_elapsed,block,rt,stimulus,planet,community,response,correct,key_press,learning_correct_response,parse,init_locations,final_locations,browser_interactions,num_comp,planet_map
14985,commdev-instructions,7,30064,NA,3114.0999999046326,"<p>In this game, you are a scientist on board a space shuttle. </p><p> On each mission, you will visit planets all across the universe.</p><img src=""img/controlroom.jpg"" width=300vw>",NA,NA,NA,NA,NA,NA,NA,NA,NA,1,6,"12,7,13,2,8,15,9,10,1,6,14,4,3,5,11"
14985,commdev-instructions,8,33690,NA,1550.2999999523163,"<p>Here are a few planets you might see:</p><img src=""img/practice1.png"" width=200vw><img src=""img/practice2.png"" width=200vw><img src=""img/practice3.png"" width=200vw>",NA,NA,NA,NA,NA,NA,NA,NA,NA,1,6,"12,7,13,2,8,15,9,10,1,6,14,4,3,5,11"
14985,commdev-instructions,9,42403,NA,1303.6000001430511,"<p>Your job as a scientist is to record which direction the winds are moving on each planet.</p><p>There are two types of wind directions:</p><img src=""img/practice1_left.png"" width=200vw><img src=""img/practice1_right.png"" width=200vw>",NA,NA,NA,NA,NA,NA,NA,NA,NA,1,6,"12,7,13,2,8,15,9,10,1,6,14,4,3,5,11"
14985,commdev-instructions,10,48790,NA,1500.7999999523163,"<p>If the winds are moving this way, press the letter <strong>F</strong> on the keyboard as fast as you can.</p><img src=""img/leftwind.png"" width=250vw>",NA,NA,NA,NA,NA,NA,NA,NA,NA,1,6,"12,7,13,2,8,15,9,10,1,6,14,4,3,5,11"
14985,commdev-instructions,11,55031,NA,1730.8000001907349,"<p>If the winds are moving this way, press the letter <strong>J</strong> on the keyboard as fast as you can.</p><img src=""img/rightwind.png"" width=350vw>",NA,NA,NA,NA,NA,NA,NA,NA,NA,1,6,"12,7,13,2,8,15,9,10,1,6,14,4,3,5,11"
14985,commdev-instructions,12,61025,NA,1566.5999999046326,<p>You will have 1 second to respond. Try to respond before the time runs out!,NA,NA,NA,NA,NA,NA,NA,NA,NA,1,6,"12,7,13,2,8,15,9,10,1,6,14,4,3,5,11"
14985,commdev-instructions,13,67841,NA,1371.3999998569489,<p>The planets you will visit will look different from each other.</p><p>You should respond <strong>only</strong> based on wind direction.,NA,NA,NA,NA,NA,NA,NA,NA,NA,1,6,"12,7,13,2,8,15,9,10,1,6,14,4,3,5,11"
14985,commdev-instructions,14,76383,NA,3363.5999999046326,"<p> Ready to start the practice round? </p><p> Remember, press <strong>F</strong> or <strong>J</strong> depending on the wind direction.<br><img src=""img/categorize_planet_example.png""",NA,NA,NA,NA,NA,NA,NA,NA,NA,1,6,"12,7,13,2,8,15,9,10,1,6,14,4,3,5,11"
14985,commdev-instructions,26,130553,NA,1960.2999999523163,"<p>Great, now try a short practice mission. </p><p> This time, you will have 1 second to respond and you won't know whether you pressed the right or wrong key for each planet.</p>",NA,NA,NA,NA,NA,NA,NA,NA,NA,1,6,"12,7,13,2,8,15,9,10,1,6,14,4,3,5,11"
14985,commdev-image-keyboard-response,27,131922,practice,598,img/practice1_right.png,NA,Number not found in mappings,NA,TRUE,j,j,NA,NA,NA,1,6,"12,7,13,2,8,15,9,10,1,6,14,4,3,5,11"
14985,commdev-image-keyboard-response,28,133176,practice,757.1000001430511,img/practice3_right.png,NA,Number not found in mappings,NA,TRUE,j,j,NA,NA,NA,1,6,"12,7,13,2,8,15,9,10,1,6,14,4,3,5,11"
14985,commdev-image-keyboard-response,29,134428,practice,762.2000000476837,img/practice4_right.png,NA,Number not found in mappings,NA,TRUE,j,j,NA,NA,NA,1,6,"12,7,13,2,8,15,9,10,1,6,14,4,3,5,11"
14985,commdev-image-keyboard-response,30,135690,practice,714,img/practice3_right.png,NA,Number not found in mappings,NA,TRUE,j,j,NA,NA,NA,1,6,"12,7,13,2,8,15,9,10,1,6,14,4,3,5,11"
14985,commdev-image-keyboard-response,31,136959,practice,638.7999999523163,img/practice1_left.png,NA,Number not found in mappings,NA,TRUE,f,f,NA,NA,NA,1,6,"12,7,13,2,8,15,9,10,1,6,14,4,3,5,11"
14985,commdev-image-keyboard-response,32,138220,practice,537.9000000953674,img/practice4_left.png,NA,Number not found in mappings,NA,TRUE,f,f,NA,NA,NA,1,6,"12,7,13,2,8,15,9,10,1,6,14,4,3,5,11"
14985,commdev-image-keyboard-response,33,139476,practice,730.7999999523163,img/practice2_right.png,NA,Number not found in mappings,NA,TRUE,j,j,NA,NA,NA,1,6,"12,7,13,2,8,15,9,10,1,6,14,4,3,5,11"
14985,commdev-image-keyboard-response,34,140740,practice,621,img/practice3_right.png,NA,Number not found in mappings,NA,TRUE,j,j,NA,NA,NA,1,6,"12,7,13,2,8,15,9,10,1,6,14,4,3,5,11"
14985,commdev-instructions,35,152959,NA,2666.2000000476837,"<p>Great job with the practice round.</p><p>During real missions, you won't know whether you pressed the right or wrong key for each planet.</p><p>But between missions, we will tell you how you did overall.</p>",NA,NA,NA,NA,NA,NA,NA,NA,NA,1,6,"12,7,13,2,8,15,9,10,1,6,14,4,3,5,11"
14985,commdev-instructions,36,162649,NA,1446.3999998569489,<p>Try your best! You will be paid a bonus based on how many correct responses you make!</p><p>Responses that are too slow will not count toward your bonus.</p>,NA,NA,NA,NA,NA,NA,NA,NA,NA,1,6,"12,7,13,2,8,15,9,10,1,6,14,4,3,5,11"
14985,commdev-instructions,37,169871,NA,1008.2999999523163,"<p>You are almost ready to start the real game.</p><p> First, we are going to ask you some questions about how the game works.</p>",NA,NA,NA,NA,NA,NA,NA,NA,NA,1,6,"12,7,13,2,8,15,9,10,1,6,14,4,3,5,11"
14985,commdev-instructions,46,250834,NA,1772.4000000953674,"<p> Nice work! It is now time to start the real game.<p></p>You will go on two missions to record wind directions of different planets.<p></p>Each one will take about 5 minutes. You will get to take a break between missions.<p><p> Remember, press <strong>F</strong> or <strong>J</strong> depending on the wind direction. Good luck!<br><img src=""img/categorize_planet_example.png""",NA,NA,NA,NA,NA,NA,NA,NA,NA,1,6,"12,7,13,2,8,15,9,10,1,6,14,4,3,5,11"
14985,commdev-image-keyboard-response,48,255881,learnblock1,1153.7000000476837,img/planet11_right.png,11,Community 3,NA,TRUE,j,j,NA,NA,NA,1,6,"12,7,13,2,8,15,9,10,1,6,14,4,3,5,11"
14985,commdev-image-keyboard-response,49,257149,learnblock1,849.9000000953674,img/planet14_left.png,14,Community 3,NA,TRUE,f,f,NA,NA,NA,1,6,"12,7,13,2,8,15,9,10,1,6,14,4,3,5,11"
14985,commdev-image-keyboard-response,50,258411,learnblock1,768.9000000953674,img/planet8_right.png,8,Community 1,NA,TRUE,j,j,NA,NA,NA,1,6,"12,7,13,2,8,15,9,10,1,6,14,4,3,5,11"
14985,commdev-image-keyboard-response,51,259668,learnblock1,782.2999999523163,img/planet12_right.png,12,Community 1,NA,TRUE,j,j,NA,NA,NA,1,6,"12,7,13,2,8,15,9,10,1,6,14,4,3,5,11"
14985,commdev-image-keyboard-response,52,260926,learnblock1,761,img/planet2_right.png,2,Community 1,NA,TRUE,j,j,NA,NA,NA,1,6,"12,7,13,2,8,15,9,10,1,6,14,4,3,5,11"
14985,commdev-image-keyboard-response,53,262194,learnblock1,717.3999998569489,img/planet7_left.png,7,Community 1,NA,TRUE,f,f,NA,NA,NA,1,6,"12,7,13,2,8,15,9,10,1,6,14,4,3,5,11"
14985,commdev-image-keyboard-response,54,263445,learnblock1,784.5,img/planet13_right.png,13,Community 1,NA,TRUE,j,j,NA,NA,NA,1,6,"12,7,13,2,8,15,9,10,1,6,14,4,3,5,11"
14985,commdev-image-keyboard-response,55,264704,learnblock1,718.7000000476837,img/planet12_left.png,12,Community 1,NA,TRUE,f,f,NA,NA,NA,1,6,"12,7,13,2,8,15,9,10,1,6,14,4,3,5,11"
14985,commdev-image-keyboard-response,56,265957,learnblock1,665,img/planet2_left.png,2,Community 1,NA,TRUE,f,f,NA,NA,NA,1,6,"12,7,13,2,8,15,9,10,1,6,14,4,3,5,11"
14985,commdev-image-keyboard-response,57,267223,learnblock1,689.7000000476837,img/planet12_left.png,12,Community 1,NA,TRUE,f,f,NA,NA,NA,1,6,"12,7,13,2,8,15,9,10,1,6,14,4,3,5,11"
14985,commdev-image-keyboard-response,58,268482,learnblock1,779.7000000476837,img/planet7_right.png,7,Community 1,NA,TRUE,j,j,NA,NA,NA,1,6,"12,7,13,2,8,15,9,10,1,6,14,4,3,5,11"
14985,commdev-image-keyboard-response,59,269746,learnblock1,760.2000000476837,img/planet13_left.png,13,Community 1,NA,TRUE,f,f,NA,NA,NA,1,6,"12,7,13,2,8,15,9,10,1,6,14,4,3,5,11"
14985,commdev-image-keyboard-response,60,271006,learnblock1,684.9000000953674,img/planet12_left.png,12,Community 1,NA,TRUE,f,f,NA,NA,NA,1,6,"12,7,13,2,8,15,9,10,1,6,14,4,3,5,11"
14985,commdev-image-keyboard-response,61,272271,learnblock1,677.5,img/planet13_right.png,13,Community 1,NA,TRUE,j,j,NA,NA,NA,1,6,"12,7,13,2,8,15,9,10,1,6,14,4,3,5,11"
14985,commdev-image-keyboard-response,62,273526,learnblock1,756.5999999046326,img/planet8_left.png,8,Community 1,NA,TRUE,f,f,NA,NA,NA,1,6,"12,7,13,2,8,15,9,10,1,6,14,4,3,5,11"
14985,commdev-image-keyboard-response,63,274785,learnblock1,680.5,img/planet13_left.png,13,Community 1,NA,TRUE,f,f,NA,NA,NA,1,6,"12,7,13,2,8,15,9,10,1,6,14,4,3,5,11"
14985,commdev-image-keyboard-response,64,276039,learnblock1,640.7000000476837,img/planet12_right.png,12,Community 1,NA,TRUE,j,j,NA,NA,NA,1,6,"12,7,13,2,8,15,9,10,1,6,14,4,3,5,11"
14985,commdev-image-keyboard-response,65,277292,learnblock1,684.2999999523163,img/planet2_right.png,2,Community 1,NA,TRUE,j,j,NA,NA,NA,1,6,"12,7,13,2,8,15,9,10,1,6,14,4,3,5,11"
14985,commdev-image-keyboard-response,66,278545,learnblock1,751.2000000476837,img/planet7_right.png,7,Community 1,NA,TRUE,j,j,NA,NA,NA,1,6,"12,7,13,2,8,15,9,10,1,6,14,4,3,5,11"
14985,commdev-image-keyboard-response,67,279806,learnblock1,670.2000000476837,img/planet8_left.png,8,Community 1,NA,TRUE,f,f,NA,NA,NA,1,6,"12,7,13,2,8,15,9,10,1,6,14,4,3,5,11"
14985,commdev-image-keyboard-response,68,281065,learnblock1,663.1999998092651,img/planet7_left.png,7,Community 1,NA,TRUE,f,f,NA,NA,NA,1,6,"12,7,13,2,8,15,9,10,1,6,14,4,3,5,11"
14985,commdev-image-keyboard-response,69,282318,learnblock1,652.7000000476837,img/planet13_right.png,13,Community 1,NA,TRUE,j,j,NA,NA,NA,1,6,"12,7,13,2,8,15,9,10,1,6,14,4,3,5,11"
14985,commdev-image-keyboard-response,70,283570,learnblock1,699.2999999523163,img/planet8_left.png,8,Community 1,NA,TRUE,f,f,NA,NA,NA,1,6,"12,7,13,2,8,15,9,10,1,6,14,4,3,5,11"
14985,commdev-image-keyboard-response,71,284828,learnblock1,758.2999999523163,img/planet14_right.png,14,Community 3,NA,TRUE,j,j,NA,NA,NA,1,6,"12,7,13,2,8,15,9,10,1,6,14,4,3,5,11"
14985,commdev-image-keyboard-response,72,286082,learnblock1,665.5,img/planet11_right.png,11,Community 3,NA,TRUE,j,j,NA,NA,NA,1,6,"12,7,13,2,8,15,9,10,1,6,14,4,3,5,11"
14985,commdev-image-keyboard-response,73,287334,learnblock1,610.2999999523163,img/planet3_left.png,3,Community 3,NA,TRUE,f,f,NA,NA,NA,1,6,"12,7,13,2,8,15,9,10,1,6,14,4,3,5,11"
14985,commdev-image-keyboard-response,74,288592,learnblock1,632.8999998569489,img/planet4_left.png,4,Community 3,NA,TRUE,f,f,NA,NA,NA,1,6,"12,7,13,2,8,15,9,10,1,6,14,4,3,5,11"
14985,commdev-image-keyboard-response,75,289846,learnblock1,615.7000000476837,img/planet10_right.png,10,Community 2,NA,TRUE,j,j,NA,NA,NA,1,6,"12,7,13,2,8,15,9,10,1,6,14,4,3,5,11"
14985,commdev-image-keyboard-response,76,291098,learnblock1,789.6999998092651,img/planet6_left.png,6,Community 2,NA,TRUE,f,f,NA,NA,NA,1,6,"12,7,13,2,8,15,9,10,1,6,14,4,3,5,11"
14985,commdev-image-keyboard-response,77,292366,learnblock1,768.6999998092651,img/planet10_right.png,10,Community 2,NA,TRUE,j,j,NA,NA,NA,1,6,"12,7,13,2,8,15,9,10,1,6,14,4,3,5,11"
14985,commdev-image-keyboard-response,78,293625,learnblock1,653.2999999523163,img/planet9_left.png,9,Community 2,NA,TRUE,f,f,NA,NA,NA,1,6,"12,7,13,2,8,15,9,10,1,6,14,4,3,5,11"
14985,commdev-image-keyboard-response,79,294877,learnblock1,733.1999998092651,img/planet6_left.png,6,Community 2,NA,TRUE,f,f,NA,NA,NA,1,6,"12,7,13,2,8,15,9,10,1,6,14,4,3,5,11"
14985,commdev-image-keyboard-response,80,296131,learnblock1,698.9000000953674,img/planet9_right.png,9,Community 2,NA,TRUE,j,j,NA,NA,NA,1,6,"12,7,13,2,8,15,9,10,1,6,14,4,3,5,11"
14985,commdev-image-keyboard-response,81,297396,learnblock1,632.7999999523163,img/planet15_left.png,15,Community 2,NA,TRUE,f,f,NA,NA,NA,1,6,"12,7,13,2,8,15,9,10,1,6,14,4,3,5,11"
14985,commdev-image-keyboard-response,82,298664,learnblock1,600.1000001430511,img/planet9_right.png,9,Community 2,NA,TRUE,j,j,NA,NA,NA,1,6,"12,7,13,2,8,15,9,10,1,6,14,4,3,5,11"
14985,commdev-image-keyboard-response,83,299926,learnblock1,537.8999998569489,img/planet10_left.png,10,Community 2,NA,TRUE,f,f,NA,NA,NA,1,6,"12,7,13,2,8,15,9,10,1,6,14,4,3,5,11"
14985,commdev-image-keyboard-response,84,301183,learnblock1,617.7999999523163,img/planet1_left.png,1,Community 2,NA,TRUE,f,f,NA,NA,NA,1,6,"12,7,13,2,8,15,9,10,1,6,14,4,3,5,11"
14985,commdev-image-keyboard-response,85,302434,learnblock1,540.9000000953674,img/planet10_right.png,10,Community 2,NA,TRUE,j,j,NA,NA,NA,1,6,"12,7,13,2,8,15,9,10,1,6,14,4,3,5,11"
14985,commdev-image-keyboard-response,86,303691,learnblock1,876,img/planet1_right.png,1,Community 2,NA,TRUE,j,j,NA,NA,NA,1,6,"12,7,13,2,8,15,9,10,1,6,14,4,3,5,11"
14985,commdev-image-keyboard-response,87,304949,learnblock1,719.0999999046326,img/planet6_left.png,6,Community 2,NA,TRUE,f,f,NA,NA,NA,1,6,"12,7,13,2,8,15,9,10,1,6,14,4,3,5,11"
14985,commdev-image-keyboard-response,88,306211,learnblock1,692.0999999046326,img/planet1_left.png,1,Community 2,NA,TRUE,f,f,NA,NA,NA,1,6,"12,7,13,2,8,15,9,10,1,6,14,4,3,5,11"
14985,commdev-image-keyboard-response,89,307468,learnblock1,642.5,img/planet6_left.png,6,Community 2,NA,TRUE,f,f,NA,NA,NA,1,6,"12,7,13,2,8,15,9,10,1,6,14,4,3,5,11"
14985,commdev-image-keyboard-response,90,308731,learnblock1,625.7000000476837,img/planet10_right.png,10,Community 2,NA,TRUE,j,j,NA,NA,NA,1,6,"12,7,13,2,8,15,9,10,1,6,14,4,3,5,11"
14985,commdev-image-keyboard-response,91,309984,learnblock1,592.6999998092651,img/planet9_right.png,9,Community 2,NA,TRUE,j,j,NA,NA,NA,1,6,"12,7,13,2,8,15,9,10,1,6,14,4,3,5,11"
14985,commdev-image-keyboard-response,92,311243,learnblock1,712.2999999523163,img/planet15_right.png,15,Community 2,NA,TRUE,j,j,NA,NA,NA,1,6,"12,7,13,2,8,15,9,10,1,6,14,4,3,5,11"
14985,commdev-image-keyboard-response,93,312510,learnblock1,615.9000000953674,img/planet6_right.png,6,Community 2,NA,TRUE,j,j,NA,NA,NA,1,6,"12,7,13,2,8,15,9,10,1,6,14,4,3,5,11"
14985,commdev-image-keyboard-response,94,313776,learnblock1,579.1000001430511,img/planet1_left.png,1,Community 2,NA,TRUE,f,f,NA,NA,NA,1,6,"12,7,13,2,8,15,9,10,1,6,14,4,3,5,11"
14985,commdev-image-keyboard-response,95,315033,learnblock1,647.2000000476837,img/planet9_right.png,9,Community 2,NA,TRUE,j,j,NA,NA,NA,1,6,"12,7,13,2,8,15,9,10,1,6,14,4,3,5,11"
14985,commdev-image-keyboard-response,96,316286,learnblock1,765.5999999046326,img/planet1_left.png,1,Community 2,NA,TRUE,f,f,NA,NA,NA,1,6,"12,7,13,2,8,15,9,10,1,6,14,4,3,5,11"
14985,commdev-image-keyboard-response,97,317543,learnblock1,877.2999999523163,img/planet15_left.png,15,Community 2,NA,TRUE,f,f,NA,NA,NA,1,6,"12,7,13,2,8,15,9,10,1,6,14,4,3,5,11"
14985,commdev-image-keyboard-response,98,318809,learnblock1,731.3000001907349,img/planet9_right.png,9,Community 2,NA,TRUE,j,j,NA,NA,NA,1,6,"12,7,13,2,8,15,9,10,1,6,14,4,3,5,11"
14985,commdev-image-keyboard-response,99,320068,learnblock1,1084.0999999046326,img/planet15_right.png,15,Community 2,NA,TRUE,j,j,NA,NA,NA,1,6,"12,7,13,2,8,15,9,10,1,6,14,4,3,5,11"
14985,commdev-image-keyboard-response,100,321321,learnblock1,null,img/planet6_left.png,6,Community 2,NA,FALSE,null,f,NA,NA,NA,1,6,"12,7,13,2,8,15,9,10,1,6,14,4,3,5,11"
14985,commdev-image-keyboard-response,101,322578,learnblock1,28.5,img/planet15_left.png,15,Community 2,NA,TRUE,f,f,NA,NA,NA,1,6,"12,7,13,2,8,15,9,10,1,6,14,4,3,5,11"
14985,commdev-image-keyboard-response,102,323833,learnblock1,575.7999999523163,img/planet9_left.png,9,Community 2,NA,TRUE,f,f,NA,NA,NA,1,6,"12,7,13,2,8,15,9,10,1,6,14,4,3,5,11"
14985,commdev-image-keyboard-response,103,325092,learnblock1,593.2000000476837,img/planet1_right.png,1,Community 2,NA,TRUE,j,j,NA,NA,NA,1,6,"12,7,13,2,8,15,9,10,1,6,14,4,3,5,11"
14985,commdev-image-keyboard-response,104,326354,learnblock1,581.3000001907349,img/planet10_right.png,10,Community 2,NA,TRUE,j,j,NA,NA,NA,1,6,"12,7,13,2,8,15,9,10,1,6,14,4,3,5,11"
14985,commdev-image-keyboard-response,105,327608,learnblock1,844.7999999523163,img/planet9_left.png,9,Community 2,NA,TRUE,f,f,NA,NA,NA,1,6,"12,7,13,2,8,15,9,10,1,6,14,4,3,5,11"
14985,commdev-image-keyboard-response,106,328869,learnblock1,680,img/planet10_right.png,10,Community 2,NA,TRUE,j,j,NA,NA,NA,1,6,"12,7,13,2,8,15,9,10,1,6,14,4,3,5,11"
14985,commdev-image-keyboard-response,107,330127,learnblock1,605.7999999523163,img/planet1_left.png,1,Community 2,NA,TRUE,f,f,NA,NA,NA,1,6,"12,7,13,2,8,15,9,10,1,6,14,4,3,5,11"
14985,commdev-image-keyboard-response,108,331391,learnblock1,541.2999999523163,img/planet10_right.png,10,Community 2,NA,TRUE,j,j,NA,NA,NA,1,6,"12,7,13,2,8,15,9,10,1,6,14,4,3,5,11"
14985,commdev-image-keyboard-response,109,332649,learnblock1,549.7000000476837,img/planet9_right.png,9,Community 2,NA,TRUE,j,j,NA,NA,NA,1,6,"12,7,13,2,8,15,9,10,1,6,14,4,3,5,11"
14985,commdev-image-keyboard-response,110,333916,learnblock1,819.1999998092651,img/planet6_left.png,6,Community 2,NA,TRUE,f,f,NA,NA,NA,1,6,"12,7,13,2,8,15,9,10,1,6,14,4,3,5,11"
14985,commdev-image-keyboard-response,111,335174,learnblock1,1036.9000000953674,img/planet15_right.png,15,Community 2,NA,TRUE,j,j,NA,NA,NA,1,6,"12,7,13,2,8,15,9,10,1,6,14,4,3,5,11"
14985,commdev-image-keyboard-response,112,336429,learnblock1,625.3000001907349,img/planet9_right.png,9,Community 2,NA,TRUE,j,j,NA,NA,NA,1,6,"12,7,13,2,8,15,9,10,1,6,14,4,3,5,11"
14985,commdev-image-keyboard-response,113,337687,learnblock1,612.2999999523163,img/planet1_left.png,1,Community 2,NA,TRUE,f,f,NA,NA,NA,1,6,"12,7,13,2,8,15,9,10,1,6,14,4,3,5,11"
14985,commdev-image-keyboard-response,114,338942,learnblock1,548.7000000476837,img/planet15_left.png,15,Community 2,NA,TRUE,f,f,NA,NA,NA,1,6,"12,7,13,2,8,15,9,10,1,6,14,4,3,5,11"
14985,commdev-image-keyboard-response,115,340199,learnblock1,540.5999999046326,img/planet9_right.png,9,Community 2,NA,TRUE,j,j,NA,NA,NA,1,6,"12,7,13,2,8,15,9,10,1,6,14,4,3,5,11"
14985,commdev-image-keyboard-response,116,341466,learnblock1,459.60000014305115,img/planet10_left.png,10,Community 2,NA,TRUE,f,f,NA,NA,NA,1,6,"12,7,13,2,8,15,9,10,1,6,14,4,3,5,11"
14985,commdev-image-keyboard-response,117,342723,learnblock1,869.5,img/planet9_right.png,9,Community 2,NA,TRUE,j,j,NA,NA,NA,1,6,"12,7,13,2,8,15,9,10,1,6,14,4,3,5,11"
14985,commdev-image-keyboard-response,118,343976,learnblock1,562.0999999046326,img/planet15_left.png,15,Community 2,NA,TRUE,f,f,NA,NA,NA,1,6,"12,7,13,2,8,15,9,10,1,6,14,4,3,5,11"
14985,commdev-image-keyboard-response,119,345243,learnblock1,640.5,img/planet2_right.png,2,Community 1,NA,TRUE,j,j,NA,NA,NA,1,6,"12,7,13,2,8,15,9,10,1,6,14,4,3,5,11"
14985,commdev-image-keyboard-response,120,346501,learnblock1,606.8999998569489,img/planet12_right.png,12,Community 1,NA,TRUE,j,j,NA,NA,NA,1,6,"12,7,13,2,8,15,9,10,1,6,14,4,3,5,11"
14985,commdev-image-keyboard-response,121,347753,learnblock1,558.5,img/planet7_left.png,7,Community 1,NA,TRUE,f,f,NA,NA,NA,1,6,"12,7,13,2,8,15,9,10,1,6,14,4,3,5,11"
14985,commdev-image-keyboard-response,122,349013,learnblock1,820.7999999523163,img/planet2_right.png,2,Community 1,NA,FALSE,f,j,NA,NA,NA,1,6,"12,7,13,2,8,15,9,10,1,6,14,4,3,5,11"
14985,commdev-image-keyboard-response,123,350267,learnblock1,867.8999998569489,img/planet15_left.png,15,Community 2,NA,TRUE,f,f,NA,NA,NA,1,6,"12,7,13,2,8,15,9,10,1,6,14,4,3,5,11"
14985,commdev-image-keyboard-response,124,351521,learnblock1,879,img/planet6_left.png,6,Community 2,NA,TRUE,f,f,NA,NA,NA,1,6,"12,7,13,2,8,15,9,10,1,6,14,4,3,5,11"
14985,commdev-image-keyboard-response,125,352774,learnblock1,834.5,img/planet1_left.png,1,Community 2,NA,TRUE,f,f,NA,NA,NA,1,6,"12,7,13,2,8,15,9,10,1,6,14,4,3,5,11"
14985,commdev-image-keyboard-response,126,354042,learnblock1,726.2000000476837,img/planet15_left.png,15,Community 2,NA,TRUE,f,f,NA,NA,NA,1,6,"12,7,13,2,8,15,9,10,1,6,14,4,3,5,11"
14985,commdev-image-keyboard-response,127,355301,learnblock1,577.2000000476837,img/planet9_right.png,9,Community 2,NA,TRUE,j,j,NA,NA,NA,1,6,"12,7,13,2,8,15,9,10,1,6,14,4,3,5,11"
14985,commdev-image-keyboard-response,128,356565,learnblock1,672.4000000953674,img/planet15_right.png,15,Community 2,NA,TRUE,j,j,NA,NA,NA,1,6,"12,7,13,2,8,15,9,10,1,6,14,4,3,5,11"
14985,commdev-image-keyboard-response,129,357820,learnblock1,565.1000001430511,img/planet9_left.png,9,Community 2,NA,TRUE,f,f,NA,NA,NA,1,6,"12,7,13,2,8,15,9,10,1,6,14,4,3,5,11"
14985,commdev-image-keyboard-response,130,359079,learnblock1,745,img/planet10_right.png,10,Community 2,NA,FALSE,f,j,NA,NA,NA,1,6,"12,7,13,2,8,15,9,10,1,6,14,4,3,5,11"
14985,commdev-image-keyboard-response,131,360335,learnblock1,652,img/planet9_right.png,9,Community 2,NA,TRUE,j,j,NA,NA,NA,1,6,"12,7,13,2,8,15,9,10,1,6,14,4,3,5,11"
14985,commdev-image-keyboard-response,132,361589,learnblock1,758.3999998569489,img/planet10_right.png,10,Community 2,NA,TRUE,j,j,NA,NA,NA,1,6,"12,7,13,2,8,15,9,10,1,6,14,4,3,5,11"
14985,commdev-image-keyboard-response,133,362847,learnblock1,707.0999999046326,img/planet9_right.png,9,Community 2,NA,TRUE,j,j,NA,NA,NA,1,6,"12,7,13,2,8,15,9,10,1,6,14,4,3,5,11"
14985,commdev-image-keyboard-response,134,364106,learnblock1,560.9000000953674,img/planet10_right.png,10,Community 2,NA,TRUE,j,j,NA,NA,NA,1,6,"12,7,13,2,8,15,9,10,1,6,14,4,3,5,11"
14985,commdev-image-keyboard-response,135,365363,learnblock1,525.1000001430511,img/planet9_right.png,9,Community 2,NA,TRUE,j,j,NA,NA,NA,1,6,"12,7,13,2,8,15,9,10,1,6,14,4,3,5,11"
14985,commdev-image-keyboard-response,136,366617,learnblock1,599.6000001430511,img/planet6_right.png,6,Community 2,NA,TRUE,j,j,NA,NA,NA,1,6,"12,7,13,2,8,15,9,10,1,6,14,4,3,5,11"
14985,commdev-image-keyboard-response,137,367873,learnblock1,602.7000000476837,img/planet1_right.png,1,Community 2,NA,TRUE,j,j,NA,NA,NA,1,6,"12,7,13,2,8,15,9,10,1,6,14,4,3,5,11"
14985,commdev-image-keyboard-response,138,369127,learnblock1,609,img/planet9_right.png,9,Community 2,NA,TRUE,j,j,NA,NA,NA,1,6,"12,7,13,2,8,15,9,10,1,6,14,4,3,5,11"
14985,commdev-image-keyboard-response,139,370383,learnblock1,591.7999999523163,img/planet1_left.png,1,Community 2,NA,TRUE,f,f,NA,NA,NA,1,6,"12,7,13,2,8,15,9,10,1,6,14,4,3,5,11"
14985,commdev-image-keyboard-response,140,371635,learnblock1,1130.6000001430511,img/planet9_right.png,9,Community 2,NA,TRUE,j,j,NA,NA,NA,1,6,"12,7,13,2,8,15,9,10,1,6,14,4,3,5,11"
14985,commdev-image-keyboard-response,141,372899,learnblock1,891.3000001907349,img/planet1_right.png,1,Community 2,NA,TRUE,j,j,NA,NA,NA,1,6,"12,7,13,2,8,15,9,10,1,6,14,4,3,5,11"
14985,commdev-image-keyboard-response,142,374165,learnblock1,608.8999998569489,img/planet10_right.png,10,Community 2,NA,TRUE,j,j,NA,NA,NA,1,6,"12,7,13,2,8,15,9,10,1,6,14,4,3,5,11"
14985,commdev-image-keyboard-response,143,375420,learnblock1,614.1000001430511,img/planet6_right.png,6,Community 2,NA,TRUE,j,j,NA,NA,NA,1,6,"12,7,13,2,8,15,9,10,1,6,14,4,3,5,11"
14985,commdev-image-keyboard-response,144,376673,learnblock1,737.8000001907349,img/planet10_right.png,10,Community 2,NA,TRUE,j,j,NA,NA,NA,1,6,"12,7,13,2,8,15,9,10,1,6,14,4,3,5,11"
14985,commdev-image-keyboard-response,145,377927,learnblock1,569.1000001430511,img/planet9_left.png,9,Community 2,NA,TRUE,f,f,NA,NA,NA,1,6,"12,7,13,2,8,15,9,10,1,6,14,4,3,5,11"
14985,commdev-image-keyboard-response,146,379185,learnblock1,655.8000001907349,img/planet15_right.png,15,Community 2,NA,TRUE,j,j,NA,NA,NA,1,6,"12,7,13,2,8,15,9,10,1,6,14,4,3,5,11"
14985,commdev-image-keyboard-response,147,380446,learnblock1,545.2000000476837,img/planet1_right.png,1,Community 2,NA,TRUE,j,j,NA,NA,NA,1,6,"12,7,13,2,8,15,9,10,1,6,14,4,3,5,11"
14985,commdev-image-keyboard-response,148,381698,learnblock1,514.2999999523163,img/planet9_right.png,9,Community 2,NA,TRUE,j,j,NA,NA,NA,1,6,"12,7,13,2,8,15,9,10,1,6,14,4,3,5,11"
14985,commdev-image-keyboard-response,149,382955,learnblock1,514.3000001907349,img/planet10_right.png,10,Community 2,NA,TRUE,j,j,NA,NA,NA,1,6,"12,7,13,2,8,15,9,10,1,6,14,4,3,5,11"
14985,commdev-image-keyboard-response,150,384207,learnblock1,605.5,img/planet1_right.png,1,Community 2,NA,TRUE,j,j,NA,NA,NA,1,6,"12,7,13,2,8,15,9,10,1,6,14,4,3,5,11"
14985,commdev-image-keyboard-response,151,385462,learnblock1,657.2000000476837,img/planet15_right.png,15,Community 2,NA,TRUE,j,j,NA,NA,NA,1,6,"12,7,13,2,8,15,9,10,1,6,14,4,3,5,11"
14985,commdev-image-keyboard-response,152,386726,learnblock1,563.9000000953674,img/planet2_right.png,2,Community 1,NA,TRUE,j,j,NA,NA,NA,1,6,"12,7,13,2,8,15,9,10,1,6,14,4,3,5,11"
14985,commdev-image-keyboard-response,153,387983,learnblock1,660.6000001430511,img/planet15_left.png,15,Community 2,NA,TRUE,f,f,NA,NA,NA,1,6,"12,7,13,2,8,15,9,10,1,6,14,4,3,5,11"
14985,commdev-image-keyboard-response,154,389235,learnblock1,632.2999999523163,img/planet6_left.png,6,Community 2,NA,TRUE,f,f,NA,NA,NA,1,6,"12,7,13,2,8,15,9,10,1,6,14,4,3,5,11"
14985,commdev-image-keyboard-response,155,390495,learnblock1,502,img/planet1_right.png,1,Community 2,NA,TRUE,j,j,NA,NA,NA,1,6,"12,7,13,2,8,15,9,10,1,6,14,4,3,5,11"
14985,commdev-image-keyboard-response,156,391761,learnblock1,594,img/planet10_left.png,10,Community 2,NA,TRUE,f,f,NA,NA,NA,1,6,"12,7,13,2,8,15,9,10,1,6,14,4,3,5,11"
14985,commdev-image-keyboard-response,157,393015,learnblock1,631.6000001430511,img/planet6_left.png,6,Community 2,NA,TRUE,f,f,NA,NA,NA,1,6,"12,7,13,2,8,15,9,10,1,6,14,4,3,5,11"
14985,commdev-image-keyboard-response,158,394274,learnblock1,657.4000000953674,img/planet9_left.png,9,Community 2,NA,TRUE,f,f,NA,NA,NA,1,6,"12,7,13,2,8,15,9,10,1,6,14,4,3,5,11"
14985,commdev-image-keyboard-response,159,395535,learnblock1,582.2999999523163,img/planet15_left.png,15,Community 2,NA,TRUE,f,f,NA,NA,NA,1,6,"12,7,13,2,8,15,9,10,1,6,14,4,3,5,11"
14985,commdev-image-keyboard-response,160,396800,learnblock1,600.2000000476837,img/planet9_left.png,9,Community 2,NA,TRUE,f,f,NA,NA,NA,1,6,"12,7,13,2,8,15,9,10,1,6,14,4,3,5,11"
14985,commdev-image-keyboard-response,161,398054,learnblock1,482.2999999523163,img/planet10_left.png,10,Community 2,NA,TRUE,f,f,NA,NA,NA,1,6,"12,7,13,2,8,15,9,10,1,6,14,4,3,5,11"
14985,commdev-image-keyboard-response,162,399309,learnblock1,595.6000001430511,img/planet1_left.png,1,Community 2,NA,TRUE,f,f,NA,NA,NA,1,6,"12,7,13,2,8,15,9,10,1,6,14,4,3,5,11"
14985,commdev-image-keyboard-response,163,400563,learnblock1,532.1000001430511,img/planet6_left.png,6,Community 2,NA,TRUE,f,f,NA,NA,NA,1,6,"12,7,13,2,8,15,9,10,1,6,14,4,3,5,11"
14985,commdev-image-keyboard-response,164,401830,learnblock1,857.7000000476837,img/planet1_right.png,1,Community 2,NA,TRUE,j,j,NA,NA,NA,1,6,"12,7,13,2,8,15,9,10,1,6,14,4,3,5,11"
14985,commdev-image-keyboard-response,165,403082,learnblock1,569.5999999046326,img/planet10_left.png,10,Community 2,NA,TRUE,f,f,NA,NA,NA,1,6,"12,7,13,2,8,15,9,10,1,6,14,4,3,5,11"
14985,commdev-image-keyboard-response,166,404337,learnblock1,690.5,img/planet1_left.png,1,Community 2,NA,TRUE,f,f,NA,NA,NA,1,6,"12,7,13,2,8,15,9,10,1,6,14,4,3,5,11"
14985,commdev-image-keyboard-response,167,405595,learnblock1,525.4000000953674,img/planet15_left.png,15,Community 2,NA,TRUE,f,f,NA,NA,NA,1,6,"12,7,13,2,8,15,9,10,1,6,14,4,3,5,11"
14985,commdev-image-keyboard-response,168,406847,learnblock1,540.9000000953674,img/planet1_right.png,1,Community 2,NA,TRUE,j,j,NA,NA,NA,1,6,"12,7,13,2,8,15,9,10,1,6,14,4,3,5,11"
14985,commdev-image-keyboard-response,169,408100,learnblock1,534.7999999523163,img/planet9_left.png,9,Community 2,NA,TRUE,f,f,NA,NA,NA,1,6,"12,7,13,2,8,15,9,10,1,6,14,4,3,5,11"
14985,commdev-image-keyboard-response,170,409364,learnblock1,914.8999998569489,img/planet1_right.png,1,Community 2,NA,TRUE,j,j,NA,NA,NA,1,6,"12,7,13,2,8,15,9,10,1,6,14,4,3,5,11"
14985,commdev-image-keyboard-response,171,410621,learnblock1,831.5,img/planet15_right.png,15,Community 2,NA,TRUE,j,j,NA,NA,NA,1,6,"12,7,13,2,8,15,9,10,1,6,14,4,3,5,11"
14985,commdev-image-keyboard-response,172,411879,learnblock1,591.7000000476837,img/planet9_left.png,9,Community 2,NA,TRUE,f,f,NA,NA,NA,1,6,"12,7,13,2,8,15,9,10,1,6,14,4,3,5,11"
14985,commdev-image-keyboard-response,173,413139,learnblock1,634.0999999046326,img/planet6_left.png,6,Community 2,NA,TRUE,f,f,NA,NA,NA,1,6,"12,7,13,2,8,15,9,10,1,6,14,4,3,5,11"
14985,commdev-image-keyboard-response,174,414392,learnblock1,642.2999999523163,img/planet9_left.png,9,Community 2,NA,TRUE,f,f,NA,NA,NA,1,6,"12,7,13,2,8,15,9,10,1,6,14,4,3,5,11"
14985,commdev-image-keyboard-response,175,415655,learnblock1,501.10000014305115,img/planet10_left.png,10,Community 2,NA,TRUE,f,f,NA,NA,NA,1,6,"12,7,13,2,8,15,9,10,1,6,14,4,3,5,11"
14985,commdev-image-keyboard-response,176,416909,learnblock1,560.2999999523163,img/planet6_right.png,6,Community 2,NA,FALSE,f,j,NA,NA,NA,1,6,"12,7,13,2,8,15,9,10,1,6,14,4,3,5,11"
14985,commdev-image-keyboard-response,177,418169,learnblock1,901.3999998569489,img/planet10_left.png,10,Community 2,NA,TRUE,f,f,NA,NA,NA,1,6,"12,7,13,2,8,15,9,10,1,6,14,4,3,5,11"
14985,commdev-image-keyboard-response,178,419429,learnblock1,967.9000000953674,img/planet9_left.png,9,Community 2,NA,TRUE,f,f,NA,NA,NA,1,6,"12,7,13,2,8,15,9,10,1,6,14,4,3,5,11"
14985,commdev-image-keyboard-response,179,420687,learnblock1,526.7000000476837,img/planet10_left.png,10,Community 2,NA,TRUE,f,f,NA,NA,NA,1,6,"12,7,13,2,8,15,9,10,1,6,14,4,3,5,11"
14985,commdev-image-keyboard-response,180,421939,learnblock1,574.2000000476837,img/planet4_left.png,4,Community 3,NA,TRUE,f,f,NA,NA,NA,1,6,"12,7,13,2,8,15,9,10,1,6,14,4,3,5,11"
14985,commdev-image-keyboard-response,181,423199,learnblock1,574.2000000476837,img/planet11_left.png,11,Community 3,NA,TRUE,f,f,NA,NA,NA,1,6,"12,7,13,2,8,15,9,10,1,6,14,4,3,5,11"
14985,commdev-image-keyboard-response,182,424450,learnblock1,594.2000000476837,img/planet4_left.png,4,Community 3,NA,TRUE,f,f,NA,NA,NA,1,6,"12,7,13,2,8,15,9,10,1,6,14,4,3,5,11"
14985,commdev-image-keyboard-response,183,425715,learnblock1,588.2999999523163,img/planet10_right.png,10,Community 2,NA,TRUE,j,j,NA,NA,NA,1,6,"12,7,13,2,8,15,9,10,1,6,14,4,3,5,11"
14985,commdev-image-keyboard-response,184,426979,learnblock1,752.5999999046326,img/planet6_right.png,6,Community 2,NA,TRUE,j,j,NA,NA,NA,1,6,"12,7,13,2,8,15,9,10,1,6,14,4,3,5,11"
14985,commdev-image-keyboard-response,185,428233,learnblock1,733.9000000953674,img/planet10_right.png,10,Community 2,NA,TRUE,j,j,NA,NA,NA,1,6,"12,7,13,2,8,15,9,10,1,6,14,4,3,5,11"
14985,commdev-image-keyboard-response,186,429490,learnblock1,714.5999999046326,img/planet6_left.png,6,Community 2,NA,TRUE,f,f,NA,NA,NA,1,6,"12,7,13,2,8,15,9,10,1,6,14,4,3,5,11"
14985,commdev-image-keyboard-response,187,430751,learnblock1,724.5,img/planet10_left.png,10,Community 2,NA,TRUE,f,f,NA,NA,NA,1,6,"12,7,13,2,8,15,9,10,1,6,14,4,3,5,11"
14985,commdev-image-keyboard-response,188,432009,learnblock1,614.7999999523163,img/planet1_left.png,1,Community 2,NA,TRUE,f,f,NA,NA,NA,1,6,"12,7,13,2,8,15,9,10,1,6,14,4,3,5,11"
14985,commdev-image-keyboard-response,189,433264,learnblock1,728.1000001430511,img/planet15_right.png,15,Community 2,NA,TRUE,j,j,NA,NA,NA,1,6,"12,7,13,2,8,15,9,10,1,6,14,4,3,5,11"
14985,commdev-image-keyboard-response,190,434532,learnblock1,621.2999999523163,img/planet2_right.png,2,Community 1,NA,TRUE,j,j,NA,NA,NA,1,6,"12,7,13,2,8,15,9,10,1,6,14,4,3,5,11"
14985,commdev-image-keyboard-response,191,435798,learnblock1,693.9000000953674,img/planet15_right.png,15,Community 2,NA,TRUE,j,j,NA,NA,NA,1,6,"12,7,13,2,8,15,9,10,1,6,14,4,3,5,11"
14985,commdev-image-keyboard-response,192,437056,learnblock1,643.7000000476837,img/planet6_right.png,6,Community 2,NA,TRUE,j,j,NA,NA,NA,1,6,"12,7,13,2,8,15,9,10,1,6,14,4,3,5,11"
14985,commdev-image-keyboard-response,193,438309,learnblock1,577.9000000953674,img/planet10_left.png,10,Community 2,NA,TRUE,f,f,NA,NA,NA,1,6,"12,7,13,2,8,15,9,10,1,6,14,4,3,5,11"
14985,commdev-image-keyboard-response,194,439574,learnblock1,719.4000000953674,img/planet1_left.png,1,Community 2,NA,TRUE,f,f,NA,NA,NA,1,6,"12,7,13,2,8,15,9,10,1,6,14,4,3,5,11"
14985,commdev-image-keyboard-response,195,440837,learnblock1,740.5,img/planet6_left.png,6,Community 2,NA,TRUE,f,f,NA,NA,NA,1,6,"12,7,13,2,8,15,9,10,1,6,14,4,3,5,11"
14985,commdev-image-keyboard-response,196,442091,learnblock1,568.7000000476837,img/planet1_left.png,1,Community 2,NA,TRUE,f,f,NA,NA,NA,1,6,"12,7,13,2,8,15,9,10,1,6,14,4,3,5,11"
14985,commdev-image-keyboard-response,197,443359,learnblock1,617.2999999523163,img/planet9_left.png,9,Community 2,NA,TRUE,f,f,NA,NA,NA,1,6,"12,7,13,2,8,15,9,10,1,6,14,4,3,5,11"
14985,commdev-image-keyboard-response,198,444619,learnblock1,532.2000000476837,img/planet10_right.png,10,Community 2,NA,FALSE,f,j,NA,NA,NA,1,6,"12,7,13,2,8,15,9,10,1,6,14,4,3,5,11"
14985,commdev-image-keyboard-response,199,445878,learnblock1,556.7999999523163,img/planet9_left.png,9,Community 2,NA,TRUE,f,f,NA,NA,NA,1,6,"12,7,13,2,8,15,9,10,1,6,14,4,3,5,11"
14985,commdev-image-keyboard-response,200,447145,learnblock1,575.5,img/planet6_right.png,6,Community 2,NA,TRUE,j,j,NA,NA,NA,1,6,"12,7,13,2,8,15,9,10,1,6,14,4,3,5,11"
14985,commdev-image-keyboard-response,201,448403,learnblock1,778.8000001907349,img/planet15_left.png,15,Community 2,NA,TRUE,f,f,NA,NA,NA,1,6,"12,7,13,2,8,15,9,10,1,6,14,4,3,5,11"
14985,commdev-image-keyboard-response,202,449669,learnblock1,862.2999999523163,img/planet9_right.png,9,Community 2,NA,TRUE,j,j,NA,NA,NA,1,6,"12,7,13,2,8,15,9,10,1,6,14,4,3,5,11"
14985,commdev-image-keyboard-response,203,450920,learnblock1,610.5,img/planet6_right.png,6,Community 2,NA,TRUE,j,j,NA,NA,NA,1,6,"12,7,13,2,8,15,9,10,1,6,14,4,3,5,11"
14985,commdev-image-keyboard-response,204,452179,learnblock1,586.5,img/planet9_right.png,9,Community 2,NA,TRUE,j,j,NA,NA,NA,1,6,"12,7,13,2,8,15,9,10,1,6,14,4,3,5,11"
14985,commdev-image-keyboard-response,205,453436,learnblock1,588.4000000953674,img/planet1_right.png,1,Community 2,NA,TRUE,j,j,NA,NA,NA,1,6,"12,7,13,2,8,15,9,10,1,6,14,4,3,5,11"
14985,commdev-image-keyboard-response,206,454693,learnblock1,589.2999999523163,img/planet15_left.png,15,Community 2,NA,TRUE,f,f,NA,NA,NA,1,6,"12,7,13,2,8,15,9,10,1,6,14,4,3,5,11"
14985,commdev-image-keyboard-response,207,455945,learnblock1,552.5999999046326,img/planet1_right.png,1,Community 2,NA,TRUE,j,j,NA,NA,NA,1,6,"12,7,13,2,8,15,9,10,1,6,14,4,3,5,11"
14985,commdev-image-keyboard-response,208,457209,learnblock1,636.6000001430511,img/planet6_left.png,6,Community 2,NA,TRUE,f,f,NA,NA,NA,1,6,"12,7,13,2,8,15,9,10,1,6,14,4,3,5,11"
14985,commdev-image-keyboard-response,209,458462,learnblock1,550.4000000953674,img/planet10_right.png,10,Community 2,NA,TRUE,j,j,NA,NA,NA,1,6,"12,7,13,2,8,15,9,10,1,6,14,4,3,5,11"
14985,commdev-image-keyboard-response,210,459716,learnblock1,528.7999999523163,img/planet9_right.png,9,Community 2,NA,TRUE,j,j,NA,NA,NA,1,6,"12,7,13,2,8,15,9,10,1,6,14,4,3,5,11"
14985,commdev-image-keyboard-response,211,460974,learnblock1,697,img/planet15_right.png,15,Community 2,NA,TRUE,j,j,NA,NA,NA,1,6,"12,7,13,2,8,15,9,10,1,6,14,4,3,5,11"
14985,commdev-image-keyboard-response,212,462234,learnblock1,592.8999998569489,img/planet1_right.png,1,Community 2,NA,TRUE,j,j,NA,NA,NA,1,6,"12,7,13,2,8,15,9,10,1,6,14,4,3,5,11"
14985,commdev-image-keyboard-response,213,463499,learnblock1,578.6000001430511,img/planet15_right.png,15,Community 2,NA,TRUE,j,j,NA,NA,NA,1,6,"12,7,13,2,8,15,9,10,1,6,14,4,3,5,11"
14985,commdev-image-keyboard-response,214,464752,learnblock1,578,img/planet1_left.png,1,Community 2,NA,TRUE,f,f,NA,NA,NA,1,6,"12,7,13,2,8,15,9,10,1,6,14,4,3,5,11"
14985,commdev-image-keyboard-response,215,466012,learnblock1,706.5,img/planet9_right.png,9,Community 2,NA,TRUE,j,j,NA,NA,NA,1,6,"12,7,13,2,8,15,9,10,1,6,14,4,3,5,11"
14985,commdev-image-keyboard-response,216,467264,learnblock1,517.9000000953674,img/planet10_left.png,10,Community 2,NA,TRUE,f,f,NA,NA,NA,1,6,"12,7,13,2,8,15,9,10,1,6,14,4,3,5,11"
14985,commdev-image-keyboard-response,217,468523,learnblock1,1038.8999998569489,img/planet6_right.png,6,Community 2,NA,TRUE,j,j,NA,NA,NA,1,6,"12,7,13,2,8,15,9,10,1,6,14,4,3,5,11"
14985,commdev-image-keyboard-response,218,469780,learnblock1,878.4000000953674,img/planet15_right.png,15,Community 2,NA,TRUE,j,j,NA,NA,NA,1,6,"12,7,13,2,8,15,9,10,1,6,14,4,3,5,11"
14985,commdev-image-keyboard-response,219,471033,learnblock1,591.5,img/planet6_right.png,6,Community 2,NA,TRUE,j,j,NA,NA,NA,1,6,"12,7,13,2,8,15,9,10,1,6,14,4,3,5,11"
14985,commdev-image-keyboard-response,220,472298,learnblock1,598.3999998569489,img/planet1_right.png,1,Community 2,NA,TRUE,j,j,NA,NA,NA,1,6,"12,7,13,2,8,15,9,10,1,6,14,4,3,5,11"
14985,commdev-image-keyboard-response,221,473552,learnblock1,586.9000000953674,img/planet10_right.png,10,Community 2,NA,TRUE,j,j,NA,NA,NA,1,6,"12,7,13,2,8,15,9,10,1,6,14,4,3,5,11"
14985,commdev-image-keyboard-response,222,474809,learnblock1,502,img/planet9_right.png,9,Community 2,NA,TRUE,j,j,NA,NA,NA,1,6,"12,7,13,2,8,15,9,10,1,6,14,4,3,5,11"
14985,commdev-image-keyboard-response,223,476066,learnblock1,513.8999998569489,img/planet6_left.png,6,Community 2,NA,TRUE,f,f,NA,NA,NA,1,6,"12,7,13,2,8,15,9,10,1,6,14,4,3,5,11"
14985,commdev-image-keyboard-response,224,477327,learnblock1,602.7999999523163,img/planet10_left.png,10,Community 2,NA,TRUE,f,f,NA,NA,NA,1,6,"12,7,13,2,8,15,9,10,1,6,14,4,3,5,11"
14985,commdev-image-keyboard-response,225,478594,learnblock1,617.2000000476837,img/planet1_right.png,1,Community 2,NA,TRUE,j,j,NA,NA,NA,1,6,"12,7,13,2,8,15,9,10,1,6,14,4,3,5,11"
14985,commdev-image-keyboard-response,226,479847,learnblock1,685.5,img/planet10_left.png,10,Community 2,NA,TRUE,f,f,NA,NA,NA,1,6,"12,7,13,2,8,15,9,10,1,6,14,4,3,5,11"
14985,commdev-image-keyboard-response,227,481102,learnblock1,650.4000000953674,img/planet4_right.png,4,Community 3,NA,TRUE,j,j,NA,NA,NA,1,6,"12,7,13,2,8,15,9,10,1,6,14,4,3,5,11"
14985,commdev-image-keyboard-response,228,482362,learnblock1,799.2000000476837,img/planet5_right.png,5,Community 3,NA,TRUE,j,j,NA,NA,NA,1,6,"12,7,13,2,8,15,9,10,1,6,14,4,3,5,11"
14985,commdev-image-keyboard-response,229,483620,learnblock1,745.1000001430511,img/planet14_right.png,14,Community 3,NA,TRUE,j,j,NA,NA,NA,1,6,"12,7,13,2,8,15,9,10,1,6,14,4,3,5,11"
14985,commdev-image-keyboard-response,230,484876,learnblock1,679.5999999046326,img/planet5_left.png,5,Community 3,NA,TRUE,f,f,NA,NA,NA,1,6,"12,7,13,2,8,15,9,10,1,6,14,4,3,5,11"
14985,commdev-image-keyboard-response,231,486132,learnblock1,735.7999999523163,img/planet4_left.png,4,Community 3,NA,TRUE,f,f,NA,NA,NA,1,6,"12,7,13,2,8,15,9,10,1,6,14,4,3,5,11"
14985,commdev-image-keyboard-response,232,487394,learnblock1,685.9000000953674,img/planet11_right.png,11,Community 3,NA,TRUE,j,j,NA,NA,NA,1,6,"12,7,13,2,8,15,9,10,1,6,14,4,3,5,11"
14985,commdev-image-keyboard-response,233,488661,learnblock1,851.7999999523163,img/planet5_right.png,5,Community 3,NA,TRUE,j,j,NA,NA,NA,1,6,"12,7,13,2,8,15,9,10,1,6,14,4,3,5,11"
14985,commdev-image-keyboard-response,234,489920,learnblock1,772.6999998092651,img/planet3_left.png,3,Community 3,NA,TRUE,f,f,NA,NA,NA,1,6,"12,7,13,2,8,15,9,10,1,6,14,4,3,5,11"
14985,commdev-image-keyboard-response,235,491176,learnblock1,733.6000001430511,img/planet14_right.png,14,Community 3,NA,TRUE,j,j,NA,NA,NA,1,6,"12,7,13,2,8,15,9,10,1,6,14,4,3,5,11"
14985,commdev-image-keyboard-response,236,492429,learnblock1,619.7000000476837,img/planet3_left.png,3,Community 3,NA,TRUE,f,f,NA,NA,NA,1,6,"12,7,13,2,8,15,9,10,1,6,14,4,3,5,11"
14985,commdev-image-keyboard-response,237,493688,learnblock1,848.8999998569489,img/planet4_left.png,4,Community 3,NA,TRUE,f,f,NA,NA,NA,1,6,"12,7,13,2,8,15,9,10,1,6,14,4,3,5,11"
14985,commdev-image-keyboard-response,238,494945,learnblock1,725.6000001430511,img/planet11_right.png,11,Community 3,NA,TRUE,j,j,NA,NA,NA,1,6,"12,7,13,2,8,15,9,10,1,6,14,4,3,5,11"
14985,commdev-image-keyboard-response,239,496205,learnblock1,732.9000000953674,img/planet14_left.png,14,Community 3,NA,TRUE,f,f,NA,NA,NA,1,6,"12,7,13,2,8,15,9,10,1,6,14,4,3,5,11"
14985,commdev-image-keyboard-response,240,497465,learnblock1,674.1000001430511,img/planet11_left.png,11,Community 3,NA,TRUE,f,f,NA,NA,NA,1,6,"12,7,13,2,8,15,9,10,1,6,14,4,3,5,11"
14985,commdev-image-keyboard-response,241,498723,learnblock1,763.7000000476837,img/planet4_right.png,4,Community 3,NA,FALSE,f,j,NA,NA,NA,1,6,"12,7,13,2,8,15,9,10,1,6,14,4,3,5,11"
14985,commdev-image-keyboard-response,242,499979,learnblock1,739.0999999046326,img/planet10_right.png,10,Community 2,NA,TRUE,j,j,NA,NA,NA,1,6,"12,7,13,2,8,15,9,10,1,6,14,4,3,5,11"
14985,commdev-image-keyboard-response,243,501246,learnblock1,581.7000000476837,img/planet1_left.png,1,Community 2,NA,TRUE,f,f,NA,NA,NA,1,6,"12,7,13,2,8,15,9,10,1,6,14,4,3,5,11"
14985,commdev-image-keyboard-response,244,502501,learnblock1,630.4000000953674,img/planet9_right.png,9,Community 2,NA,TRUE,j,j,NA,NA,NA,1,6,"12,7,13,2,8,15,9,10,1,6,14,4,3,5,11"
14985,commdev-image-keyboard-response,245,503764,learnblock1,663.0999999046326,img/planet10_right.png,10,Community 2,NA,TRUE,j,j,NA,NA,NA,1,6,"12,7,13,2,8,15,9,10,1,6,14,4,3,5,11"
14985,commdev-image-keyboard-response,246,505022,learnblock1,657.5,img/planet6_left.png,6,Community 2,NA,TRUE,f,f,NA,NA,NA,1,6,"12,7,13,2,8,15,9,10,1,6,14,4,3,5,11"
14985,commdev-image-keyboard-response,247,506279,learnblock1,612.9000000953674,img/planet10_left.png,10,Community 2,NA,TRUE,f,f,NA,NA,NA,1,6,"12,7,13,2,8,15,9,10,1,6,14,4,3,5,11"
14985,commdev-image-keyboard-response,248,507532,learnblock1,619.1999998092651,img/planet4_left.png,4,Community 3,NA,TRUE,f,f,NA,NA,NA,1,6,"12,7,13,2,8,15,9,10,1,6,14,4,3,5,11"
14985,commdev-image-keyboard-response,249,508795,learnblock1,614.7999999523163,img/planet10_right.png,10,Community 2,NA,TRUE,j,j,NA,NA,NA,1,6,"12,7,13,2,8,15,9,10,1,6,14,4,3,5,11"
14985,commdev-image-keyboard-response,250,510051,learnblock1,660,img/planet6_right.png,6,Community 2,NA,TRUE,j,j,NA,NA,NA,1,6,"12,7,13,2,8,15,9,10,1,6,14,4,3,5,11"
14985,commdev-image-keyboard-response,251,511309,learnblock1,598.0999999046326,img/planet10_left.png,10,Community 2,NA,TRUE,f,f,NA,NA,NA,1,6,"12,7,13,2,8,15,9,10,1,6,14,4,3,5,11"
14985,commdev-image-keyboard-response,252,512575,learnblock1,701.2999999523163,img/planet9_right.png,9,Community 2,NA,TRUE,j,j,NA,NA,NA,1,6,"12,7,13,2,8,15,9,10,1,6,14,4,3,5,11"
14985,commdev-image-keyboard-response,253,513831,learnblock1,714.7000000476837,img/planet6_right.png,6,Community 2,NA,TRUE,j,j,NA,NA,NA,1,6,"12,7,13,2,8,15,9,10,1,6,14,4,3,5,11"
14985,commdev-image-keyboard-response,254,515088,learnblock1,589.8999998569489,img/planet1_right.png,1,Community 2,NA,TRUE,j,j,NA,NA,NA,1,6,"12,7,13,2,8,15,9,10,1,6,14,4,3,5,11"
14985,commdev-image-keyboard-response,255,516353,learnblock1,551.9000000953674,img/planet9_right.png,9,Community 2,NA,TRUE,j,j,NA,NA,NA,1,6,"12,7,13,2,8,15,9,10,1,6,14,4,3,5,11"
14985,commdev-image-keyboard-response,256,517606,learnblock1,554.2999999523163,img/planet10_right.png,10,Community 2,NA,TRUE,j,j,NA,NA,NA,1,6,"12,7,13,2,8,15,9,10,1,6,14,4,3,5,11"
14985,commdev-image-keyboard-response,257,518866,learnblock1,574,img/planet1_right.png,1,Community 2,NA,TRUE,j,j,NA,NA,NA,1,6,"12,7,13,2,8,15,9,10,1,6,14,4,3,5,11"
14985,commdev-image-keyboard-response,258,520122,learnblock1,556.9000000953674,img/planet10_right.png,10,Community 2,NA,TRUE,j,j,NA,NA,NA,1,6,"12,7,13,2,8,15,9,10,1,6,14,4,3,5,11"
14985,commdev-image-keyboard-response,259,521388,learnblock1,546.3999998569489,img/planet1_right.png,1,Community 2,NA,TRUE,j,j,NA,NA,NA,1,6,"12,7,13,2,8,15,9,10,1,6,14,4,3,5,11"
14985,commdev-image-keyboard-response,260,522642,learnblock1,544.5,img/planet6_right.png,6,Community 2,NA,TRUE,j,j,NA,NA,NA,1,6,"12,7,13,2,8,15,9,10,1,6,14,4,3,5,11"
14985,commdev-image-keyboard-response,261,523900,learnblock1,651.8999998569489,img/planet15_left.png,15,Community 2,NA,TRUE,f,f,NA,NA,NA,1,6,"12,7,13,2,8,15,9,10,1,6,14,4,3,5,11"
14985,commdev-image-keyboard-response,262,525160,learnblock1,570.5999999046326,img/planet2_left.png,2,Community 1,NA,TRUE,f,f,NA,NA,NA,1,6,"12,7,13,2,8,15,9,10,1,6,14,4,3,5,11"
14985,commdev-image-keyboard-response,263,526416,learnblock1,571.2000000476837,img/planet15_left.png,15,Community 2,NA,TRUE,f,f,NA,NA,NA,1,6,"12,7,13,2,8,15,9,10,1,6,14,4,3,5,11"
14985,commdev-image-keyboard-response,264,527679,learnblock1,645.5,img/planet6_left.png,6,Community 2,NA,TRUE,f,f,NA,NA,NA,1,6,"12,7,13,2,8,15,9,10,1,6,14,4,3,5,11"
14985,commdev-image-keyboard-response,265,528944,learnblock1,592.0999999046326,img/planet15_left.png,15,Community 2,NA,TRUE,f,f,NA,NA,NA,1,6,"12,7,13,2,8,15,9,10,1,6,14,4,3,5,11"
14985,commdev-image-keyboard-response,266,530202,learnblock1,556.1000001430511,img/planet9_left.png,9,Community 2,NA,TRUE,f,f,NA,NA,NA,1,6,"12,7,13,2,8,15,9,10,1,6,14,4,3,5,11"
14985,commdev-image-keyboard-response,267,531471,learnblock1,526.5,img/planet15_left.png,15,Community 2,NA,TRUE,f,f,NA,NA,NA,1,6,"12,7,13,2,8,15,9,10,1,6,14,4,3,5,11"
14985,commdev-image-keyboard-response,268,532725,learnblock1,590.5999999046326,img/planet6_right.png,6,Community 2,NA,TRUE,j,j,NA,NA,NA,1,6,"12,7,13,2,8,15,9,10,1,6,14,4,3,5,11"
14985,commdev-image-keyboard-response,269,533986,learnblock1,551.6000001430511,img/planet10_left.png,10,Community 2,NA,TRUE,f,f,NA,NA,NA,1,6,"12,7,13,2,8,15,9,10,1,6,14,4,3,5,11"
14985,commdev-image-keyboard-response,270,535238,learnblock1,464,img/planet9_right.png,9,Community 2,NA,TRUE,j,j,NA,NA,NA,1,6,"12,7,13,2,8,15,9,10,1,6,14,4,3,5,11"
14985,commdev-image-keyboard-response,271,536492,learnblock1,543.5,img/planet1_left.png,1,Community 2,NA,TRUE,f,f,NA,NA,NA,1,6,"12,7,13,2,8,15,9,10,1,6,14,4,3,5,11"
14985,commdev-image-keyboard-response,272,537750,learnblock1,696.7999999523163,img/planet15_right.png,15,Community 2,NA,TRUE,j,j,NA,NA,NA,1,6,"12,7,13,2,8,15,9,10,1,6,14,4,3,5,11"
14985,commdev-image-keyboard-response,273,539006,learnblock1,536.4000000953674,img/planet1_right.png,1,Community 2,NA,TRUE,j,j,NA,NA,NA,1,6,"12,7,13,2,8,15,9,10,1,6,14,4,3,5,11"
14985,commdev-image-keyboard-response,274,540265,learnblock1,652.0999999046326,img/planet9_right.png,9,Community 2,NA,TRUE,j,j,NA,NA,NA,1,6,"12,7,13,2,8,15,9,10,1,6,14,4,3,5,11"
14985,commdev-image-keyboard-response,275,541530,learnblock1,567.1000001430511,img/planet6_right.png,6,Community 2,NA,TRUE,j,j,NA,NA,NA,1,6,"12,7,13,2,8,15,9,10,1,6,14,4,3,5,11"
14985,commdev-image-keyboard-response,276,542792,learnblock1,615,img/planet15_left.png,15,Community 2,NA,TRUE,f,f,NA,NA,NA,1,6,"12,7,13,2,8,15,9,10,1,6,14,4,3,5,11"
14985,commdev-image-keyboard-response,277,544053,learnblock1,604.1000001430511,img/planet1_left.png,1,Community 2,NA,TRUE,f,f,NA,NA,NA,1,6,"12,7,13,2,8,15,9,10,1,6,14,4,3,5,11"
14985,commdev-image-keyboard-response,278,545310,learnblock1,500.90000009536743,img/planet10_left.png,10,Community 2,NA,TRUE,f,f,NA,NA,NA,1,6,"12,7,13,2,8,15,9,10,1,6,14,4,3,5,11"
14985,commdev-image-keyboard-response,279,546574,learnblock1,641.5,img/planet9_left.png,9,Community 2,NA,TRUE,f,f,NA,NA,NA,1,6,"12,7,13,2,8,15,9,10,1,6,14,4,3,5,11"
14985,commdev-image-keyboard-response,280,547841,learnblock1,544.7999999523163,img/planet10_left.png,10,Community 2,NA,TRUE,f,f,NA,NA,NA,1,6,"12,7,13,2,8,15,9,10,1,6,14,4,3,5,11"
14985,commdev-image-keyboard-response,281,549099,learnblock1,541.2000000476837,img/planet1_left.png,1,Community 2,NA,TRUE,f,f,NA,NA,NA,1,6,"12,7,13,2,8,15,9,10,1,6,14,4,3,5,11"
14985,commdev-image-keyboard-response,282,550356,learnblock1,551.5999999046326,img/planet9_left.png,9,Community 2,NA,TRUE,f,f,NA,NA,NA,1,6,"12,7,13,2,8,15,9,10,1,6,14,4,3,5,11"
14985,commdev-image-keyboard-response,283,551612,learnblock1,504.2999999523163,img/planet10_right.png,10,Community 2,NA,TRUE,j,j,NA,NA,NA,1,6,"12,7,13,2,8,15,9,10,1,6,14,4,3,5,11"
14985,commdev-image-keyboard-response,284,552873,learnblock1,568.2000000476837,img/planet4_right.png,4,Community 3,NA,TRUE,j,j,NA,NA,NA,1,6,"12,7,13,2,8,15,9,10,1,6,14,4,3,5,11"
14985,commdev-image-keyboard-response,285,554126,learnblock1,633.2000000476837,img/planet3_left.png,3,Community 3,NA,TRUE,f,f,NA,NA,NA,1,6,"12,7,13,2,8,15,9,10,1,6,14,4,3,5,11"
14985,commdev-image-keyboard-response,286,555383,learnblock1,650,img/planet5_right.png,5,Community 3,NA,TRUE,j,j,NA,NA,NA,1,6,"12,7,13,2,8,15,9,10,1,6,14,4,3,5,11"
14985,commdev-image-keyboard-response,287,556636,learnblock1,656.5,img/planet3_right.png,3,Community 3,NA,TRUE,j,j,NA,NA,NA,1,6,"12,7,13,2,8,15,9,10,1,6,14,4,3,5,11"
14985,commdev-image-keyboard-response,288,557888,learnblock1,954.4000000953674,img/planet4_left.png,4,Community 3,NA,TRUE,f,f,NA,NA,NA,1,6,"12,7,13,2,8,15,9,10,1,6,14,4,3,5,11"
14985,commdev-image-keyboard-response,289,559146,learnblock1,657.7999999523163,img/planet5_right.png,5,Community 3,NA,TRUE,j,j,NA,NA,NA,1,6,"12,7,13,2,8,15,9,10,1,6,14,4,3,5,11"
14985,commdev-image-keyboard-response,290,560402,learnblock1,627.6000001430511,img/planet11_right.png,11,Community 3,NA,TRUE,j,j,NA,NA,NA,1,6,"12,7,13,2,8,15,9,10,1,6,14,4,3,5,11"
14985,commdev-image-keyboard-response,291,561663,learnblock1,890.7999999523163,img/planet4_right.png,4,Community 3,NA,TRUE,j,j,NA,NA,NA,1,6,"12,7,13,2,8,15,9,10,1,6,14,4,3,5,11"
14985,commdev-image-keyboard-response,292,562919,learnblock1,581.6000001430511,img/planet3_left.png,3,Community 3,NA,TRUE,f,f,NA,NA,NA,1,6,"12,7,13,2,8,15,9,10,1,6,14,4,3,5,11"
14985,commdev-image-keyboard-response,293,564172,learnblock1,495.59999990463257,img/planet11_right.png,11,Community 3,NA,TRUE,j,j,NA,NA,NA,1,6,"12,7,13,2,8,15,9,10,1,6,14,4,3,5,11"
14985,commdev-image-keyboard-response,294,565429,learnblock1,601.7000000476837,img/planet5_right.png,5,Community 3,NA,TRUE,j,j,NA,NA,NA,1,6,"12,7,13,2,8,15,9,10,1,6,14,4,3,5,11"
14985,commdev-image-keyboard-response,295,566685,learnblock1,573.2999999523163,img/planet11_left.png,11,Community 3,NA,TRUE,f,f,NA,NA,NA,1,6,"12,7,13,2,8,15,9,10,1,6,14,4,3,5,11"
14985,commdev-image-keyboard-response,296,567944,learnblock1,592.8000001907349,img/planet4_left.png,4,Community 3,NA,TRUE,f,f,NA,NA,NA,1,6,"12,7,13,2,8,15,9,10,1,6,14,4,3,5,11"
14985,commdev-image-keyboard-response,297,569204,learnblock1,649.5,img/planet11_right.png,11,Community 3,NA,TRUE,j,j,NA,NA,NA,1,6,"12,7,13,2,8,15,9,10,1,6,14,4,3,5,11"
14985,commdev-image-keyboard-response,298,570464,learnblock1,647.7000000476837,img/planet14_left.png,14,Community 3,NA,TRUE,f,f,NA,NA,NA,1,6,"12,7,13,2,8,15,9,10,1,6,14,4,3,5,11"
14985,commdev-image-keyboard-response,299,571731,learnblock1,624.7000000476837,img/planet5_left.png,5,Community 3,NA,TRUE,f,f,NA,NA,NA,1,6,"12,7,13,2,8,15,9,10,1,6,14,4,3,5,11"
14985,commdev-image-keyboard-response,300,572998,learnblock1,524.7999999523163,img/planet4_left.png,4,Community 3,NA,TRUE,f,f,NA,NA,NA,1,6,"12,7,13,2,8,15,9,10,1,6,14,4,3,5,11"
14985,commdev-image-keyboard-response,301,574266,learnblock1,482.60000014305115,img/planet10_right.png,10,Community 2,NA,TRUE,j,j,NA,NA,NA,1,6,"12,7,13,2,8,15,9,10,1,6,14,4,3,5,11"
14985,commdev-image-keyboard-response,302,575518,learnblock1,576.9000000953674,img/planet9_right.png,9,Community 2,NA,TRUE,j,j,NA,NA,NA,1,6,"12,7,13,2,8,15,9,10,1,6,14,4,3,5,11"
14985,commdev-image-keyboard-response,303,576774,learnblock1,606.4000000953674,img/planet1_right.png,1,Community 2,NA,TRUE,j,j,NA,NA,NA,1,6,"12,7,13,2,8,15,9,10,1,6,14,4,3,5,11"
14985,commdev-image-keyboard-response,304,578042,learnblock1,532,img/planet9_right.png,9,Community 2,NA,TRUE,j,j,NA,NA,NA,1,6,"12,7,13,2,8,15,9,10,1,6,14,4,3,5,11"
14985,commdev-image-keyboard-response,305,579301,learnblock1,550.6000001430511,img/planet6_right.png,6,Community 2,NA,TRUE,j,j,NA,NA,NA,1,6,"12,7,13,2,8,15,9,10,1,6,14,4,3,5,11"
14985,commdev-image-keyboard-response,306,580569,learnblock1,529.1999998092651,img/planet15_left.png,15,Community 2,NA,TRUE,f,f,NA,NA,NA,1,6,"12,7,13,2,8,15,9,10,1,6,14,4,3,5,11"
14985,commdev-image-keyboard-response,307,581828,learnblock1,515.0999999046326,img/planet1_left.png,1,Community 2,NA,TRUE,f,f,NA,NA,NA,1,6,"12,7,13,2,8,15,9,10,1,6,14,4,3,5,11"
14985,commdev-image-keyboard-response,308,583090,learnblock1,692.7999999523163,img/planet15_right.png,15,Community 2,NA,TRUE,j,j,NA,NA,NA,1,6,"12,7,13,2,8,15,9,10,1,6,14,4,3,5,11"
14985,commdev-image-keyboard-response,309,584343,learnblock1,626.9000000953674,img/planet1_left.png,1,Community 2,NA,TRUE,f,f,NA,NA,NA,1,6,"12,7,13,2,8,15,9,10,1,6,14,4,3,5,11"
14985,commdev-image-keyboard-response,310,585595,learnblock1,635.6000001430511,img/planet9_right.png,9,Community 2,NA,TRUE,j,j,NA,NA,NA,1,6,"12,7,13,2,8,15,9,10,1,6,14,4,3,5,11"
14985,commdev-image-keyboard-response,311,586848,learnblock1,595.2999999523163,img/planet10_right.png,10,Community 2,NA,TRUE,j,j,NA,NA,NA,1,6,"12,7,13,2,8,15,9,10,1,6,14,4,3,5,11"
14985,commdev-image-keyboard-response,312,588108,learnblock1,685.9000000953674,img/planet6_left.png,6,Community 2,NA,TRUE,f,f,NA,NA,NA,1,6,"12,7,13,2,8,15,9,10,1,6,14,4,3,5,11"
14985,commdev-image-keyboard-response,313,589364,learnblock1,600.5,img/planet9_left.png,9,Community 2,NA,TRUE,f,f,NA,NA,NA,1,6,"12,7,13,2,8,15,9,10,1,6,14,4,3,5,11"
14985,commdev-image-keyboard-response,314,590624,learnblock1,571.5,img/planet6_right.png,6,Community 2,NA,TRUE,j,j,NA,NA,NA,1,6,"12,7,13,2,8,15,9,10,1,6,14,4,3,5,11"
14985,commdev-image-keyboard-response,315,591880,learnblock1,529.2999999523163,img/planet9_right.png,9,Community 2,NA,TRUE,j,j,NA,NA,NA,1,6,"12,7,13,2,8,15,9,10,1,6,14,4,3,5,11"
14985,commdev-image-keyboard-response,316,593133,learnblock1,513.0999999046326,img/planet6_right.png,6,Community 2,NA,TRUE,j,j,NA,NA,NA,1,6,"12,7,13,2,8,15,9,10,1,6,14,4,3,5,11"
14985,commdev-image-keyboard-response,317,594392,learnblock1,501.39999985694885,img/planet15_left.png,15,Community 2,NA,TRUE,f,f,NA,NA,NA,1,6,"12,7,13,2,8,15,9,10,1,6,14,4,3,5,11"
14985,commdev-image-keyboard-response,318,595659,learnblock1,561.7000000476837,img/planet2_right.png,2,Community 1,NA,TRUE,j,j,NA,NA,NA,1,6,"12,7,13,2,8,15,9,10,1,6,14,4,3,5,11"
14985,commdev-image-keyboard-response,319,596918,learnblock1,614.7999999523163,img/planet12_right.png,12,Community 1,NA,TRUE,j,j,NA,NA,NA,1,6,"12,7,13,2,8,15,9,10,1,6,14,4,3,5,11"
14985,commdev-image-keyboard-response,320,598172,learnblock1,580.8999998569489,img/planet8_left.png,8,Community 1,NA,TRUE,f,f,NA,NA,NA,1,6,"12,7,13,2,8,15,9,10,1,6,14,4,3,5,11"
14985,commdev-image-keyboard-response,321,599429,learnblock1,580.5,img/planet13_right.png,13,Community 1,NA,TRUE,j,j,NA,NA,NA,1,6,"12,7,13,2,8,15,9,10,1,6,14,4,3,5,11"
14985,commdev-image-keyboard-response,322,600694,learnblock1,555.9000000953674,img/planet2_left.png,2,Community 1,NA,TRUE,f,f,NA,NA,NA,1,6,"12,7,13,2,8,15,9,10,1,6,14,4,3,5,11"
14985,commdev-image-keyboard-response,323,601956,learnblock1,959,img/planet13_left.png,13,Community 1,NA,TRUE,f,f,NA,NA,NA,1,6,"12,7,13,2,8,15,9,10,1,6,14,4,3,5,11"
14985,commdev-image-keyboard-response,324,603215,learnblock1,664.3000001907349,img/planet8_right.png,8,Community 1,NA,TRUE,j,j,NA,NA,NA,1,6,"12,7,13,2,8,15,9,10,1,6,14,4,3,5,11"
14985,commdev-image-keyboard-response,325,604473,learnblock1,611.5999999046326,img/planet13_right.png,13,Community 1,NA,TRUE,j,j,NA,NA,NA,1,6,"12,7,13,2,8,15,9,10,1,6,14,4,3,5,11"
14985,commdev-image-keyboard-response,326,605740,learnblock1,628.6000001430511,img/planet2_right.png,2,Community 1,NA,TRUE,j,j,NA,NA,NA,1,6,"12,7,13,2,8,15,9,10,1,6,14,4,3,5,11"
14985,commdev-image-keyboard-response,327,607000,learnblock1,550.4000000953674,img/planet7_left.png,7,Community 1,NA,TRUE,f,f,NA,NA,NA,1,6,"12,7,13,2,8,15,9,10,1,6,14,4,3,5,11"
14985,commdev-image-keyboard-response,328,608258,learnblock1,582.5,img/planet12_left.png,12,Community 1,NA,TRUE,f,f,NA,NA,NA,1,6,"12,7,13,2,8,15,9,10,1,6,14,4,3,5,11"
14985,commdev-image-keyboard-response,329,609523,learnblock1,627.2000000476837,img/planet8_right.png,8,Community 1,NA,TRUE,j,j,NA,NA,NA,1,6,"12,7,13,2,8,15,9,10,1,6,14,4,3,5,11"
14985,commdev-image-keyboard-response,330,610780,learnblock1,621.5,img/planet7_left.png,7,Community 1,NA,TRUE,f,f,NA,NA,NA,1,6,"12,7,13,2,8,15,9,10,1,6,14,4,3,5,11"
14985,commdev-image-keyboard-response,331,612038,learnblock1,771,img/planet13_left.png,13,Community 1,NA,TRUE,f,f,NA,NA,NA,1,6,"12,7,13,2,8,15,9,10,1,6,14,4,3,5,11"
14985,commdev-image-keyboard-response,332,613293,learnblock1,496.2999999523163,img/planet8_right.png,8,Community 1,NA,TRUE,j,j,NA,NA,NA,1,6,"12,7,13,2,8,15,9,10,1,6,14,4,3,5,11"
14985,commdev-image-keyboard-response,333,614550,learnblock1,613.1999998092651,img/planet13_left.png,13,Community 1,NA,TRUE,f,f,NA,NA,NA,1,6,"12,7,13,2,8,15,9,10,1,6,14,4,3,5,11"
14985,commdev-image-keyboard-response,334,615803,learnblock1,537.2000000476837,img/planet12_left.png,12,Community 1,NA,TRUE,f,f,NA,NA,NA,1,6,"12,7,13,2,8,15,9,10,1,6,14,4,3,5,11"
14985,commdev-image-keyboard-response,335,617058,learnblock1,497.5,img/planet8_right.png,8,Community 1,NA,TRUE,j,j,NA,NA,NA,1,6,"12,7,13,2,8,15,9,10,1,6,14,4,3,5,11"
14985,commdev-image-keyboard-response,336,618313,learnblock1,468.7999999523163,img/planet12_left.png,12,Community 1,NA,FALSE,j,f,NA,NA,NA,1,6,"12,7,13,2,8,15,9,10,1,6,14,4,3,5,11"
14985,commdev-image-keyboard-response,337,619581,learnblock1,675.7000000476837,img/planet7_right.png,7,Community 1,NA,TRUE,j,j,NA,NA,NA,1,6,"12,7,13,2,8,15,9,10,1,6,14,4,3,5,11"
14985,commdev-image-keyboard-response,338,620840,learnblock1,897.5999999046326,img/planet12_right.png,12,Community 1,NA,TRUE,j,j,NA,NA,NA,1,6,"12,7,13,2,8,15,9,10,1,6,14,4,3,5,11"
14985,commdev-image-keyboard-response,339,622101,learnblock1,712.7999999523163,img/planet2_left.png,2,Community 1,NA,TRUE,f,f,NA,NA,NA,1,6,"12,7,13,2,8,15,9,10,1,6,14,4,3,5,11"
14985,commdev-image-keyboard-response,340,623361,learnblock1,580.7000000476837,img/planet12_left.png,12,Community 1,NA,TRUE,f,f,NA,NA,NA,1,6,"12,7,13,2,8,15,9,10,1,6,14,4,3,5,11"
14985,commdev-image-keyboard-response,341,624620,learnblock1,668.0999999046326,img/planet8_left.png,8,Community 1,NA,TRUE,f,f,NA,NA,NA,1,6,"12,7,13,2,8,15,9,10,1,6,14,4,3,5,11"
14985,commdev-image-keyboard-response,342,625887,learnblock1,701.2999999523163,img/planet14_left.png,14,Community 3,NA,TRUE,f,f,NA,NA,NA,1,6,"12,7,13,2,8,15,9,10,1,6,14,4,3,5,11"
14985,commdev-image-keyboard-response,343,627146,learnblock1,667.3999998569489,img/planet3_left.png,3,Community 3,NA,TRUE,f,f,NA,NA,NA,1,6,"12,7,13,2,8,15,9,10,1,6,14,4,3,5,11"
14985,commdev-image-keyboard-response,344,628403,learnblock1,598,img/planet11_right.png,11,Community 3,NA,TRUE,j,j,NA,NA,NA,1,6,"12,7,13,2,8,15,9,10,1,6,14,4,3,5,11"
14985,commdev-image-keyboard-response,345,629660,learnblock1,645.1000001430511,img/planet5_left.png,5,Community 3,NA,TRUE,f,f,NA,NA,NA,1,6,"12,7,13,2,8,15,9,10,1,6,14,4,3,5,11"
14985,commdev-image-keyboard-response,346,630917,learnblock1,658.2000000476837,img/planet3_right.png,3,Community 3,NA,TRUE,j,j,NA,NA,NA,1,6,"12,7,13,2,8,15,9,10,1,6,14,4,3,5,11"
14985,commdev-image-keyboard-response,347,632173,learnblock1,625.1000001430511,img/planet14_left.png,14,Community 3,NA,TRUE,f,f,NA,NA,NA,1,6,"12,7,13,2,8,15,9,10,1,6,14,4,3,5,11"
14985,commdev-image-keyboard-response,351,697969,learnblock2,861.0999999046326,img/planet2_right.png,2,Community 1,NA,TRUE,j,j,NA,NA,NA,1,6,"12,7,13,2,8,15,9,10,1,6,14,4,3,5,11"
14985,commdev-image-keyboard-response,352,699232,learnblock2,684.1000001430511,img/planet12_right.png,12,Community 1,NA,TRUE,j,j,NA,NA,NA,1,6,"12,7,13,2,8,15,9,10,1,6,14,4,3,5,11"
14985,commdev-image-keyboard-response,353,700499,learnblock2,535,img/planet13_right.png,13,Community 1,NA,TRUE,j,j,NA,NA,NA,1,6,"12,7,13,2,8,15,9,10,1,6,14,4,3,5,11"
14985,commdev-image-keyboard-response,354,701754,learnblock2,479.7000000476837,img/planet8_right.png,8,Community 1,NA,TRUE,j,j,NA,NA,NA,1,6,"12,7,13,2,8,15,9,10,1,6,14,4,3,5,11"
14985,commdev-image-keyboard-response,355,703007,learnblock2,518.9000000953674,img/planet14_right.png,14,Community 3,NA,TRUE,j,j,NA,NA,NA,1,6,"12,7,13,2,8,15,9,10,1,6,14,4,3,5,11"
14985,commdev-image-keyboard-response,356,704266,learnblock2,502.59999990463257,img/planet3_right.png,3,Community 3,NA,TRUE,j,j,NA,NA,NA,1,6,"12,7,13,2,8,15,9,10,1,6,14,4,3,5,11"
14985,commdev-image-keyboard-response,357,705519,learnblock2,462.39999985694885,img/planet5_right.png,5,Community 3,NA,TRUE,j,j,NA,NA,NA,1,6,"12,7,13,2,8,15,9,10,1,6,14,4,3,5,11"
14985,commdev-image-keyboard-response,358,706770,learnblock2,517.2000000476837,img/planet11_right.png,11,Community 3,NA,TRUE,j,j,NA,NA,NA,1,6,"12,7,13,2,8,15,9,10,1,6,14,4,3,5,11"
14985,commdev-image-keyboard-response,359,708023,learnblock2,553.6000001430511,img/planet3_right.png,3,Community 3,NA,TRUE,j,j,NA,NA,NA,1,6,"12,7,13,2,8,15,9,10,1,6,14,4,3,5,11"
14985,commdev-image-keyboard-response,360,709289,learnblock2,652.4000000953674,img/planet14_left.png,14,Community 3,NA,TRUE,f,f,NA,NA,NA,1,6,"12,7,13,2,8,15,9,10,1,6,14,4,3,5,11"
14985,commdev-image-keyboard-response,361,710544,learnblock2,642.5,img/planet5_left.png,5,Community 3,NA,TRUE,f,f,NA,NA,NA,1,6,"12,7,13,2,8,15,9,10,1,6,14,4,3,5,11"
14985,commdev-image-keyboard-response,362,711811,learnblock2,589.5,img/planet3_right.png,3,Community 3,NA,TRUE,j,j,NA,NA,NA,1,6,"12,7,13,2,8,15,9,10,1,6,14,4,3,5,11"
14985,commdev-image-keyboard-response,363,713067,learnblock2,614.8000001907349,img/planet14_left.png,14,Community 3,NA,TRUE,f,f,NA,NA,NA,1,6,"12,7,13,2,8,15,9,10,1,6,14,4,3,5,11"
14985,commdev-image-keyboard-response,364,714328,learnblock2,668.9000000953674,img/planet5_right.png,5,Community 3,NA,FALSE,f,j,NA,NA,NA,1,6,"12,7,13,2,8,15,9,10,1,6,14,4,3,5,11"
14985,commdev-image-keyboard-response,365,715585,learnblock2,1096.3000001907349,img/planet3_right.png,3,Community 3,NA,TRUE,j,j,NA,NA,NA,1,6,"12,7,13,2,8,15,9,10,1,6,14,4,3,5,11"
14985,commdev-image-keyboard-response,366,716853,learnblock2,653.5,img/planet5_right.png,5,Community 3,NA,TRUE,j,j,NA,NA,NA,1,6,"12,7,13,2,8,15,9,10,1,6,14,4,3,5,11"
14985,commdev-image-keyboard-response,367,718113,learnblock2,567.0999999046326,img/planet4_right.png,4,Community 3,NA,TRUE,j,j,NA,NA,NA,1,6,"12,7,13,2,8,15,9,10,1,6,14,4,3,5,11"
14985,commdev-image-keyboard-response,368,719376,learnblock2,555.5,img/planet10_left.png,10,Community 2,NA,TRUE,f,f,NA,NA,NA,1,6,"12,7,13,2,8,15,9,10,1,6,14,4,3,5,11"
14985,commdev-image-keyboard-response,369,720631,learnblock2,691.5,img/planet6_left.png,6,Community 2,NA,TRUE,f,f,NA,NA,NA,1,6,"12,7,13,2,8,15,9,10,1,6,14,4,3,5,11"
14985,commdev-image-keyboard-response,370,721891,learnblock2,596,img/planet10_right.png,10,Community 2,NA,TRUE,j,j,NA,NA,NA,1,6,"12,7,13,2,8,15,9,10,1,6,14,4,3,5,11"
14985,commdev-image-keyboard-response,371,723146,learnblock2,590.9000000953674,img/planet9_left.png,9,Community 2,NA,TRUE,f,f,NA,NA,NA,1,6,"12,7,13,2,8,15,9,10,1,6,14,4,3,5,11"
14985,commdev-image-keyboard-response,372,724405,learnblock2,584.9000000953674,img/planet15_left.png,15,Community 2,NA,TRUE,f,f,NA,NA,NA,1,6,"12,7,13,2,8,15,9,10,1,6,14,4,3,5,11"
14985,commdev-image-keyboard-response,373,725669,learnblock2,574,img/planet9_left.png,9,Community 2,NA,TRUE,f,f,NA,NA,NA,1,6,"12,7,13,2,8,15,9,10,1,6,14,4,3,5,11"
14985,commdev-image-keyboard-response,374,726923,learnblock2,568.2000000476837,img/planet10_left.png,10,Community 2,NA,TRUE,f,f,NA,NA,NA,1,6,"12,7,13,2,8,15,9,10,1,6,14,4,3,5,11"
14985,commdev-image-keyboard-response,375,728177,learnblock2,553.2000000476837,img/planet4_left.png,4,Community 3,NA,TRUE,f,f,NA,NA,NA,1,6,"12,7,13,2,8,15,9,10,1,6,14,4,3,5,11"
14985,commdev-image-keyboard-response,376,729436,learnblock2,593.9000000953674,img/planet11_right.png,11,Community 3,NA,TRUE,j,j,NA,NA,NA,1,6,"12,7,13,2,8,15,9,10,1,6,14,4,3,5,11"
14985,commdev-image-keyboard-response,377,730692,learnblock2,581.2000000476837,img/planet4_right.png,4,Community 3,NA,TRUE,j,j,NA,NA,NA,1,6,"12,7,13,2,8,15,9,10,1,6,14,4,3,5,11"
14985,commdev-image-keyboard-response,378,731947,learnblock2,608.5,img/planet11_left.png,11,Community 3,NA,TRUE,f,f,NA,NA,NA,1,6,"12,7,13,2,8,15,9,10,1,6,14,4,3,5,11"
14985,commdev-image-keyboard-response,379,733203,learnblock2,574.4000000953674,img/planet5_left.png,5,Community 3,NA,TRUE,f,f,NA,NA,NA,1,6,"12,7,13,2,8,15,9,10,1,6,14,4,3,5,11"
14985,commdev-image-keyboard-response,380,734456,learnblock2,567.2000000476837,img/planet3_right.png,3,Community 3,NA,TRUE,j,j,NA,NA,NA,1,6,"12,7,13,2,8,15,9,10,1,6,14,4,3,5,11"
14985,commdev-image-keyboard-response,381,735715,learnblock2,592,img/planet11_right.png,11,Community 3,NA,TRUE,j,j,NA,NA,NA,1,6,"12,7,13,2,8,15,9,10,1,6,14,4,3,5,11"
14985,commdev-image-keyboard-response,382,736979,learnblock2,528.9000000953674,img/planet5_right.png,5,Community 3,NA,TRUE,j,j,NA,NA,NA,1,6,"12,7,13,2,8,15,9,10,1,6,14,4,3,5,11"
14985,commdev-image-keyboard-response,383,738245,learnblock2,516.1000001430511,img/planet11_right.png,11,Community 3,NA,TRUE,j,j,NA,NA,NA,1,6,"12,7,13,2,8,15,9,10,1,6,14,4,3,5,11"
14985,commdev-image-keyboard-response,384,739500,learnblock2,781.7000000476837,img/planet4_left.png,4,Community 3,NA,TRUE,f,f,NA,NA,NA,1,6,"12,7,13,2,8,15,9,10,1,6,14,4,3,5,11"
14985,commdev-image-keyboard-response,385,740753,learnblock2,507.2000000476837,img/planet5_right.png,5,Community 3,NA,TRUE,j,j,NA,NA,NA,1,6,"12,7,13,2,8,15,9,10,1,6,14,4,3,5,11"
14985,commdev-image-keyboard-response,386,742012,learnblock2,567.8999998569489,img/planet11_left.png,11,Community 3,NA,TRUE,f,f,NA,NA,NA,1,6,"12,7,13,2,8,15,9,10,1,6,14,4,3,5,11"
14985,commdev-image-keyboard-response,387,743273,learnblock2,622.7000000476837,img/planet14_right.png,14,Community 3,NA,TRUE,j,j,NA,NA,NA,1,6,"12,7,13,2,8,15,9,10,1,6,14,4,3,5,11"
14985,commdev-image-keyboard-response,388,744537,learnblock2,612.2000000476837,img/planet3_left.png,3,Community 3,NA,TRUE,f,f,NA,NA,NA,1,6,"12,7,13,2,8,15,9,10,1,6,14,4,3,5,11"
14985,commdev-image-keyboard-response,389,745805,learnblock2,581.4000000953674,img/planet4_left.png,4,Community 3,NA,TRUE,f,f,NA,NA,NA,1,6,"12,7,13,2,8,15,9,10,1,6,14,4,3,5,11"
14985,commdev-image-keyboard-response,390,747063,learnblock2,532.2000000476837,img/planet5_right.png,5,Community 3,NA,TRUE,j,j,NA,NA,NA,1,6,"12,7,13,2,8,15,9,10,1,6,14,4,3,5,11"
14985,commdev-image-keyboard-response,391,748319,learnblock2,938.6000001430511,img/planet14_right.png,14,Community 3,NA,TRUE,j,j,NA,NA,NA,1,6,"12,7,13,2,8,15,9,10,1,6,14,4,3,5,11"
14985,commdev-image-keyboard-response,392,749573,learnblock2,589.5999999046326,img/planet5_left.png,5,Community 3,NA,TRUE,f,f,NA,NA,NA,1,6,"12,7,13,2,8,15,9,10,1,6,14,4,3,5,11"
14985,commdev-image-keyboard-response,393,750838,learnblock2,541.4000000953674,img/planet11_left.png,11,Community 3,NA,TRUE,f,f,NA,NA,NA,1,6,"12,7,13,2,8,15,9,10,1,6,14,4,3,5,11"
14985,commdev-image-keyboard-response,394,752097,learnblock2,728.3000001907349,img/planet5_right.png,5,Community 3,NA,TRUE,j,j,NA,NA,NA,1,6,"12,7,13,2,8,15,9,10,1,6,14,4,3,5,11"
14985,commdev-image-keyboard-response,395,753353,learnblock2,912.7000000476837,img/planet14_right.png,14,Community 3,NA,TRUE,j,j,NA,NA,NA,1,6,"12,7,13,2,8,15,9,10,1,6,14,4,3,5,11"
14985,commdev-image-keyboard-response,396,754612,learnblock2,635.0999999046326,img/planet5_left.png,5,Community 3,NA,TRUE,f,f,NA,NA,NA,1,6,"12,7,13,2,8,15,9,10,1,6,14,4,3,5,11"
14985,commdev-image-keyboard-response,397,755868,learnblock2,550.5999999046326,img/planet3_left.png,3,Community 3,NA,TRUE,f,f,NA,NA,NA,1,6,"12,7,13,2,8,15,9,10,1,6,14,4,3,5,11"
14985,commdev-image-keyboard-response,398,757127,learnblock2,577.2000000476837,img/planet4_right.png,4,Community 3,NA,TRUE,j,j,NA,NA,NA,1,6,"12,7,13,2,8,15,9,10,1,6,14,4,3,5,11"
14985,commdev-image-keyboard-response,399,758381,learnblock2,632.2000000476837,img/planet10_left.png,10,Community 2,NA,TRUE,f,f,NA,NA,NA,1,6,"12,7,13,2,8,15,9,10,1,6,14,4,3,5,11"
14985,commdev-image-keyboard-response,400,759642,learnblock2,642,img/planet9_left.png,9,Community 2,NA,TRUE,f,f,NA,NA,NA,1,6,"12,7,13,2,8,15,9,10,1,6,14,4,3,5,11"
14985,commdev-image-keyboard-response,401,760912,learnblock2,578.7000000476837,img/planet15_right.png,15,Community 2,NA,TRUE,j,j,NA,NA,NA,1,6,"12,7,13,2,8,15,9,10,1,6,14,4,3,5,11"
14985,commdev-image-keyboard-response,402,762172,learnblock2,543,img/planet2_left.png,2,Community 1,NA,TRUE,f,f,NA,NA,NA,1,6,"12,7,13,2,8,15,9,10,1,6,14,4,3,5,11"
14985,commdev-image-keyboard-response,403,763438,learnblock2,627.4000000953674,img/planet13_right.png,13,Community 1,NA,TRUE,j,j,NA,NA,NA,1,6,"12,7,13,2,8,15,9,10,1,6,14,4,3,5,11"
14985,commdev-image-keyboard-response,404,764695,learnblock2,671.1999998092651,img/planet7_right.png,7,Community 1,NA,FALSE,f,j,NA,NA,NA,1,6,"12,7,13,2,8,15,9,10,1,6,14,4,3,5,11"
14985,commdev-image-keyboard-response,405,765950,learnblock2,729.5,img/planet12_right.png,12,Community 1,NA,TRUE,j,j,NA,NA,NA,1,6,"12,7,13,2,8,15,9,10,1,6,14,4,3,5,11"
14985,commdev-image-keyboard-response,406,767212,learnblock2,854.8999998569489,img/planet2_right.png,2,Community 1,NA,TRUE,j,j,NA,NA,NA,1,6,"12,7,13,2,8,15,9,10,1,6,14,4,3,5,11"
14985,commdev-image-keyboard-response,407,768470,learnblock2,566.7999999523163,img/planet7_left.png,7,Community 1,NA,TRUE,f,f,NA,NA,NA,1,6,"12,7,13,2,8,15,9,10,1,6,14,4,3,5,11"
14985,commdev-image-keyboard-response,408,769728,learnblock2,636.3999998569489,img/planet12_left.png,12,Community 1,NA,TRUE,f,f,NA,NA,NA,1,6,"12,7,13,2,8,15,9,10,1,6,14,4,3,5,11"
14985,commdev-image-keyboard-response,409,770990,learnblock2,680.7999999523163,img/planet7_right.png,7,Community 1,NA,TRUE,j,j,NA,NA,NA,1,6,"12,7,13,2,8,15,9,10,1,6,14,4,3,5,11"
14985,commdev-image-keyboard-response,410,772242,learnblock2,643.8000001907349,img/planet13_left.png,13,Community 1,NA,TRUE,f,f,NA,NA,NA,1,6,"12,7,13,2,8,15,9,10,1,6,14,4,3,5,11"
14985,commdev-image-keyboard-response,411,773502,learnblock2,712.1000001430511,img/planet12_right.png,12,Community 1,NA,TRUE,j,j,NA,NA,NA,1,6,"12,7,13,2,8,15,9,10,1,6,14,4,3,5,11"
14985,commdev-image-keyboard-response,412,774758,learnblock2,605.4000000953674,img/planet8_right.png,8,Community 1,NA,TRUE,j,j,NA,NA,NA,1,6,"12,7,13,2,8,15,9,10,1,6,14,4,3,5,11"
14985,commdev-image-keyboard-response,413,776015,learnblock2,528.2999999523163,img/planet12_right.png,12,Community 1,NA,TRUE,j,j,NA,NA,NA,1,6,"12,7,13,2,8,15,9,10,1,6,14,4,3,5,11"
14985,commdev-image-keyboard-response,414,777282,learnblock2,636.7999999523163,img/planet8_left.png,8,Community 1,NA,TRUE,f,f,NA,NA,NA,1,6,"12,7,13,2,8,15,9,10,1,6,14,4,3,5,11"
14985,commdev-image-keyboard-response,415,778536,learnblock2,625.5,img/planet12_left.png,12,Community 1,NA,TRUE,f,f,NA,NA,NA,1,6,"12,7,13,2,8,15,9,10,1,6,14,4,3,5,11"
14985,commdev-image-keyboard-response,416,779791,learnblock2,579.5999999046326,img/planet13_left.png,13,Community 1,NA,TRUE,f,f,NA,NA,NA,1,6,"12,7,13,2,8,15,9,10,1,6,14,4,3,5,11"
14985,commdev-image-keyboard-response,417,781047,learnblock2,679.5,img/planet7_right.png,7,Community 1,NA,TRUE,j,j,NA,NA,NA,1,6,"12,7,13,2,8,15,9,10,1,6,14,4,3,5,11"
14985,commdev-image-keyboard-response,418,782309,learnblock2,714.5,img/planet12_right.png,12,Community 1,NA,TRUE,j,j,NA,NA,NA,1,6,"12,7,13,2,8,15,9,10,1,6,14,4,3,5,11"
14985,commdev-image-keyboard-response,419,783568,learnblock2,622.3000001907349,img/planet13_left.png,13,Community 1,NA,TRUE,f,f,NA,NA,NA,1,6,"12,7,13,2,8,15,9,10,1,6,14,4,3,5,11"
14985,commdev-image-keyboard-response,420,784822,learnblock2,706.5,img/planet12_right.png,12,Community 1,NA,TRUE,j,j,NA,NA,NA,1,6,"12,7,13,2,8,15,9,10,1,6,14,4,3,5,11"
14985,commdev-image-keyboard-response,421,786082,learnblock2,602.3999998569489,img/planet8_left.png,8,Community 1,NA,TRUE,f,f,NA,NA,NA,1,6,"12,7,13,2,8,15,9,10,1,6,14,4,3,5,11"
14985,commdev-image-keyboard-response,422,787346,learnblock2,556.2999999523163,img/planet12_right.png,12,Community 1,NA,TRUE,j,j,NA,NA,NA,1,6,"12,7,13,2,8,15,9,10,1,6,14,4,3,5,11"
14985,commdev-image-keyboard-response,423,788606,learnblock2,565.5,img/planet13_left.png,13,Community 1,NA,TRUE,f,f,NA,NA,NA,1,6,"12,7,13,2,8,15,9,10,1,6,14,4,3,5,11"
14985,commdev-image-keyboard-response,424,789865,learnblock2,708.7000000476837,img/planet7_left.png,7,Community 1,NA,TRUE,f,f,NA,NA,NA,1,6,"12,7,13,2,8,15,9,10,1,6,14,4,3,5,11"
14985,commdev-image-keyboard-response,425,791121,learnblock2,583.2000000476837,img/planet12_right.png,12,Community 1,NA,TRUE,j,j,NA,NA,NA,1,6,"12,7,13,2,8,15,9,10,1,6,14,4,3,5,11"
14985,commdev-image-keyboard-response,426,792380,learnblock2,702.7999999523163,img/planet7_right.png,7,Community 1,NA,TRUE,j,j,NA,NA,NA,1,6,"12,7,13,2,8,15,9,10,1,6,14,4,3,5,11"
14985,commdev-image-keyboard-response,427,793633,learnblock2,557.2000000476837,img/planet13_right.png,13,Community 1,NA,TRUE,j,j,NA,NA,NA,1,6,"12,7,13,2,8,15,9,10,1,6,14,4,3,5,11"
14985,commdev-image-keyboard-response,428,794890,learnblock2,558.5,img/planet12_left.png,12,Community 1,NA,TRUE,f,f,NA,NA,NA,1,6,"12,7,13,2,8,15,9,10,1,6,14,4,3,5,11"
14985,commdev-image-keyboard-response,429,796147,learnblock2,723.9000000953674,img/planet13_left.png,13,Community 1,NA,TRUE,f,f,NA,NA,NA,1,6,"12,7,13,2,8,15,9,10,1,6,14,4,3,5,11"
14985,commdev-image-keyboard-response,430,797403,learnblock2,497.7999999523163,img/planet12_right.png,12,Community 1,NA,TRUE,j,j,NA,NA,NA,1,6,"12,7,13,2,8,15,9,10,1,6,14,4,3,5,11"
14985,commdev-image-keyboard-response,431,798659,learnblock2,447,img/planet2_left.png,2,Community 1,NA,TRUE,f,f,NA,NA,NA,1,6,"12,7,13,2,8,15,9,10,1,6,14,4,3,5,11"
14985,commdev-image-keyboard-response,432,799913,learnblock2,493.30000019073486,img/planet13_right.png,13,Community 1,NA,TRUE,j,j,NA,NA,NA,1,6,"12,7,13,2,8,15,9,10,1,6,14,4,3,5,11"
14985,commdev-image-keyboard-response,433,801168,learnblock2,528.1000001430511,img/planet8_left.png,8,Community 1,NA,TRUE,f,f,NA,NA,NA,1,6,"12,7,13,2,8,15,9,10,1,6,14,4,3,5,11"
14985,commdev-image-keyboard-response,434,802426,learnblock2,584.6000001430511,img/planet14_left.png,14,Community 3,NA,TRUE,f,f,NA,NA,NA,1,6,"12,7,13,2,8,15,9,10,1,6,14,4,3,5,11"
14985,commdev-image-keyboard-response,435,803686,learnblock2,633.0999999046326,img/planet3_left.png,3,Community 3,NA,TRUE,f,f,NA,NA,NA,1,6,"12,7,13,2,8,15,9,10,1,6,14,4,3,5,11"
14985,commdev-image-keyboard-response,436,804952,learnblock2,916.2000000476837,img/planet5_right.png,5,Community 3,NA,TRUE,j,j,NA,NA,NA,1,6,"12,7,13,2,8,15,9,10,1,6,14,4,3,5,11"
14985,commdev-image-keyboard-response,437,806205,learnblock2,754.0999999046326,img/planet14_right.png,14,Community 3,NA,TRUE,j,j,NA,NA,NA,1,6,"12,7,13,2,8,15,9,10,1,6,14,4,3,5,11"
14985,commdev-image-keyboard-response,438,807472,learnblock2,692.8999998569489,img/planet5_left.png,5,Community 3,NA,TRUE,f,f,NA,NA,NA,1,6,"12,7,13,2,8,15,9,10,1,6,14,4,3,5,11"
14985,commdev-image-keyboard-response,439,808728,learnblock2,784.2999999523163,img/planet11_right.png,11,Community 3,NA,TRUE,j,j,NA,NA,NA,1,6,"12,7,13,2,8,15,9,10,1,6,14,4,3,5,11"
14985,commdev-image-keyboard-response,440,809989,learnblock2,633.5,img/planet5_left.png,5,Community 3,NA,TRUE,f,f,NA,NA,NA,1,6,"12,7,13,2,8,15,9,10,1,6,14,4,3,5,11"
14985,commdev-image-keyboard-response,441,811245,learnblock2,645.2999999523163,img/planet14_left.png,14,Community 3,NA,TRUE,f,f,NA,NA,NA,1,6,"12,7,13,2,8,15,9,10,1,6,14,4,3,5,11"
14985,commdev-image-keyboard-response,442,812505,learnblock2,599.3999998569489,img/planet8_left.png,8,Community 1,NA,TRUE,f,f,NA,NA,NA,1,6,"12,7,13,2,8,15,9,10,1,6,14,4,3,5,11"
14985,commdev-image-keyboard-response,443,813758,learnblock2,559.7000000476837,img/planet12_right.png,12,Community 1,NA,TRUE,j,j,NA,NA,NA,1,6,"12,7,13,2,8,15,9,10,1,6,14,4,3,5,11"
14985,commdev-image-keyboard-response,444,815015,learnblock2,555.2000000476837,img/planet8_left.png,8,Community 1,NA,TRUE,f,f,NA,NA,NA,1,6,"12,7,13,2,8,15,9,10,1,6,14,4,3,5,11"
14985,commdev-image-keyboard-response,445,816268,learnblock2,652.2000000476837,img/planet7_right.png,7,Community 1,NA,TRUE,j,j,NA,NA,NA,1,6,"12,7,13,2,8,15,9,10,1,6,14,4,3,5,11"
14985,commdev-image-keyboard-response,446,817521,learnblock2,594.5,img/planet2_right.png,2,Community 1,NA,TRUE,j,j,NA,NA,NA,1,6,"12,7,13,2,8,15,9,10,1,6,14,4,3,5,11"
14985,commdev-image-keyboard-response,447,818774,learnblock2,604.1999998092651,img/planet12_left.png,12,Community 1,NA,TRUE,f,f,NA,NA,NA,1,6,"12,7,13,2,8,15,9,10,1,6,14,4,3,5,11"
14985,commdev-image-keyboard-response,448,820028,learnblock2,595.2999999523163,img/planet2_left.png,2,Community 1,NA,TRUE,f,f,NA,NA,NA,1,6,"12,7,13,2,8,15,9,10,1,6,14,4,3,5,11"
14985,commdev-image-keyboard-response,449,821292,learnblock2,546.5,img/planet15_left.png,15,Community 2,NA,TRUE,f,f,NA,NA,NA,1,6,"12,7,13,2,8,15,9,10,1,6,14,4,3,5,11"
14985,commdev-image-keyboard-response,450,822553,learnblock2,597.0999999046326,img/planet9_right.png,9,Community 2,NA,TRUE,j,j,NA,NA,NA,1,6,"12,7,13,2,8,15,9,10,1,6,14,4,3,5,11"
14985,commdev-image-keyboard-response,451,823808,learnblock2,588.5,img/planet6_left.png,6,Community 2,NA,TRUE,f,f,NA,NA,NA,1,6,"12,7,13,2,8,15,9,10,1,6,14,4,3,5,11"
14985,commdev-image-keyboard-response,452,825062,learnblock2,592.5999999046326,img/planet1_left.png,1,Community 2,NA,TRUE,f,f,NA,NA,NA,1,6,"12,7,13,2,8,15,9,10,1,6,14,4,3,5,11"
14985,commdev-image-keyboard-response,453,826318,learnblock2,487.5,img/planet15_left.png,15,Community 2,NA,TRUE,f,f,NA,NA,NA,1,6,"12,7,13,2,8,15,9,10,1,6,14,4,3,5,11"
14985,commdev-image-keyboard-response,454,827584,learnblock2,510.90000009536743,img/planet2_right.png,2,Community 1,NA,TRUE,j,j,NA,NA,NA,1,6,"12,7,13,2,8,15,9,10,1,6,14,4,3,5,11"
14985,commdev-image-keyboard-response,455,828838,learnblock2,627.7000000476837,img/planet13_left.png,13,Community 1,NA,TRUE,f,f,NA,NA,NA,1,6,"12,7,13,2,8,15,9,10,1,6,14,4,3,5,11"
14985,commdev-image-keyboard-response,456,830097,learnblock2,603,img/planet12_left.png,12,Community 1,NA,TRUE,f,f,NA,NA,NA,1,6,"12,7,13,2,8,15,9,10,1,6,14,4,3,5,11"
14985,commdev-image-keyboard-response,457,831362,learnblock2,546,img/planet8_right.png,8,Community 1,NA,TRUE,j,j,NA,NA,NA,1,6,"12,7,13,2,8,15,9,10,1,6,14,4,3,5,11"
14985,commdev-image-keyboard-response,458,832620,learnblock2,588.9000000953674,img/planet12_right.png,12,Community 1,NA,TRUE,j,j,NA,NA,NA,1,6,"12,7,13,2,8,15,9,10,1,6,14,4,3,5,11"
14985,commdev-image-keyboard-response,459,833878,learnblock2,731.2999999523163,img/planet7_left.png,7,Community 1,NA,TRUE,f,f,NA,NA,NA,1,6,"12,7,13,2,8,15,9,10,1,6,14,4,3,5,11"
14985,commdev-image-keyboard-response,460,835131,learnblock2,724.7000000476837,img/planet12_left.png,12,Community 1,NA,TRUE,f,f,NA,NA,NA,1,6,"12,7,13,2,8,15,9,10,1,6,14,4,3,5,11"
14985,commdev-image-keyboard-response,461,836392,learnblock2,526.2000000476837,img/planet13_right.png,13,Community 1,NA,TRUE,j,j,NA,NA,NA,1,6,"12,7,13,2,8,15,9,10,1,6,14,4,3,5,11"
14985,commdev-image-keyboard-response,462,837651,learnblock2,581.4000000953674,img/planet8_right.png,8,Community 1,NA,TRUE,j,j,NA,NA,NA,1,6,"12,7,13,2,8,15,9,10,1,6,14,4,3,5,11"
14985,commdev-image-keyboard-response,463,838906,learnblock2,573.2999999523163,img/planet14_right.png,14,Community 3,NA,TRUE,j,j,NA,NA,NA,1,6,"12,7,13,2,8,15,9,10,1,6,14,4,3,5,11"
14985,commdev-image-keyboard-response,464,840164,learnblock2,532.6000001430511,img/planet5_left.png,5,Community 3,NA,TRUE,f,f,NA,NA,NA,1,6,"12,7,13,2,8,15,9,10,1,6,14,4,3,5,11"
14985,commdev-image-keyboard-response,465,841422,learnblock2,581.0999999046326,img/planet11_left.png,11,Community 3,NA,TRUE,f,f,NA,NA,NA,1,6,"12,7,13,2,8,15,9,10,1,6,14,4,3,5,11"
14985,commdev-image-keyboard-response,466,842679,learnblock2,561,img/planet5_right.png,5,Community 3,NA,TRUE,j,j,NA,NA,NA,1,6,"12,7,13,2,8,15,9,10,1,6,14,4,3,5,11"
14985,commdev-image-keyboard-response,467,843932,learnblock2,671.5,img/planet11_right.png,11,Community 3,NA,TRUE,j,j,NA,NA,NA,1,6,"12,7,13,2,8,15,9,10,1,6,14,4,3,5,11"
14985,commdev-image-keyboard-response,468,845187,learnblock2,646.2999999523163,img/planet14_left.png,14,Community 3,NA,TRUE,f,f,NA,NA,NA,1,6,"12,7,13,2,8,15,9,10,1,6,14,4,3,5,11"
14985,commdev-image-keyboard-response,469,846448,learnblock2,844.2999999523163,img/planet11_right.png,11,Community 3,NA,FALSE,f,j,NA,NA,NA,1,6,"12,7,13,2,8,15,9,10,1,6,14,4,3,5,11"
14985,commdev-image-keyboard-response,470,847706,learnblock2,1062,img/planet4_right.png,4,Community 3,NA,TRUE,j,j,NA,NA,NA,1,6,"12,7,13,2,8,15,9,10,1,6,14,4,3,5,11"
14985,commdev-image-keyboard-response,471,848962,learnblock2,691.8999998569489,img/planet5_right.png,5,Community 3,NA,TRUE,j,j,NA,NA,NA,1,6,"12,7,13,2,8,15,9,10,1,6,14,4,3,5,11"
14985,commdev-image-keyboard-response,472,850216,learnblock2,498.2999999523163,img/planet14_right.png,14,Community 3,NA,TRUE,j,j,NA,NA,NA,1,6,"12,7,13,2,8,15,9,10,1,6,14,4,3,5,11"
14985,commdev-image-keyboard-response,473,851478,learnblock2,536.4000000953674,img/planet5_left.png,5,Community 3,NA,FALSE,j,f,NA,NA,NA,1,6,"12,7,13,2,8,15,9,10,1,6,14,4,3,5,11"
14985,commdev-image-keyboard-response,474,852740,learnblock2,507.2999999523163,img/planet14_left.png,14,Community 3,NA,TRUE,f,f,NA,NA,NA,1,6,"12,7,13,2,8,15,9,10,1,6,14,4,3,5,11"
14985,commdev-image-keyboard-response,475,853992,learnblock2,710.1000001430511,img/planet3_left.png,3,Community 3,NA,TRUE,f,f,NA,NA,NA,1,6,"12,7,13,2,8,15,9,10,1,6,14,4,3,5,11"
14985,commdev-image-keyboard-response,476,855244,learnblock2,672.5999999046326,img/planet4_right.png,4,Community 3,NA,TRUE,j,j,NA,NA,NA,1,6,"12,7,13,2,8,15,9,10,1,6,14,4,3,5,11"
14985,commdev-image-keyboard-response,477,856510,learnblock2,575.0999999046326,img/planet10_left.png,10,Community 2,NA,TRUE,f,f,NA,NA,NA,1,6,"12,7,13,2,8,15,9,10,1,6,14,4,3,5,11"
14985,commdev-image-keyboard-response,478,857761,learnblock2,528.3000001907349,img/planet4_right.png,4,Community 3,NA,TRUE,j,j,NA,NA,NA,1,6,"12,7,13,2,8,15,9,10,1,6,14,4,3,5,11"
14985,commdev-image-keyboard-response,479,859014,learnblock2,542.5,img/planet11_right.png,11,Community 3,NA,TRUE,j,j,NA,NA,NA,1,6,"12,7,13,2,8,15,9,10,1,6,14,4,3,5,11"
14985,commdev-image-keyboard-response,480,860270,learnblock2,541.5,img/planet4_right.png,4,Community 3,NA,TRUE,j,j,NA,NA,NA,1,6,"12,7,13,2,8,15,9,10,1,6,14,4,3,5,11"
14985,commdev-image-keyboard-response,481,861529,learnblock2,767.7999999523163,img/planet10_right.png,10,Community 2,NA,TRUE,j,j,NA,NA,NA,1,6,"12,7,13,2,8,15,9,10,1,6,14,4,3,5,11"
14985,commdev-image-keyboard-response,482,862791,learnblock2,688.0999999046326,img/planet6_right.png,6,Community 2,NA,TRUE,j,j,NA,NA,NA,1,6,"12,7,13,2,8,15,9,10,1,6,14,4,3,5,11"
14985,commdev-image-keyboard-response,483,864045,learnblock2,780.7999999523163,img/planet10_left.png,10,Community 2,NA,FALSE,j,f,NA,NA,NA,1,6,"12,7,13,2,8,15,9,10,1,6,14,4,3,5,11"
14985,commdev-image-keyboard-response,484,865305,learnblock2,651.4000000953674,img/planet4_right.png,4,Community 3,NA,TRUE,j,j,NA,NA,NA,1,6,"12,7,13,2,8,15,9,10,1,6,14,4,3,5,11"
14985,commdev-image-keyboard-response,485,866563,learnblock2,499.09999990463257,img/planet11_left.png,11,Community 3,NA,TRUE,f,f,NA,NA,NA,1,6,"12,7,13,2,8,15,9,10,1,6,14,4,3,5,11"
14985,commdev-image-keyboard-response,486,867817,learnblock2,673.8000001907349,img/planet14_right.png,14,Community 3,NA,TRUE,j,j,NA,NA,NA,1,6,"12,7,13,2,8,15,9,10,1,6,14,4,3,5,11"
14985,commdev-image-keyboard-response,487,869079,learnblock2,664,img/planet3_right.png,3,Community 3,NA,TRUE,j,j,NA,NA,NA,1,6,"12,7,13,2,8,15,9,10,1,6,14,4,3,5,11"
14985,commdev-image-keyboard-response,488,870342,learnblock2,627.2999999523163,img/planet5_right.png,5,Community 3,NA,TRUE,j,j,NA,NA,NA,1,6,"12,7,13,2,8,15,9,10,1,6,14,4,3,5,11"
14985,commdev-image-keyboard-response,489,871608,learnblock2,568.7999999523163,img/planet3_right.png,3,Community 3,NA,TRUE,j,j,NA,NA,NA,1,6,"12,7,13,2,8,15,9,10,1,6,14,4,3,5,11"
14985,commdev-image-keyboard-response,490,872868,learnblock2,562.0999999046326,img/planet4_right.png,4,Community 3,NA,TRUE,j,j,NA,NA,NA,1,6,"12,7,13,2,8,15,9,10,1,6,14,4,3,5,11"
14985,commdev-image-keyboard-response,491,874124,learnblock2,641.7999999523163,img/planet3_right.png,3,Community 3,NA,TRUE,j,j,NA,NA,NA,1,6,"12,7,13,2,8,15,9,10,1,6,14,4,3,5,11"
14985,commdev-image-keyboard-response,492,875382,learnblock2,545.2000000476837,img/planet5_right.png,5,Community 3,NA,TRUE,j,j,NA,NA,NA,1,6,"12,7,13,2,8,15,9,10,1,6,14,4,3,5,11"
14985,commdev-image-keyboard-response,493,876641,learnblock2,530.6000001430511,img/planet4_right.png,4,Community 3,NA,TRUE,j,j,NA,NA,NA,1,6,"12,7,13,2,8,15,9,10,1,6,14,4,3,5,11"
14985,commdev-image-keyboard-response,494,877898,learnblock2,556.5,img/planet10_right.png,10,Community 2,NA,TRUE,j,j,NA,NA,NA,1,6,"12,7,13,2,8,15,9,10,1,6,14,4,3,5,11"
14985,commdev-image-keyboard-response,495,879151,learnblock2,525.6999998092651,img/planet1_right.png,1,Community 2,NA,TRUE,j,j,NA,NA,NA,1,6,"12,7,13,2,8,15,9,10,1,6,14,4,3,5,11"
14985,commdev-image-keyboard-response,496,880406,learnblock2,622.8999998569489,img/planet15_left.png,15,Community 2,NA,TRUE,f,f,NA,NA,NA,1,6,"12,7,13,2,8,15,9,10,1,6,14,4,3,5,11"
14985,commdev-image-keyboard-response,497,881661,learnblock2,673.8000001907349,img/planet6_left.png,6,Community 2,NA,TRUE,f,f,NA,NA,NA,1,6,"12,7,13,2,8,15,9,10,1,6,14,4,3,5,11"
14985,commdev-image-keyboard-response,498,882928,learnblock2,641.3999998569489,img/planet1_left.png,1,Community 2,NA,TRUE,f,f,NA,NA,NA,1,6,"12,7,13,2,8,15,9,10,1,6,14,4,3,5,11"
14985,commdev-image-keyboard-response,499,884192,learnblock2,577.3000001907349,img/planet6_right.png,6,Community 2,NA,TRUE,j,j,NA,NA,NA,1,6,"12,7,13,2,8,15,9,10,1,6,14,4,3,5,11"
14985,commdev-image-keyboard-response,500,885448,learnblock2,805,img/planet1_right.png,1,Community 2,NA,TRUE,j,j,NA,NA,NA,1,6,"12,7,13,2,8,15,9,10,1,6,14,4,3,5,11"
14985,commdev-image-keyboard-response,501,886706,learnblock2,734.5999999046326,img/planet15_left.png,15,Community 2,NA,TRUE,f,f,NA,NA,NA,1,6,"12,7,13,2,8,15,9,10,1,6,14,4,3,5,11"
14985,commdev-image-keyboard-response,502,887969,learnblock2,617.2999999523163,img/planet1_right.png,1,Community 2,NA,TRUE,j,j,NA,NA,NA,1,6,"12,7,13,2,8,15,9,10,1,6,14,4,3,5,11"
14985,commdev-image-keyboard-response,503,889229,learnblock2,875.7000000476837,img/planet9_left.png,9,Community 2,NA,TRUE,f,f,NA,NA,NA,1,6,"12,7,13,2,8,15,9,10,1,6,14,4,3,5,11"
14985,commdev-image-keyboard-response,504,890483,learnblock2,701.2999999523163,img/planet10_left.png,10,Community 2,NA,TRUE,f,f,NA,NA,NA,1,6,"12,7,13,2,8,15,9,10,1,6,14,4,3,5,11"
14985,commdev-image-keyboard-response,505,891742,learnblock2,681.5,img/planet4_right.png,4,Community 3,NA,TRUE,j,j,NA,NA,NA,1,6,"12,7,13,2,8,15,9,10,1,6,14,4,3,5,11"
14985,commdev-image-keyboard-response,506,892999,learnblock2,755.6000001430511,img/planet5_left.png,5,Community 3,NA,TRUE,f,f,NA,NA,NA,1,6,"12,7,13,2,8,15,9,10,1,6,14,4,3,5,11"
14985,commdev-image-keyboard-response,507,894258,learnblock2,750.2000000476837,img/planet14_right.png,14,Community 3,NA,TRUE,j,j,NA,NA,NA,1,6,"12,7,13,2,8,15,9,10,1,6,14,4,3,5,11"
14985,commdev-image-keyboard-response,508,895512,learnblock2,902.6999998092651,img/planet3_right.png,3,Community 3,NA,TRUE,j,j,NA,NA,NA,1,6,"12,7,13,2,8,15,9,10,1,6,14,4,3,5,11"
14985,commdev-image-keyboard-response,509,896769,learnblock2,1032,img/planet11_left.png,11,Community 3,NA,FALSE,j,f,NA,NA,NA,1,6,"12,7,13,2,8,15,9,10,1,6,14,4,3,5,11"
14985,commdev-image-keyboard-response,510,898026,learnblock2,829.7000000476837,img/planet3_right.png,3,Community 3,NA,TRUE,j,j,NA,NA,NA,1,6,"12,7,13,2,8,15,9,10,1,6,14,4,3,5,11"
14985,commdev-image-keyboard-response,511,899290,learnblock2,702.5,img/planet14_left.png,14,Community 3,NA,TRUE,f,f,NA,NA,NA,1,6,"12,7,13,2,8,15,9,10,1,6,14,4,3,5,11"
14985,commdev-image-keyboard-response,512,900555,learnblock2,547.3000001907349,img/planet3_right.png,3,Community 3,NA,TRUE,j,j,NA,NA,NA,1,6,"12,7,13,2,8,15,9,10,1,6,14,4,3,5,11"
14985,commdev-image-keyboard-response,513,901822,learnblock2,680.4000000953674,img/planet11_left.png,11,Community 3,NA,TRUE,f,f,NA,NA,NA,1,6,"12,7,13,2,8,15,9,10,1,6,14,4,3,5,11"
14985,commdev-image-keyboard-response,514,903080,learnblock2,634.8000001907349,img/planet3_left.png,3,Community 3,NA,TRUE,f,f,NA,NA,NA,1,6,"12,7,13,2,8,15,9,10,1,6,14,4,3,5,11"
14985,commdev-image-keyboard-response,515,904331,learnblock2,582.5,img/planet4_left.png,4,Community 3,NA,TRUE,f,f,NA,NA,NA,1,6,"12,7,13,2,8,15,9,10,1,6,14,4,3,5,11"
14985,commdev-image-keyboard-response,516,905589,learnblock2,641.9000000953674,img/planet10_right.png,10,Community 2,NA,TRUE,j,j,NA,NA,NA,1,6,"12,7,13,2,8,15,9,10,1,6,14,4,3,5,11"
14985,commdev-image-keyboard-response,517,906844,learnblock2,798.6000001430511,img/planet9_left.png,9,Community 2,NA,TRUE,f,f,NA,NA,NA,1,6,"12,7,13,2,8,15,9,10,1,6,14,4,3,5,11"
14985,commdev-image-keyboard-response,518,908097,learnblock2,867.0999999046326,img/planet6_right.png,6,Community 2,NA,TRUE,j,j,NA,NA,NA,1,6,"12,7,13,2,8,15,9,10,1,6,14,4,3,5,11"
14985,commdev-image-keyboard-response,519,909363,learnblock2,692.2999999523163,img/planet15_left.png,15,Community 2,NA,TRUE,f,f,NA,NA,NA,1,6,"12,7,13,2,8,15,9,10,1,6,14,4,3,5,11"
14985,commdev-image-keyboard-response,520,910618,learnblock2,571.8999998569489,img/planet6_right.png,6,Community 2,NA,TRUE,j,j,NA,NA,NA,1,6,"12,7,13,2,8,15,9,10,1,6,14,4,3,5,11"
14985,commdev-image-keyboard-response,521,911882,learnblock2,665.7000000476837,img/planet1_left.png,1,Community 2,NA,TRUE,f,f,NA,NA,NA,1,6,"12,7,13,2,8,15,9,10,1,6,14,4,3,5,11"
14985,commdev-image-keyboard-response,522,913134,learnblock2,647.5,img/planet6_left.png,6,Community 2,NA,TRUE,f,f,NA,NA,NA,1,6,"12,7,13,2,8,15,9,10,1,6,14,4,3,5,11"
14985,commdev-image-keyboard-response,523,914394,learnblock2,564.5999999046326,img/planet1_left.png,1,Community 2,NA,TRUE,f,f,NA,NA,NA,1,6,"12,7,13,2,8,15,9,10,1,6,14,4,3,5,11"
14985,commdev-image-keyboard-response,524,915654,learnblock2,691.4000000953674,img/planet6_right.png,6,Community 2,NA,TRUE,j,j,NA,NA,NA,1,6,"12,7,13,2,8,15,9,10,1,6,14,4,3,5,11"
14985,commdev-image-keyboard-response,525,916913,learnblock2,711.1000001430511,img/planet1_left.png,1,Community 2,NA,TRUE,f,f,NA,NA,NA,1,6,"12,7,13,2,8,15,9,10,1,6,14,4,3,5,11"
14985,commdev-image-keyboard-response,526,918168,learnblock2,861.5,img/planet6_right.png,6,Community 2,NA,TRUE,j,j,NA,NA,NA,1,6,"12,7,13,2,8,15,9,10,1,6,14,4,3,5,11"
14985,commdev-image-keyboard-response,527,919421,learnblock2,831.1000001430511,img/planet9_right.png,9,Community 2,NA,FALSE,f,j,NA,NA,NA,1,6,"12,7,13,2,8,15,9,10,1,6,14,4,3,5,11"
14985,commdev-image-keyboard-response,528,920684,learnblock2,639.8000001907349,img/planet10_left.png,10,Community 2,NA,TRUE,f,f,NA,NA,NA,1,6,"12,7,13,2,8,15,9,10,1,6,14,4,3,5,11"
14985,commdev-image-keyboard-response,529,921938,learnblock2,758.7000000476837,img/planet9_left.png,9,Community 2,NA,TRUE,f,f,NA,NA,NA,1,6,"12,7,13,2,8,15,9,10,1,6,14,4,3,5,11"
14985,commdev-image-keyboard-response,530,923205,learnblock2,589.2000000476837,img/planet6_right.png,6,Community 2,NA,TRUE,j,j,NA,NA,NA,1,6,"12,7,13,2,8,15,9,10,1,6,14,4,3,5,11"
14985,commdev-image-keyboard-response,531,924460,learnblock2,594.1999998092651,img/planet9_left.png,9,Community 2,NA,TRUE,f,f,NA,NA,NA,1,6,"12,7,13,2,8,15,9,10,1,6,14,4,3,5,11"
14985,commdev-image-keyboard-response,532,925711,learnblock2,565.3999998569489,img/planet10_right.png,10,Community 2,NA,TRUE,j,j,NA,NA,NA,1,6,"12,7,13,2,8,15,9,10,1,6,14,4,3,5,11"
14985,commdev-image-keyboard-response,533,926979,learnblock2,774.2999999523163,img/planet1_right.png,1,Community 2,NA,TRUE,j,j,NA,NA,NA,1,6,"12,7,13,2,8,15,9,10,1,6,14,4,3,5,11"
14985,commdev-image-keyboard-response,534,928238,learnblock2,633.2000000476837,img/planet10_left.png,10,Community 2,NA,TRUE,f,f,NA,NA,NA,1,6,"12,7,13,2,8,15,9,10,1,6,14,4,3,5,11"
14985,commdev-image-keyboard-response,535,929497,learnblock2,531.2000000476837,img/planet4_right.png,4,Community 3,NA,TRUE,j,j,NA,NA,NA,1,6,"12,7,13,2,8,15,9,10,1,6,14,4,3,5,11"
14985,commdev-image-keyboard-response,536,930764,learnblock2,588,img/planet5_right.png,5,Community 3,NA,TRUE,j,j,NA,NA,NA,1,6,"12,7,13,2,8,15,9,10,1,6,14,4,3,5,11"
14985,commdev-image-keyboard-response,537,932021,learnblock2,753.3999998569489,img/planet4_right.png,4,Community 3,NA,TRUE,j,j,NA,NA,NA,1,6,"12,7,13,2,8,15,9,10,1,6,14,4,3,5,11"
14985,commdev-image-keyboard-response,538,933276,learnblock2,657.3999998569489,img/planet5_right.png,5,Community 3,NA,TRUE,j,j,NA,NA,NA,1,6,"12,7,13,2,8,15,9,10,1,6,14,4,3,5,11"
14985,commdev-image-keyboard-response,539,934533,learnblock2,671.6999998092651,img/planet3_right.png,3,Community 3,NA,TRUE,j,j,NA,NA,NA,1,6,"12,7,13,2,8,15,9,10,1,6,14,4,3,5,11"
14985,commdev-image-keyboard-response,540,935792,learnblock2,686.2000000476837,img/planet11_right.png,11,Community 3,NA,TRUE,j,j,NA,NA,NA,1,6,"12,7,13,2,8,15,9,10,1,6,14,4,3,5,11"
14985,commdev-image-keyboard-response,541,937050,learnblock2,685.5999999046326,img/planet3_left.png,3,Community 3,NA,TRUE,f,f,NA,NA,NA,1,6,"12,7,13,2,8,15,9,10,1,6,14,4,3,5,11"
14985,commdev-image-keyboard-response,542,938302,learnblock2,789.2000000476837,img/planet4_left.png,4,Community 3,NA,TRUE,f,f,NA,NA,NA,1,6,"12,7,13,2,8,15,9,10,1,6,14,4,3,5,11"
14985,commdev-image-keyboard-response,543,939561,learnblock2,602.9000000953674,img/planet10_left.png,10,Community 2,NA,TRUE,f,f,NA,NA,NA,1,6,"12,7,13,2,8,15,9,10,1,6,14,4,3,5,11"
14985,commdev-image-keyboard-response,544,940822,learnblock2,506.2000000476837,img/planet4_left.png,4,Community 3,NA,TRUE,f,f,NA,NA,NA,1,6,"12,7,13,2,8,15,9,10,1,6,14,4,3,5,11"
14985,commdev-image-keyboard-response,545,942081,learnblock2,663.7000000476837,img/planet3_right.png,3,Community 3,NA,TRUE,j,j,NA,NA,NA,1,6,"12,7,13,2,8,15,9,10,1,6,14,4,3,5,11"
14985,commdev-image-keyboard-response,546,943334,learnblock2,857.7999999523163,img/planet11_right.png,11,Community 3,NA,TRUE,j,j,NA,NA,NA,1,6,"12,7,13,2,8,15,9,10,1,6,14,4,3,5,11"
14985,commdev-image-keyboard-response,547,944589,learnblock2,740.3000001907349,img/planet3_left.png,3,Community 3,NA,TRUE,f,f,NA,NA,NA,1,6,"12,7,13,2,8,15,9,10,1,6,14,4,3,5,11"
14985,commdev-image-keyboard-response,548,945844,learnblock2,672,img/planet11_left.png,11,Community 3,NA,TRUE,f,f,NA,NA,NA,1,6,"12,7,13,2,8,15,9,10,1,6,14,4,3,5,11"
14985,commdev-image-keyboard-response,549,947103,learnblock2,573.5,img/planet4_left.png,4,Community 3,NA,TRUE,f,f,NA,NA,NA,1,6,"12,7,13,2,8,15,9,10,1,6,14,4,3,5,11"
14985,commdev-image-keyboard-response,550,948362,learnblock2,638.7000000476837,img/planet3_right.png,3,Community 3,NA,TRUE,j,j,NA,NA,NA,1,6,"12,7,13,2,8,15,9,10,1,6,14,4,3,5,11"
14985,commdev-image-keyboard-response,551,949620,learnblock2,651.6999998092651,img/planet5_right.png,5,Community 3,NA,TRUE,j,j,NA,NA,NA,1,6,"12,7,13,2,8,15,9,10,1,6,14,4,3,5,11"
14985,commdev-image-keyboard-response,552,950875,learnblock2,657.4000000953674,img/planet14_left.png,14,Community 3,NA,TRUE,f,f,NA,NA,NA,1,6,"12,7,13,2,8,15,9,10,1,6,14,4,3,5,11"
14985,commdev-image-keyboard-response,553,952128,learnblock2,562.5999999046326,img/planet8_right.png,8,Community 1,NA,TRUE,j,j,NA,NA,NA,1,6,"12,7,13,2,8,15,9,10,1,6,14,4,3,5,11"
14985,commdev-image-keyboard-response,554,953386,learnblock2,643.7000000476837,img/planet7_left.png,7,Community 1,NA,TRUE,f,f,NA,NA,NA,1,6,"12,7,13,2,8,15,9,10,1,6,14,4,3,5,11"
14985,commdev-image-keyboard-response,555,954645,learnblock2,634.7999999523163,img/planet12_right.png,12,Community 1,NA,TRUE,j,j,NA,NA,NA,1,6,"12,7,13,2,8,15,9,10,1,6,14,4,3,5,11"
14985,commdev-image-keyboard-response,556,955906,learnblock2,643.4000000953674,img/planet8_left.png,8,Community 1,NA,TRUE,f,f,NA,NA,NA,1,6,"12,7,13,2,8,15,9,10,1,6,14,4,3,5,11"
14985,commdev-image-keyboard-response,557,957158,learnblock2,594.5,img/planet13_right.png,13,Community 1,NA,TRUE,j,j,NA,NA,NA,1,6,"12,7,13,2,8,15,9,10,1,6,14,4,3,5,11"
14985,commdev-image-keyboard-response,558,958414,learnblock2,592.2999999523163,img/planet8_right.png,8,Community 1,NA,TRUE,j,j,NA,NA,NA,1,6,"12,7,13,2,8,15,9,10,1,6,14,4,3,5,11"
14985,commdev-image-keyboard-response,559,959678,learnblock2,580.5,img/planet14_left.png,14,Community 3,NA,TRUE,f,f,NA,NA,NA,1,6,"12,7,13,2,8,15,9,10,1,6,14,4,3,5,11"
14985,commdev-image-keyboard-response,560,960936,learnblock2,607.3999998569489,img/planet3_left.png,3,Community 3,NA,TRUE,f,f,NA,NA,NA,1,6,"12,7,13,2,8,15,9,10,1,6,14,4,3,5,11"
14985,commdev-image-keyboard-response,561,962191,learnblock2,600.6000001430511,img/planet14_left.png,14,Community 3,NA,TRUE,f,f,NA,NA,NA,1,6,"12,7,13,2,8,15,9,10,1,6,14,4,3,5,11"
14985,commdev-image-keyboard-response,562,963444,learnblock2,553.6000001430511,img/planet3_right.png,3,Community 3,NA,TRUE,j,j,NA,NA,NA,1,6,"12,7,13,2,8,15,9,10,1,6,14,4,3,5,11"
14985,commdev-image-keyboard-response,563,964696,learnblock2,648.4000000953674,img/planet14_right.png,14,Community 3,NA,TRUE,j,j,NA,NA,NA,1,6,"12,7,13,2,8,15,9,10,1,6,14,4,3,5,11"
14985,commdev-image-keyboard-response,564,965960,learnblock2,592.5,img/planet8_left.png,8,Community 1,NA,TRUE,f,f,NA,NA,NA,1,6,"12,7,13,2,8,15,9,10,1,6,14,4,3,5,11"
14985,commdev-image-keyboard-response,565,967212,learnblock2,511.09999990463257,img/planet12_left.png,12,Community 1,NA,TRUE,f,f,NA,NA,NA,1,6,"12,7,13,2,8,15,9,10,1,6,14,4,3,5,11"
14985,commdev-image-keyboard-response,566,968468,learnblock2,509.39999985694885,img/planet13_right.png,13,Community 1,NA,FALSE,f,j,NA,NA,NA,1,6,"12,7,13,2,8,15,9,10,1,6,14,4,3,5,11"
14985,commdev-image-keyboard-response,567,969722,learnblock2,523.2999999523163,img/planet8_left.png,8,Community 1,NA,TRUE,f,f,NA,NA,NA,1,6,"12,7,13,2,8,15,9,10,1,6,14,4,3,5,11"
14985,commdev-image-keyboard-response,568,970975,learnblock2,629.7999999523163,img/planet13_left.png,13,Community 1,NA,TRUE,f,f,NA,NA,NA,1,6,"12,7,13,2,8,15,9,10,1,6,14,4,3,5,11"
14985,commdev-image-keyboard-response,569,972235,learnblock2,631.5999999046326,img/planet7_left.png,7,Community 1,NA,TRUE,f,f,NA,NA,NA,1,6,"12,7,13,2,8,15,9,10,1,6,14,4,3,5,11"
14985,commdev-image-keyboard-response,570,973493,learnblock2,576,img/planet8_right.png,8,Community 1,NA,TRUE,j,j,NA,NA,NA,1,6,"12,7,13,2,8,15,9,10,1,6,14,4,3,5,11"
14985,commdev-image-keyboard-response,571,974745,learnblock2,702.5,img/planet14_left.png,14,Community 3,NA,TRUE,f,f,NA,NA,NA,1,6,"12,7,13,2,8,15,9,10,1,6,14,4,3,5,11"
14985,commdev-image-keyboard-response,572,975998,learnblock2,829,img/planet5_right.png,5,Community 3,NA,TRUE,j,j,NA,NA,NA,1,6,"12,7,13,2,8,15,9,10,1,6,14,4,3,5,11"
14985,commdev-image-keyboard-response,573,977264,learnblock2,703.2000000476837,img/planet3_left.png,3,Community 3,NA,TRUE,f,f,NA,NA,NA,1,6,"12,7,13,2,8,15,9,10,1,6,14,4,3,5,11"
14985,commdev-image-keyboard-response,574,978519,learnblock2,659,img/planet5_left.png,5,Community 3,NA,TRUE,f,f,NA,NA,NA,1,6,"12,7,13,2,8,15,9,10,1,6,14,4,3,5,11"
14985,commdev-image-keyboard-response,575,979784,learnblock2,775.5,img/planet4_left.png,4,Community 3,NA,TRUE,f,f,NA,NA,NA,1,6,"12,7,13,2,8,15,9,10,1,6,14,4,3,5,11"
14985,commdev-image-keyboard-response,576,981043,learnblock2,660,img/planet10_right.png,10,Community 2,NA,TRUE,j,j,NA,NA,NA,1,6,"12,7,13,2,8,15,9,10,1,6,14,4,3,5,11"
14985,commdev-image-keyboard-response,577,982302,learnblock2,598.9000000953674,img/planet9_left.png,9,Community 2,NA,TRUE,f,f,NA,NA,NA,1,6,"12,7,13,2,8,15,9,10,1,6,14,4,3,5,11"
14985,commdev-image-keyboard-response,578,983555,learnblock2,604.6000001430511,img/planet10_right.png,10,Community 2,NA,TRUE,j,j,NA,NA,NA,1,6,"12,7,13,2,8,15,9,10,1,6,14,4,3,5,11"
14985,commdev-image-keyboard-response,579,984814,learnblock2,654.2000000476837,img/planet9_left.png,9,Community 2,NA,TRUE,f,f,NA,NA,NA,1,6,"12,7,13,2,8,15,9,10,1,6,14,4,3,5,11"
14985,commdev-image-keyboard-response,580,986081,learnblock2,688.2999999523163,img/planet6_left.png,6,Community 2,NA,TRUE,f,f,NA,NA,NA,1,6,"12,7,13,2,8,15,9,10,1,6,14,4,3,5,11"
14985,commdev-image-keyboard-response,581,987338,learnblock2,605.2000000476837,img/planet1_left.png,1,Community 2,NA,TRUE,f,f,NA,NA,NA,1,6,"12,7,13,2,8,15,9,10,1,6,14,4,3,5,11"
14985,commdev-image-keyboard-response,582,988597,learnblock2,516.6999998092651,img/planet10_left.png,10,Community 2,NA,TRUE,f,f,NA,NA,NA,1,6,"12,7,13,2,8,15,9,10,1,6,14,4,3,5,11"
14985,commdev-image-keyboard-response,583,989858,learnblock2,550.7999999523163,img/planet4_right.png,4,Community 3,NA,TRUE,j,j,NA,NA,NA,1,6,"12,7,13,2,8,15,9,10,1,6,14,4,3,5,11"
14985,commdev-image-keyboard-response,584,991111,learnblock2,884.5999999046326,img/planet5_left.png,5,Community 3,NA,TRUE,f,f,NA,NA,NA,1,6,"12,7,13,2,8,15,9,10,1,6,14,4,3,5,11"
14985,commdev-image-keyboard-response,585,992363,learnblock2,674.6999998092651,img/planet4_right.png,4,Community 3,NA,TRUE,j,j,NA,NA,NA,1,6,"12,7,13,2,8,15,9,10,1,6,14,4,3,5,11"
14985,commdev-image-keyboard-response,586,993624,learnblock2,668.7999999523163,img/planet11_right.png,11,Community 3,NA,TRUE,j,j,NA,NA,NA,1,6,"12,7,13,2,8,15,9,10,1,6,14,4,3,5,11"
