subject_id,trial_type,trial_index,time_elapsed,block,rt,stimulus,planet,community,response,correct,key_press,learning_correct_response,parse,init_locations,final_locations,browser_interactions,num_comp,planet_map
15034,commdev-instructions,7,20452,NA,1001.2000000029802,"<p>In this game, you are a scientist on board a space shuttle. </p><p> On each mission, you will visit planets all across the universe.</p><img src=""img/controlroom.jpg"" width=300vw>",NA,NA,NA,NA,NA,NA,NA,NA,NA,2,6,"5,2,14,1,13,11,6,4,9,10,12,15,3,8,7"
15034,commdev-instructions,8,23124,NA,591.7999999970198,"<p>Here are a few planets you might see:</p><img src=""img/practice1.png"" width=200vw><img src=""img/practice2.png"" width=200vw><img src=""img/practice3.png"" width=200vw>",NA,NA,NA,NA,NA,NA,NA,NA,NA,2,6,"5,2,14,1,13,11,6,4,9,10,12,15,3,8,7"
15034,commdev-instructions,9,31341,NA,808.5999999940395,"<p>Your job as a scientist is to record which direction the winds are moving on each planet.</p><p>There are two types of wind directions:</p><img src=""img/practice1_left.png"" width=200vw><img src=""img/practice1_right.png"" width=200vw>",NA,NA,NA,NA,NA,NA,NA,NA,NA,2,6,"5,2,14,1,13,11,6,4,9,10,12,15,3,8,7"
15034,commdev-instructions,10,37109,NA,879,"<p>If the winds are moving this way, press the letter <strong>F</strong> on the keyboard as fast as you can.</p><img src=""img/leftwind.png"" width=250vw>",NA,NA,NA,NA,NA,NA,NA,NA,NA,2,6,"5,2,14,1,13,11,6,4,9,10,12,15,3,8,7"
15034,commdev-instructions,11,42256,NA,634.2000000029802,"<p>If the winds are moving this way, press the letter <strong>J</strong> on the keyboard as fast as you can.</p><img src=""img/rightwind.png"" width=350vw>",NA,NA,NA,NA,NA,NA,NA,NA,NA,2,6,"5,2,14,1,13,11,6,4,9,10,12,15,3,8,7"
15034,commdev-instructions,12,48238,NA,1557,<p>You will have 1 second to respond. Try to respond before the time runs out!,NA,NA,NA,NA,NA,NA,NA,NA,NA,2,6,"5,2,14,1,13,11,6,4,9,10,12,15,3,8,7"
15034,commdev-instructions,13,54877,NA,1206.6000000089407,<p>The planets you will visit will look different from each other.</p><p>You should respond <strong>only</strong> based on wind direction.,NA,NA,NA,NA,NA,NA,NA,NA,NA,2,6,"5,2,14,1,13,11,6,4,9,10,12,15,3,8,7"
15034,commdev-instructions,14,60959,NA,895.2000000029802,"<p> Ready to start the practice round? </p><p> Remember, press <strong>F</strong> or <strong>J</strong> depending on the wind direction.<br><img src=""img/categorize_planet_example.png""",NA,NA,NA,NA,NA,NA,NA,NA,NA,2,6,"5,2,14,1,13,11,6,4,9,10,12,15,3,8,7"
15034,commdev-instructions,26,115653,NA,2741.9000000059605,"<p>Great, now try a short practice mission. </p><p> This time, you will have 1 second to respond and you won't know whether you pressed the right or wrong key for each planet.</p>",NA,NA,NA,NA,NA,NA,NA,NA,NA,2,6,"5,2,14,1,13,11,6,4,9,10,12,15,3,8,7"
15034,commdev-image-keyboard-response,27,117018,practice,1014.7999999970198,img/practice3_right.png,NA,Number not found in mappings,NA,TRUE,j,j,NA,NA,NA,2,6,"5,2,14,1,13,11,6,4,9,10,12,15,3,8,7"
15034,commdev-image-keyboard-response,28,118277,practice,1034.3999999910593,img/practice2_right.png,NA,Number not found in mappings,NA,TRUE,j,j,NA,NA,NA,2,6,"5,2,14,1,13,11,6,4,9,10,12,15,3,8,7"
15034,commdev-image-keyboard-response,29,119535,practice,683,img/practice3_right.png,NA,Number not found in mappings,NA,TRUE,j,j,NA,NA,NA,2,6,"5,2,14,1,13,11,6,4,9,10,12,15,3,8,7"
15034,commdev-image-keyboard-response,30,120799,practice,630.4000000059605,img/practice1_right.png,NA,Number not found in mappings,NA,TRUE,j,j,NA,NA,NA,2,6,"5,2,14,1,13,11,6,4,9,10,12,15,3,8,7"
15034,commdev-image-keyboard-response,31,122060,practice,815.0999999940395,img/practice2_left.png,NA,Number not found in mappings,NA,TRUE,f,f,NA,NA,NA,2,6,"5,2,14,1,13,11,6,4,9,10,12,15,3,8,7"
15034,commdev-image-keyboard-response,32,123317,practice,615.5,img/practice4_left.png,NA,Number not found in mappings,NA,TRUE,f,f,NA,NA,NA,2,6,"5,2,14,1,13,11,6,4,9,10,12,15,3,8,7"
15034,commdev-image-keyboard-response,33,124578,practice,717.1999999880791,img/practice2_right.png,NA,Number not found in mappings,NA,TRUE,j,j,NA,NA,NA,2,6,"5,2,14,1,13,11,6,4,9,10,12,15,3,8,7"
15034,commdev-image-keyboard-response,34,125834,practice,667.7000000029802,img/practice1_left.png,NA,Number not found in mappings,NA,TRUE,f,f,NA,NA,NA,2,6,"5,2,14,1,13,11,6,4,9,10,12,15,3,8,7"
15034,commdev-instructions,35,136146,NA,756.4000000059605,"<p>Great job with the practice round.</p><p>During real missions, you won't know whether you pressed the right or wrong key for each planet.</p><p>But between missions, we will tell you how you did overall.</p>",NA,NA,NA,NA,NA,NA,NA,NA,NA,2,6,"5,2,14,1,13,11,6,4,9,10,12,15,3,8,7"
15034,commdev-instructions,36,144979,NA,588.9000000059605,<p>Try your best! You will be paid a bonus based on how many correct responses you make!</p><p>Responses that are too slow will not count toward your bonus.</p>,NA,NA,NA,NA,NA,NA,NA,NA,NA,2,6,"5,2,14,1,13,11,6,4,9,10,12,15,3,8,7"
15034,commdev-instructions,37,151660,NA,479.30000001192093,"<p>You are almost ready to start the real game.</p><p> First, we are going to ask you some questions about how the game works.</p>",NA,NA,NA,NA,NA,NA,NA,NA,NA,2,6,"5,2,14,1,13,11,6,4,9,10,12,15,3,8,7"
15034,commdev-instructions,46,228526,NA,835.6000000089407,"<p> Nice work! It is now time to start the real game.<p></p>You will go on two missions to record wind directions of different planets.<p></p>Each one will take about 5 minutes. You will get to take a break between missions.<p><p> Remember, press <strong>F</strong> or <strong>J</strong> depending on the wind direction. Good luck!<br><img src=""img/categorize_planet_example.png""",NA,NA,NA,NA,NA,NA,NA,NA,NA,2,6,"5,2,14,1,13,11,6,4,9,10,12,15,3,8,7"
15034,commdev-image-keyboard-response,48,232450,learnblock1,1059.8999999910593,img/planet13_right.png,13,Community 1,NA,TRUE,j,j,NA,NA,NA,2,6,"5,2,14,1,13,11,6,4,9,10,12,15,3,8,7"
15034,commdev-image-keyboard-response,49,233711,learnblock1,894.2999999970198,img/planet14_left.png,14,Community 1,NA,TRUE,f,f,NA,NA,NA,2,6,"5,2,14,1,13,11,6,4,9,10,12,15,3,8,7"
15034,commdev-image-keyboard-response,50,234967,learnblock1,689.0999999940395,img/planet13_right.png,13,Community 1,NA,TRUE,j,j,NA,NA,NA,2,6,"5,2,14,1,13,11,6,4,9,10,12,15,3,8,7"
15034,commdev-image-keyboard-response,51,236230,learnblock1,1012.0999999940395,img/planet14_left.png,14,Community 1,NA,TRUE,f,f,NA,NA,NA,2,6,"5,2,14,1,13,11,6,4,9,10,12,15,3,8,7"
15034,commdev-image-keyboard-response,52,237491,learnblock1,944.4000000059605,img/planet13_left.png,13,Community 1,NA,TRUE,f,f,NA,NA,NA,2,6,"5,2,14,1,13,11,6,4,9,10,12,15,3,8,7"
15034,commdev-image-keyboard-response,53,238747,learnblock1,668.8999999910593,img/planet5_left.png,5,Community 1,NA,TRUE,f,f,NA,NA,NA,2,6,"5,2,14,1,13,11,6,4,9,10,12,15,3,8,7"
15034,commdev-image-keyboard-response,54,240004,learnblock1,596.0999999940395,img/planet1_left.png,1,Community 1,NA,TRUE,f,f,NA,NA,NA,2,6,"5,2,14,1,13,11,6,4,9,10,12,15,3,8,7"
15034,commdev-image-keyboard-response,55,241261,learnblock1,679.1000000089407,img/planet11_left.png,11,Community 2,NA,TRUE,f,f,NA,NA,NA,2,6,"5,2,14,1,13,11,6,4,9,10,12,15,3,8,7"
15034,commdev-image-keyboard-response,56,242526,learnblock1,634.9000000059605,img/planet10_right.png,10,Community 2,NA,TRUE,j,j,NA,NA,NA,2,6,"5,2,14,1,13,11,6,4,9,10,12,15,3,8,7"
15034,commdev-image-keyboard-response,57,243787,learnblock1,778.0999999940395,img/planet6_right.png,6,Community 2,NA,TRUE,j,j,NA,NA,NA,2,6,"5,2,14,1,13,11,6,4,9,10,12,15,3,8,7"
15034,commdev-image-keyboard-response,58,245047,learnblock1,616,img/planet4_left.png,4,Community 2,NA,TRUE,f,f,NA,NA,NA,2,6,"5,2,14,1,13,11,6,4,9,10,12,15,3,8,7"
15034,commdev-image-keyboard-response,59,246316,learnblock1,831.8999999910593,img/planet9_left.png,9,Community 2,NA,TRUE,f,f,NA,NA,NA,2,6,"5,2,14,1,13,11,6,4,9,10,12,15,3,8,7"
15034,commdev-image-keyboard-response,60,247571,learnblock1,701.0999999940395,img/planet11_left.png,11,Community 2,NA,TRUE,f,f,NA,NA,NA,2,6,"5,2,14,1,13,11,6,4,9,10,12,15,3,8,7"
15034,commdev-image-keyboard-response,61,248831,learnblock1,638.3999999910593,img/planet9_left.png,9,Community 2,NA,TRUE,f,f,NA,NA,NA,2,6,"5,2,14,1,13,11,6,4,9,10,12,15,3,8,7"
15034,commdev-image-keyboard-response,62,250093,learnblock1,642.5999999940395,img/planet11_right.png,11,Community 2,NA,TRUE,j,j,NA,NA,NA,2,6,"5,2,14,1,13,11,6,4,9,10,12,15,3,8,7"
15034,commdev-image-keyboard-response,63,251345,learnblock1,1144.7999999970198,img/planet1_left.png,1,Community 1,NA,TRUE,f,f,NA,NA,NA,2,6,"5,2,14,1,13,11,6,4,9,10,12,15,3,8,7"
15034,commdev-image-keyboard-response,64,252610,learnblock1,696.2000000029802,img/planet5_left.png,5,Community 1,NA,TRUE,f,f,NA,NA,NA,2,6,"5,2,14,1,13,11,6,4,9,10,12,15,3,8,7"
15034,commdev-image-keyboard-response,65,253874,learnblock1,539.7999999970198,img/planet13_left.png,13,Community 1,NA,TRUE,f,f,NA,NA,NA,2,6,"5,2,14,1,13,11,6,4,9,10,12,15,3,8,7"
15034,commdev-image-keyboard-response,66,255135,learnblock1,581.3999999910593,img/planet5_left.png,5,Community 1,NA,TRUE,f,f,NA,NA,NA,2,6,"5,2,14,1,13,11,6,4,9,10,12,15,3,8,7"
15034,commdev-image-keyboard-response,67,256391,learnblock1,551.2999999970198,img/planet13_right.png,13,Community 1,NA,TRUE,j,j,NA,NA,NA,2,6,"5,2,14,1,13,11,6,4,9,10,12,15,3,8,7"
15034,commdev-image-keyboard-response,68,257650,learnblock1,691.7999999970198,img/planet5_right.png,5,Community 1,NA,TRUE,j,j,NA,NA,NA,2,6,"5,2,14,1,13,11,6,4,9,10,12,15,3,8,7"
15034,commdev-image-keyboard-response,69,258902,learnblock1,713.8999999910593,img/planet1_right.png,1,Community 1,NA,TRUE,j,j,NA,NA,NA,2,6,"5,2,14,1,13,11,6,4,9,10,12,15,3,8,7"
15034,commdev-image-keyboard-response,70,260154,learnblock1,653.2999999970198,img/planet5_left.png,5,Community 1,NA,TRUE,f,f,NA,NA,NA,2,6,"5,2,14,1,13,11,6,4,9,10,12,15,3,8,7"
15034,commdev-image-keyboard-response,71,261405,learnblock1,715.3999999910593,img/planet13_right.png,13,Community 1,NA,TRUE,j,j,NA,NA,NA,2,6,"5,2,14,1,13,11,6,4,9,10,12,15,3,8,7"
15034,commdev-image-keyboard-response,72,262658,learnblock1,1007.4000000059605,img/planet12_left.png,12,Community 3,NA,TRUE,f,f,NA,NA,NA,2,6,"5,2,14,1,13,11,6,4,9,10,12,15,3,8,7"
15034,commdev-image-keyboard-response,73,263911,learnblock1,687.5999999940395,img/planet7_right.png,7,Community 3,NA,TRUE,j,j,NA,NA,NA,2,6,"5,2,14,1,13,11,6,4,9,10,12,15,3,8,7"
15034,commdev-image-keyboard-response,74,265163,learnblock1,967.5,img/planet3_right.png,3,Community 3,NA,TRUE,j,j,NA,NA,NA,2,6,"5,2,14,1,13,11,6,4,9,10,12,15,3,8,7"
15034,commdev-image-keyboard-response,75,266415,learnblock1,598.7999999970198,img/planet7_right.png,7,Community 3,NA,TRUE,j,j,NA,NA,NA,2,6,"5,2,14,1,13,11,6,4,9,10,12,15,3,8,7"
15034,commdev-image-keyboard-response,76,267671,learnblock1,642.8999999910593,img/planet3_left.png,3,Community 3,NA,TRUE,f,f,NA,NA,NA,2,6,"5,2,14,1,13,11,6,4,9,10,12,15,3,8,7"
15034,commdev-image-keyboard-response,77,268925,learnblock1,862.8999999910593,img/planet8_right.png,8,Community 3,NA,TRUE,j,j,NA,NA,NA,2,6,"5,2,14,1,13,11,6,4,9,10,12,15,3,8,7"
15034,commdev-image-keyboard-response,78,270178,learnblock1,830.2000000029802,img/planet15_left.png,15,Community 3,NA,TRUE,f,f,NA,NA,NA,2,6,"5,2,14,1,13,11,6,4,9,10,12,15,3,8,7"
15034,commdev-image-keyboard-response,79,271431,learnblock1,644.3000000119209,img/planet7_right.png,7,Community 3,NA,TRUE,j,j,NA,NA,NA,2,6,"5,2,14,1,13,11,6,4,9,10,12,15,3,8,7"
15034,commdev-image-keyboard-response,80,272684,learnblock1,657.6000000089407,img/planet3_left.png,3,Community 3,NA,TRUE,f,f,NA,NA,NA,2,6,"5,2,14,1,13,11,6,4,9,10,12,15,3,8,7"
15034,commdev-image-keyboard-response,81,273936,learnblock1,527.9000000059605,img/planet7_right.png,7,Community 3,NA,TRUE,j,j,NA,NA,NA,2,6,"5,2,14,1,13,11,6,4,9,10,12,15,3,8,7"
15034,commdev-image-keyboard-response,82,275189,learnblock1,737,img/planet8_right.png,8,Community 3,NA,TRUE,j,j,NA,NA,NA,2,6,"5,2,14,1,13,11,6,4,9,10,12,15,3,8,7"
15034,commdev-image-keyboard-response,83,276441,learnblock1,981.2999999970198,img/planet3_left.png,3,Community 3,NA,TRUE,f,f,NA,NA,NA,2,6,"5,2,14,1,13,11,6,4,9,10,12,15,3,8,7"
15034,commdev-image-keyboard-response,84,277694,learnblock1,709.0999999940395,img/planet15_right.png,15,Community 3,NA,TRUE,j,j,NA,NA,NA,2,6,"5,2,14,1,13,11,6,4,9,10,12,15,3,8,7"
15034,commdev-image-keyboard-response,85,278945,learnblock1,611.3000000119209,img/planet4_right.png,4,Community 2,NA,TRUE,j,j,NA,NA,NA,2,6,"5,2,14,1,13,11,6,4,9,10,12,15,3,8,7"
15034,commdev-image-keyboard-response,86,280197,learnblock1,721.7999999970198,img/planet9_left.png,9,Community 2,NA,TRUE,f,f,NA,NA,NA,2,6,"5,2,14,1,13,11,6,4,9,10,12,15,3,8,7"
15034,commdev-image-keyboard-response,87,281450,learnblock1,718.6000000089407,img/planet4_right.png,4,Community 2,NA,TRUE,j,j,NA,NA,NA,2,6,"5,2,14,1,13,11,6,4,9,10,12,15,3,8,7"
15034,commdev-image-keyboard-response,88,282703,learnblock1,857.9000000059605,img/planet9_left.png,9,Community 2,NA,FALSE,j,f,NA,NA,NA,2,6,"5,2,14,1,13,11,6,4,9,10,12,15,3,8,7"
15034,commdev-image-keyboard-response,89,283955,learnblock1,1031.0999999940395,img/planet4_right.png,4,Community 2,NA,TRUE,j,j,NA,NA,NA,2,6,"5,2,14,1,13,11,6,4,9,10,12,15,3,8,7"
15034,commdev-image-keyboard-response,90,285208,learnblock1,722.3999999910593,img/planet6_left.png,6,Community 2,NA,TRUE,f,f,NA,NA,NA,2,6,"5,2,14,1,13,11,6,4,9,10,12,15,3,8,7"
15034,commdev-image-keyboard-response,91,286460,learnblock1,962.9000000059605,img/planet10_right.png,10,Community 2,NA,TRUE,j,j,NA,NA,NA,2,6,"5,2,14,1,13,11,6,4,9,10,12,15,3,8,7"
15034,commdev-image-keyboard-response,92,287712,learnblock1,836.5,img/planet4_left.png,4,Community 2,NA,TRUE,f,f,NA,NA,NA,2,6,"5,2,14,1,13,11,6,4,9,10,12,15,3,8,7"
15034,commdev-image-keyboard-response,93,288966,learnblock1,742.3000000119209,img/planet15_right.png,15,Community 3,NA,TRUE,j,j,NA,NA,NA,2,6,"5,2,14,1,13,11,6,4,9,10,12,15,3,8,7"
15034,commdev-image-keyboard-response,94,290218,learnblock1,925.0999999940395,img/planet7_right.png,7,Community 3,NA,TRUE,j,j,NA,NA,NA,2,6,"5,2,14,1,13,11,6,4,9,10,12,15,3,8,7"
15034,commdev-image-keyboard-response,95,291471,learnblock1,728.8000000119209,img/planet8_right.png,8,Community 3,NA,TRUE,j,j,NA,NA,NA,2,6,"5,2,14,1,13,11,6,4,9,10,12,15,3,8,7"
15034,commdev-image-keyboard-response,96,292723,learnblock1,675.2999999970198,img/planet7_right.png,7,Community 3,NA,TRUE,j,j,NA,NA,NA,2,6,"5,2,14,1,13,11,6,4,9,10,12,15,3,8,7"
15034,commdev-image-keyboard-response,97,293975,learnblock1,755.1000000089407,img/planet12_left.png,12,Community 3,NA,TRUE,f,f,NA,NA,NA,2,6,"5,2,14,1,13,11,6,4,9,10,12,15,3,8,7"
15034,commdev-image-keyboard-response,98,295228,learnblock1,935.7000000029802,img/planet7_right.png,7,Community 3,NA,TRUE,j,j,NA,NA,NA,2,6,"5,2,14,1,13,11,6,4,9,10,12,15,3,8,7"
15034,commdev-image-keyboard-response,99,296480,learnblock1,942.5999999940395,img/planet8_left.png,8,Community 3,NA,TRUE,f,f,NA,NA,NA,2,6,"5,2,14,1,13,11,6,4,9,10,12,15,3,8,7"
15034,commdev-image-keyboard-response,100,297732,learnblock1,null,img/planet15_left.png,15,Community 3,NA,FALSE,null,f,NA,NA,NA,2,6,"5,2,14,1,13,11,6,4,9,10,12,15,3,8,7"
15034,commdev-image-keyboard-response,101,298984,learnblock1,197.40000000596046,img/planet3_left.png,3,Community 3,NA,TRUE,f,f,NA,NA,NA,2,6,"5,2,14,1,13,11,6,4,9,10,12,15,3,8,7"
15034,commdev-image-keyboard-response,102,300238,learnblock1,643.5,img/planet7_right.png,7,Community 3,NA,TRUE,j,j,NA,NA,NA,2,6,"5,2,14,1,13,11,6,4,9,10,12,15,3,8,7"
15034,commdev-image-keyboard-response,103,301491,learnblock1,715.1999999880791,img/planet15_left.png,15,Community 3,NA,TRUE,f,f,NA,NA,NA,2,6,"5,2,14,1,13,11,6,4,9,10,12,15,3,8,7"
15034,commdev-image-keyboard-response,104,302744,learnblock1,869.8000000119209,img/planet7_left.png,7,Community 3,NA,TRUE,f,f,NA,NA,NA,2,6,"5,2,14,1,13,11,6,4,9,10,12,15,3,8,7"
15034,commdev-image-keyboard-response,105,303996,learnblock1,702.5,img/planet12_right.png,12,Community 3,NA,TRUE,j,j,NA,NA,NA,2,6,"5,2,14,1,13,11,6,4,9,10,12,15,3,8,7"
15034,commdev-image-keyboard-response,106,305248,learnblock1,726.5,img/planet7_right.png,7,Community 3,NA,TRUE,j,j,NA,NA,NA,2,6,"5,2,14,1,13,11,6,4,9,10,12,15,3,8,7"
15034,commdev-image-keyboard-response,107,306519,learnblock1,851.2000000029802,img/planet15_right.png,15,Community 3,NA,TRUE,j,j,NA,NA,NA,2,6,"5,2,14,1,13,11,6,4,9,10,12,15,3,8,7"
15034,commdev-image-keyboard-response,108,307771,learnblock1,682.0999999940395,img/planet8_left.png,8,Community 3,NA,TRUE,f,f,NA,NA,NA,2,6,"5,2,14,1,13,11,6,4,9,10,12,15,3,8,7"
15034,commdev-image-keyboard-response,109,309023,learnblock1,691.2999999970198,img/planet12_right.png,12,Community 3,NA,TRUE,j,j,NA,NA,NA,2,6,"5,2,14,1,13,11,6,4,9,10,12,15,3,8,7"
15034,commdev-image-keyboard-response,110,310275,learnblock1,1052.7000000029802,img/planet13_left.png,13,Community 1,NA,TRUE,f,f,NA,NA,NA,2,6,"5,2,14,1,13,11,6,4,9,10,12,15,3,8,7"
15034,commdev-image-keyboard-response,111,311527,learnblock1,889.1999999880791,img/planet5_left.png,5,Community 1,NA,TRUE,f,f,NA,NA,NA,2,6,"5,2,14,1,13,11,6,4,9,10,12,15,3,8,7"
15034,commdev-image-keyboard-response,112,312779,learnblock1,761.7000000029802,img/planet1_left.png,1,Community 1,NA,TRUE,f,f,NA,NA,NA,2,6,"5,2,14,1,13,11,6,4,9,10,12,15,3,8,7"
15034,commdev-image-keyboard-response,113,314033,learnblock1,760.4000000059605,img/planet11_left.png,11,Community 2,NA,TRUE,f,f,NA,NA,NA,2,6,"5,2,14,1,13,11,6,4,9,10,12,15,3,8,7"
15034,commdev-image-keyboard-response,114,315285,learnblock1,615.7999999970198,img/planet1_right.png,1,Community 1,NA,TRUE,j,j,NA,NA,NA,2,6,"5,2,14,1,13,11,6,4,9,10,12,15,3,8,7"
15034,commdev-image-keyboard-response,115,316538,learnblock1,642.5,img/planet11_left.png,11,Community 2,NA,TRUE,f,f,NA,NA,NA,2,6,"5,2,14,1,13,11,6,4,9,10,12,15,3,8,7"
15034,commdev-image-keyboard-response,116,317791,learnblock1,930.5,img/planet1_left.png,1,Community 1,NA,TRUE,f,f,NA,NA,NA,2,6,"5,2,14,1,13,11,6,4,9,10,12,15,3,8,7"
15034,commdev-image-keyboard-response,117,319043,learnblock1,836.0999999940395,img/planet11_left.png,11,Community 2,NA,TRUE,f,f,NA,NA,NA,2,6,"5,2,14,1,13,11,6,4,9,10,12,15,3,8,7"
15034,commdev-image-keyboard-response,118,320295,learnblock1,699.7999999970198,img/planet10_right.png,10,Community 2,NA,TRUE,j,j,NA,NA,NA,2,6,"5,2,14,1,13,11,6,4,9,10,12,15,3,8,7"
15034,commdev-image-keyboard-response,119,321549,learnblock1,680.2999999970198,img/planet4_left.png,4,Community 2,NA,TRUE,f,f,NA,NA,NA,2,6,"5,2,14,1,13,11,6,4,9,10,12,15,3,8,7"
15034,commdev-image-keyboard-response,120,322804,learnblock1,614.7000000029802,img/planet9_right.png,9,Community 2,NA,TRUE,j,j,NA,NA,NA,2,6,"5,2,14,1,13,11,6,4,9,10,12,15,3,8,7"
15034,commdev-image-keyboard-response,121,324056,learnblock1,602.6000000089407,img/planet4_right.png,4,Community 2,NA,TRUE,j,j,NA,NA,NA,2,6,"5,2,14,1,13,11,6,4,9,10,12,15,3,8,7"
15034,commdev-image-keyboard-response,122,325308,learnblock1,645.9000000059605,img/planet6_left.png,6,Community 2,NA,TRUE,f,f,NA,NA,NA,2,6,"5,2,14,1,13,11,6,4,9,10,12,15,3,8,7"
15034,commdev-image-keyboard-response,123,326560,learnblock1,778.8999999910593,img/planet4_left.png,4,Community 2,NA,TRUE,f,f,NA,NA,NA,2,6,"5,2,14,1,13,11,6,4,9,10,12,15,3,8,7"
15034,commdev-image-keyboard-response,124,327813,learnblock1,691.0999999940395,img/planet6_right.png,6,Community 2,NA,TRUE,j,j,NA,NA,NA,2,6,"5,2,14,1,13,11,6,4,9,10,12,15,3,8,7"
15034,commdev-image-keyboard-response,125,329065,learnblock1,937.8000000119209,img/planet9_left.png,9,Community 2,NA,TRUE,f,f,NA,NA,NA,2,6,"5,2,14,1,13,11,6,4,9,10,12,15,3,8,7"
15034,commdev-image-keyboard-response,126,330318,learnblock1,734.5,img/planet6_right.png,6,Community 2,NA,TRUE,j,j,NA,NA,NA,2,6,"5,2,14,1,13,11,6,4,9,10,12,15,3,8,7"
15034,commdev-image-keyboard-response,127,331570,learnblock1,1039.2000000029802,img/planet10_left.png,10,Community 2,NA,TRUE,f,f,NA,NA,NA,2,6,"5,2,14,1,13,11,6,4,9,10,12,15,3,8,7"
15034,commdev-image-keyboard-response,128,332823,learnblock1,1230.7000000029802,img/planet9_right.png,9,Community 2,NA,TRUE,j,j,NA,NA,NA,2,6,"5,2,14,1,13,11,6,4,9,10,12,15,3,8,7"
15034,commdev-image-keyboard-response,129,334076,learnblock1,732.5,img/planet6_right.png,6,Community 2,NA,TRUE,j,j,NA,NA,NA,2,6,"5,2,14,1,13,11,6,4,9,10,12,15,3,8,7"
15034,commdev-image-keyboard-response,130,335329,learnblock1,615.2000000029802,img/planet4_left.png,4,Community 2,NA,TRUE,f,f,NA,NA,NA,2,6,"5,2,14,1,13,11,6,4,9,10,12,15,3,8,7"
15034,commdev-image-keyboard-response,131,336581,learnblock1,861.1999999880791,img/planet6_right.png,6,Community 2,NA,TRUE,j,j,NA,NA,NA,2,6,"5,2,14,1,13,11,6,4,9,10,12,15,3,8,7"
15034,commdev-image-keyboard-response,132,337834,learnblock1,881.9000000059605,img/planet4_left.png,4,Community 2,NA,TRUE,f,f,NA,NA,NA,2,6,"5,2,14,1,13,11,6,4,9,10,12,15,3,8,7"
15034,commdev-image-keyboard-response,133,339086,learnblock1,null,img/planet9_left.png,9,Community 2,NA,FALSE,null,f,NA,NA,NA,2,6,"5,2,14,1,13,11,6,4,9,10,12,15,3,8,7"
15034,commdev-image-keyboard-response,134,340338,learnblock1,103.5,img/planet11_right.png,11,Community 2,NA,FALSE,f,j,NA,NA,NA,2,6,"5,2,14,1,13,11,6,4,9,10,12,15,3,8,7"
15034,commdev-image-keyboard-response,135,341590,learnblock1,812.7000000029802,img/planet9_left.png,9,Community 2,NA,TRUE,f,f,NA,NA,NA,2,6,"5,2,14,1,13,11,6,4,9,10,12,15,3,8,7"
15034,commdev-image-keyboard-response,136,342841,learnblock1,783.3999999910593,img/planet11_left.png,11,Community 2,NA,TRUE,f,f,NA,NA,NA,2,6,"5,2,14,1,13,11,6,4,9,10,12,15,3,8,7"
15034,commdev-image-keyboard-response,137,344093,learnblock1,543.7000000029802,img/planet1_left.png,1,Community 1,NA,TRUE,f,f,NA,NA,NA,2,6,"5,2,14,1,13,11,6,4,9,10,12,15,3,8,7"
15034,commdev-image-keyboard-response,138,345345,learnblock1,544.7999999970198,img/planet5_right.png,5,Community 1,NA,TRUE,j,j,NA,NA,NA,2,6,"5,2,14,1,13,11,6,4,9,10,12,15,3,8,7"
15034,commdev-image-keyboard-response,139,346611,learnblock1,624.6000000089407,img/planet13_left.png,13,Community 1,NA,TRUE,f,f,NA,NA,NA,2,6,"5,2,14,1,13,11,6,4,9,10,12,15,3,8,7"
15034,commdev-image-keyboard-response,140,347874,learnblock1,849.4000000059605,img/planet14_left.png,14,Community 1,NA,TRUE,f,f,NA,NA,NA,2,6,"5,2,14,1,13,11,6,4,9,10,12,15,3,8,7"
15034,commdev-image-keyboard-response,141,349125,learnblock1,823.7000000029802,img/planet2_left.png,2,Community 1,NA,TRUE,f,f,NA,NA,NA,2,6,"5,2,14,1,13,11,6,4,9,10,12,15,3,8,7"
15034,commdev-image-keyboard-response,142,350378,learnblock1,835.7999999970198,img/planet14_left.png,14,Community 1,NA,TRUE,f,f,NA,NA,NA,2,6,"5,2,14,1,13,11,6,4,9,10,12,15,3,8,7"
15034,commdev-image-keyboard-response,143,351630,learnblock1,589.6000000089407,img/planet13_left.png,13,Community 1,NA,TRUE,f,f,NA,NA,NA,2,6,"5,2,14,1,13,11,6,4,9,10,12,15,3,8,7"
15034,commdev-image-keyboard-response,144,352883,learnblock1,755.2999999970198,img/planet12_right.png,12,Community 3,NA,TRUE,j,j,NA,NA,NA,2,6,"5,2,14,1,13,11,6,4,9,10,12,15,3,8,7"
15034,commdev-image-keyboard-response,145,354136,learnblock1,840.8000000119209,img/planet3_right.png,3,Community 3,NA,TRUE,j,j,NA,NA,NA,2,6,"5,2,14,1,13,11,6,4,9,10,12,15,3,8,7"
15034,commdev-image-keyboard-response,146,355389,learnblock1,783.8999999910593,img/planet7_left.png,7,Community 3,NA,TRUE,f,f,NA,NA,NA,2,6,"5,2,14,1,13,11,6,4,9,10,12,15,3,8,7"
15034,commdev-image-keyboard-response,147,356642,learnblock1,1002.3999999910593,img/planet15_right.png,15,Community 3,NA,TRUE,j,j,NA,NA,NA,2,6,"5,2,14,1,13,11,6,4,9,10,12,15,3,8,7"
15034,commdev-image-keyboard-response,148,357894,learnblock1,724.3999999910593,img/planet3_left.png,3,Community 3,NA,TRUE,f,f,NA,NA,NA,2,6,"5,2,14,1,13,11,6,4,9,10,12,15,3,8,7"
15034,commdev-image-keyboard-response,149,359146,learnblock1,943.3999999910593,img/planet7_left.png,7,Community 3,NA,TRUE,f,f,NA,NA,NA,2,6,"5,2,14,1,13,11,6,4,9,10,12,15,3,8,7"
15034,commdev-image-keyboard-response,150,360399,learnblock1,924.7999999970198,img/planet12_left.png,12,Community 3,NA,TRUE,f,f,NA,NA,NA,2,6,"5,2,14,1,13,11,6,4,9,10,12,15,3,8,7"
15034,commdev-image-keyboard-response,151,361651,learnblock1,906.1000000089407,img/planet3_right.png,3,Community 3,NA,TRUE,j,j,NA,NA,NA,2,6,"5,2,14,1,13,11,6,4,9,10,12,15,3,8,7"
15034,commdev-image-keyboard-response,152,362904,learnblock1,675.3000000119209,img/planet15_left.png,15,Community 3,NA,TRUE,f,f,NA,NA,NA,2,6,"5,2,14,1,13,11,6,4,9,10,12,15,3,8,7"
15034,commdev-image-keyboard-response,153,364155,learnblock1,905.3999999910593,img/planet8_left.png,8,Community 3,NA,TRUE,f,f,NA,NA,NA,2,6,"5,2,14,1,13,11,6,4,9,10,12,15,3,8,7"
15034,commdev-image-keyboard-response,154,365421,learnblock1,853.8999999910593,img/planet7_left.png,7,Community 3,NA,TRUE,f,f,NA,NA,NA,2,6,"5,2,14,1,13,11,6,4,9,10,12,15,3,8,7"
15034,commdev-image-keyboard-response,155,366685,learnblock1,768.5,img/planet15_left.png,15,Community 3,NA,TRUE,f,f,NA,NA,NA,2,6,"5,2,14,1,13,11,6,4,9,10,12,15,3,8,7"
15034,commdev-image-keyboard-response,156,367937,learnblock1,802,img/planet3_left.png,3,Community 3,NA,TRUE,f,f,NA,NA,NA,2,6,"5,2,14,1,13,11,6,4,9,10,12,15,3,8,7"
15034,commdev-image-keyboard-response,157,369189,learnblock1,1245.8999999910593,img/planet8_left.png,8,Community 3,NA,TRUE,f,f,NA,NA,NA,2,6,"5,2,14,1,13,11,6,4,9,10,12,15,3,8,7"
15034,commdev-image-keyboard-response,158,370454,learnblock1,669.7000000029802,img/planet15_left.png,15,Community 3,NA,TRUE,f,f,NA,NA,NA,2,6,"5,2,14,1,13,11,6,4,9,10,12,15,3,8,7"
15034,commdev-image-keyboard-response,159,371708,learnblock1,626.7999999970198,img/planet7_left.png,7,Community 3,NA,TRUE,f,f,NA,NA,NA,2,6,"5,2,14,1,13,11,6,4,9,10,12,15,3,8,7"
15034,commdev-image-keyboard-response,160,372959,learnblock1,474.5,img/planet15_right.png,15,Community 3,NA,FALSE,f,j,NA,NA,NA,2,6,"5,2,14,1,13,11,6,4,9,10,12,15,3,8,7"
15034,commdev-image-keyboard-response,161,374213,learnblock1,811.5,img/planet8_right.png,8,Community 3,NA,TRUE,j,j,NA,NA,NA,2,6,"5,2,14,1,13,11,6,4,9,10,12,15,3,8,7"
15034,commdev-image-keyboard-response,162,375464,learnblock1,734.5,img/planet7_left.png,7,Community 3,NA,TRUE,f,f,NA,NA,NA,2,6,"5,2,14,1,13,11,6,4,9,10,12,15,3,8,7"
15034,commdev-image-keyboard-response,163,376717,learnblock1,686,img/planet3_left.png,3,Community 3,NA,TRUE,f,f,NA,NA,NA,2,6,"5,2,14,1,13,11,6,4,9,10,12,15,3,8,7"
15034,commdev-image-keyboard-response,164,377968,learnblock1,609.2999999970198,img/planet7_right.png,7,Community 3,NA,TRUE,j,j,NA,NA,NA,2,6,"5,2,14,1,13,11,6,4,9,10,12,15,3,8,7"
15034,commdev-image-keyboard-response,165,379220,learnblock1,759.5,img/planet3_right.png,3,Community 3,NA,TRUE,j,j,NA,NA,NA,2,6,"5,2,14,1,13,11,6,4,9,10,12,15,3,8,7"
15034,commdev-image-keyboard-response,166,380474,learnblock1,753.5,img/planet15_left.png,15,Community 3,NA,TRUE,f,f,NA,NA,NA,2,6,"5,2,14,1,13,11,6,4,9,10,12,15,3,8,7"
15034,commdev-image-keyboard-response,167,381726,learnblock1,828.5,img/planet3_left.png,3,Community 3,NA,TRUE,f,f,NA,NA,NA,2,6,"5,2,14,1,13,11,6,4,9,10,12,15,3,8,7"
15034,commdev-image-keyboard-response,168,382979,learnblock1,1031.199999988079,img/planet12_right.png,12,Community 3,NA,TRUE,j,j,NA,NA,NA,2,6,"5,2,14,1,13,11,6,4,9,10,12,15,3,8,7"
15034,commdev-image-keyboard-response,169,384231,learnblock1,737.2999999970198,img/planet13_left.png,13,Community 1,NA,TRUE,f,f,NA,NA,NA,2,6,"5,2,14,1,13,11,6,4,9,10,12,15,3,8,7"
15034,commdev-image-keyboard-response,170,385483,learnblock1,null,img/planet2_left.png,2,Community 1,NA,FALSE,null,f,NA,NA,NA,2,6,"5,2,14,1,13,11,6,4,9,10,12,15,3,8,7"
15034,commdev-image-keyboard-response,171,386737,learnblock1,126.80000001192093,img/planet13_left.png,13,Community 1,NA,TRUE,f,f,NA,NA,NA,2,6,"5,2,14,1,13,11,6,4,9,10,12,15,3,8,7"
15034,commdev-image-keyboard-response,172,388003,learnblock1,114.30000001192093,img/planet2_left.png,2,Community 1,NA,TRUE,f,f,NA,NA,NA,2,6,"5,2,14,1,13,11,6,4,9,10,12,15,3,8,7"
15034,commdev-image-keyboard-response,173,389255,learnblock1,139,img/planet14_right.png,14,Community 1,NA,FALSE,f,j,NA,NA,NA,2,6,"5,2,14,1,13,11,6,4,9,10,12,15,3,8,7"
15034,commdev-image-keyboard-response,174,390509,learnblock1,72.90000000596046,img/planet13_right.png,13,Community 1,NA,TRUE,j,j,NA,NA,NA,2,6,"5,2,14,1,13,11,6,4,9,10,12,15,3,8,7"
15034,commdev-image-keyboard-response,175,391761,learnblock1,584.7999999970198,img/planet5_right.png,5,Community 1,NA,TRUE,j,j,NA,NA,NA,2,6,"5,2,14,1,13,11,6,4,9,10,12,15,3,8,7"
15034,commdev-image-keyboard-response,176,393013,learnblock1,608.3000000119209,img/planet13_left.png,13,Community 1,NA,TRUE,f,f,NA,NA,NA,2,6,"5,2,14,1,13,11,6,4,9,10,12,15,3,8,7"
15034,commdev-image-keyboard-response,177,394267,learnblock1,725.7999999970198,img/planet14_right.png,14,Community 1,NA,TRUE,j,j,NA,NA,NA,2,6,"5,2,14,1,13,11,6,4,9,10,12,15,3,8,7"
15034,commdev-image-keyboard-response,178,395519,learnblock1,616.8999999910593,img/planet13_right.png,13,Community 1,NA,TRUE,j,j,NA,NA,NA,2,6,"5,2,14,1,13,11,6,4,9,10,12,15,3,8,7"
15034,commdev-image-keyboard-response,179,396771,learnblock1,605.7000000029802,img/planet2_right.png,2,Community 1,NA,TRUE,j,j,NA,NA,NA,2,6,"5,2,14,1,13,11,6,4,9,10,12,15,3,8,7"
15034,commdev-image-keyboard-response,180,398024,learnblock1,717.4000000059605,img/planet14_left.png,14,Community 1,NA,TRUE,f,f,NA,NA,NA,2,6,"5,2,14,1,13,11,6,4,9,10,12,15,3,8,7"
15034,commdev-image-keyboard-response,181,399276,learnblock1,703.5999999940395,img/planet13_right.png,13,Community 1,NA,TRUE,j,j,NA,NA,NA,2,6,"5,2,14,1,13,11,6,4,9,10,12,15,3,8,7"
15034,commdev-image-keyboard-response,182,400528,learnblock1,679.5,img/planet12_right.png,12,Community 3,NA,TRUE,j,j,NA,NA,NA,2,6,"5,2,14,1,13,11,6,4,9,10,12,15,3,8,7"
15034,commdev-image-keyboard-response,183,401782,learnblock1,798.4000000059605,img/planet3_right.png,3,Community 3,NA,TRUE,j,j,NA,NA,NA,2,6,"5,2,14,1,13,11,6,4,9,10,12,15,3,8,7"
15034,commdev-image-keyboard-response,184,403034,learnblock1,708.1999999880791,img/planet8_right.png,8,Community 3,NA,TRUE,j,j,NA,NA,NA,2,6,"5,2,14,1,13,11,6,4,9,10,12,15,3,8,7"
15034,commdev-image-keyboard-response,185,404286,learnblock1,703.2000000029802,img/planet15_right.png,15,Community 3,NA,TRUE,j,j,NA,NA,NA,2,6,"5,2,14,1,13,11,6,4,9,10,12,15,3,8,7"
15034,commdev-image-keyboard-response,186,405539,learnblock1,701.7999999970198,img/planet3_left.png,3,Community 3,NA,TRUE,f,f,NA,NA,NA,2,6,"5,2,14,1,13,11,6,4,9,10,12,15,3,8,7"
15034,commdev-image-keyboard-response,187,406791,learnblock1,658.5,img/planet8_right.png,8,Community 3,NA,TRUE,j,j,NA,NA,NA,2,6,"5,2,14,1,13,11,6,4,9,10,12,15,3,8,7"
15034,commdev-image-keyboard-response,188,408043,learnblock1,1090.1000000089407,img/planet15_right.png,15,Community 3,NA,TRUE,j,j,NA,NA,NA,2,6,"5,2,14,1,13,11,6,4,9,10,12,15,3,8,7"
15034,commdev-image-keyboard-response,189,409309,learnblock1,895.3999999910593,img/planet8_right.png,8,Community 3,NA,TRUE,j,j,NA,NA,NA,2,6,"5,2,14,1,13,11,6,4,9,10,12,15,3,8,7"
15034,commdev-image-keyboard-response,190,410563,learnblock1,1003,img/planet7_left.png,7,Community 3,NA,TRUE,f,f,NA,NA,NA,2,6,"5,2,14,1,13,11,6,4,9,10,12,15,3,8,7"
15034,commdev-image-keyboard-response,191,411816,learnblock1,856.5999999940395,img/planet12_left.png,12,Community 3,NA,TRUE,f,f,NA,NA,NA,2,6,"5,2,14,1,13,11,6,4,9,10,12,15,3,8,7"
15034,commdev-image-keyboard-response,192,413069,learnblock1,null,img/planet8_left.png,8,Community 3,NA,FALSE,null,f,NA,NA,NA,2,6,"5,2,14,1,13,11,6,4,9,10,12,15,3,8,7"
15034,commdev-image-keyboard-response,193,414321,learnblock1,1207.9000000059605,img/planet7_left.png,7,Community 3,NA,TRUE,f,f,NA,NA,NA,2,6,"5,2,14,1,13,11,6,4,9,10,12,15,3,8,7"
15034,commdev-image-keyboard-response,194,415574,learnblock1,719.5,img/planet3_left.png,3,Community 3,NA,TRUE,f,f,NA,NA,NA,2,6,"5,2,14,1,13,11,6,4,9,10,12,15,3,8,7"
15034,commdev-image-keyboard-response,195,416827,learnblock1,701.7999999970198,img/planet12_left.png,12,Community 3,NA,TRUE,f,f,NA,NA,NA,2,6,"5,2,14,1,13,11,6,4,9,10,12,15,3,8,7"
15034,commdev-image-keyboard-response,196,418079,learnblock1,583,img/planet8_right.png,8,Community 3,NA,TRUE,j,j,NA,NA,NA,2,6,"5,2,14,1,13,11,6,4,9,10,12,15,3,8,7"
15034,commdev-image-keyboard-response,197,419334,learnblock1,676.5,img/planet3_right.png,3,Community 3,NA,TRUE,j,j,NA,NA,NA,2,6,"5,2,14,1,13,11,6,4,9,10,12,15,3,8,7"
15034,commdev-image-keyboard-response,198,420586,learnblock1,834,img/planet15_right.png,15,Community 3,NA,TRUE,j,j,NA,NA,NA,2,6,"5,2,14,1,13,11,6,4,9,10,12,15,3,8,7"
15034,commdev-image-keyboard-response,199,421837,learnblock1,817.2999999970198,img/planet4_left.png,4,Community 2,NA,TRUE,f,f,NA,NA,NA,2,6,"5,2,14,1,13,11,6,4,9,10,12,15,3,8,7"
15034,commdev-image-keyboard-response,200,423089,learnblock1,888.0999999940395,img/planet6_left.png,6,Community 2,NA,TRUE,f,f,NA,NA,NA,2,6,"5,2,14,1,13,11,6,4,9,10,12,15,3,8,7"
15034,commdev-image-keyboard-response,201,424342,learnblock1,null,img/planet4_left.png,4,Community 2,NA,FALSE,null,f,NA,NA,NA,2,6,"5,2,14,1,13,11,6,4,9,10,12,15,3,8,7"
15034,commdev-image-keyboard-response,202,425594,learnblock1,221.20000000298023,img/planet15_right.png,15,Community 3,NA,FALSE,f,j,NA,NA,NA,2,6,"5,2,14,1,13,11,6,4,9,10,12,15,3,8,7"
15034,commdev-image-keyboard-response,203,426847,learnblock1,653.7000000029802,img/planet8_right.png,8,Community 3,NA,TRUE,j,j,NA,NA,NA,2,6,"5,2,14,1,13,11,6,4,9,10,12,15,3,8,7"
15034,commdev-image-keyboard-response,204,428100,learnblock1,844.4000000059605,img/planet7_right.png,7,Community 3,NA,TRUE,j,j,NA,NA,NA,2,6,"5,2,14,1,13,11,6,4,9,10,12,15,3,8,7"
15034,commdev-image-keyboard-response,205,429353,learnblock1,783.5,img/planet8_right.png,8,Community 3,NA,TRUE,j,j,NA,NA,NA,2,6,"5,2,14,1,13,11,6,4,9,10,12,15,3,8,7"
15034,commdev-image-keyboard-response,206,430606,learnblock1,null,img/planet12_left.png,12,Community 3,NA,FALSE,null,f,NA,NA,NA,2,6,"5,2,14,1,13,11,6,4,9,10,12,15,3,8,7"
15034,commdev-image-keyboard-response,207,431859,learnblock1,1018.7999999970198,img/planet7_left.png,7,Community 3,NA,TRUE,f,f,NA,NA,NA,2,6,"5,2,14,1,13,11,6,4,9,10,12,15,3,8,7"
15034,commdev-image-keyboard-response,208,433111,learnblock1,495.40000000596046,img/planet15_right.png,15,Community 3,NA,TRUE,j,j,NA,NA,NA,2,6,"5,2,14,1,13,11,6,4,9,10,12,15,3,8,7"
15034,commdev-image-keyboard-response,209,434364,learnblock1,658.1999999880791,img/planet3_left.png,3,Community 3,NA,FALSE,j,f,NA,NA,NA,2,6,"5,2,14,1,13,11,6,4,9,10,12,15,3,8,7"
15034,commdev-image-keyboard-response,210,435618,learnblock1,623.2999999970198,img/planet8_right.png,8,Community 3,NA,TRUE,j,j,NA,NA,NA,2,6,"5,2,14,1,13,11,6,4,9,10,12,15,3,8,7"
15034,commdev-image-keyboard-response,211,436870,learnblock1,null,img/planet12_left.png,12,Community 3,NA,FALSE,null,f,NA,NA,NA,2,6,"5,2,14,1,13,11,6,4,9,10,12,15,3,8,7"
15034,commdev-image-keyboard-response,212,438122,learnblock1,797.1000000089407,img/planet13_left.png,13,Community 1,NA,TRUE,f,f,NA,NA,NA,2,6,"5,2,14,1,13,11,6,4,9,10,12,15,3,8,7"
15034,commdev-image-keyboard-response,213,439375,learnblock1,985.7999999970198,img/planet14_left.png,14,Community 1,NA,TRUE,f,f,NA,NA,NA,2,6,"5,2,14,1,13,11,6,4,9,10,12,15,3,8,7"
15034,commdev-image-keyboard-response,214,440628,learnblock1,738.2999999970198,img/planet1_right.png,1,Community 1,NA,TRUE,j,j,NA,NA,NA,2,6,"5,2,14,1,13,11,6,4,9,10,12,15,3,8,7"
15034,commdev-image-keyboard-response,215,441883,learnblock1,679.5,img/planet2_left.png,2,Community 1,NA,TRUE,f,f,NA,NA,NA,2,6,"5,2,14,1,13,11,6,4,9,10,12,15,3,8,7"
15034,commdev-image-keyboard-response,216,443136,learnblock1,1243.2999999970198,img/planet14_left.png,14,Community 1,NA,TRUE,f,f,NA,NA,NA,2,6,"5,2,14,1,13,11,6,4,9,10,12,15,3,8,7"
15034,commdev-image-keyboard-response,217,444391,learnblock1,null,img/planet1_left.png,1,Community 1,NA,FALSE,null,f,NA,NA,NA,2,6,"5,2,14,1,13,11,6,4,9,10,12,15,3,8,7"
15034,commdev-image-keyboard-response,218,445645,learnblock1,601.2000000029802,img/planet11_right.png,11,Community 2,NA,TRUE,j,j,NA,NA,NA,2,6,"5,2,14,1,13,11,6,4,9,10,12,15,3,8,7"
15034,commdev-image-keyboard-response,219,446898,learnblock1,847.2000000029802,img/planet1_right.png,1,Community 1,NA,TRUE,j,j,NA,NA,NA,2,6,"5,2,14,1,13,11,6,4,9,10,12,15,3,8,7"
15034,commdev-image-keyboard-response,220,448150,learnblock1,678.7000000029802,img/planet2_right.png,2,Community 1,NA,TRUE,j,j,NA,NA,NA,2,6,"5,2,14,1,13,11,6,4,9,10,12,15,3,8,7"
15034,commdev-image-keyboard-response,221,449402,learnblock1,611.6000000089407,img/planet14_right.png,14,Community 1,NA,TRUE,j,j,NA,NA,NA,2,6,"5,2,14,1,13,11,6,4,9,10,12,15,3,8,7"
15034,commdev-image-keyboard-response,222,450654,learnblock1,707.7000000029802,img/planet2_right.png,2,Community 1,NA,TRUE,j,j,NA,NA,NA,2,6,"5,2,14,1,13,11,6,4,9,10,12,15,3,8,7"
15034,commdev-image-keyboard-response,223,451907,learnblock1,619.7000000029802,img/planet5_left.png,5,Community 1,NA,TRUE,f,f,NA,NA,NA,2,6,"5,2,14,1,13,11,6,4,9,10,12,15,3,8,7"
15034,commdev-image-keyboard-response,224,453160,learnblock1,734.3999999910593,img/planet13_right.png,13,Community 1,NA,TRUE,j,j,NA,NA,NA,2,6,"5,2,14,1,13,11,6,4,9,10,12,15,3,8,7"
15034,commdev-image-keyboard-response,225,454411,learnblock1,706.5,img/planet14_left.png,14,Community 1,NA,TRUE,f,f,NA,NA,NA,2,6,"5,2,14,1,13,11,6,4,9,10,12,15,3,8,7"
15034,commdev-image-keyboard-response,226,455663,learnblock1,771.2999999970198,img/planet13_right.png,13,Community 1,NA,TRUE,j,j,NA,NA,NA,2,6,"5,2,14,1,13,11,6,4,9,10,12,15,3,8,7"
15034,commdev-image-keyboard-response,227,456915,learnblock1,785.2999999970198,img/planet14_left.png,14,Community 1,NA,TRUE,f,f,NA,NA,NA,2,6,"5,2,14,1,13,11,6,4,9,10,12,15,3,8,7"
15034,commdev-image-keyboard-response,228,458167,learnblock1,null,img/planet13_left.png,13,Community 1,NA,FALSE,null,f,NA,NA,NA,2,6,"5,2,14,1,13,11,6,4,9,10,12,15,3,8,7"
15034,commdev-image-keyboard-response,229,459419,learnblock1,null,img/planet12_right.png,12,Community 3,NA,FALSE,null,j,NA,NA,NA,2,6,"5,2,14,1,13,11,6,4,9,10,12,15,3,8,7"
15034,commdev-image-keyboard-response,230,460673,learnblock1,null,img/planet7_left.png,7,Community 3,NA,FALSE,null,f,NA,NA,NA,2,6,"5,2,14,1,13,11,6,4,9,10,12,15,3,8,7"
15034,commdev-image-keyboard-response,231,461925,learnblock1,627.9000000059605,img/planet3_right.png,3,Community 3,NA,TRUE,j,j,NA,NA,NA,2,6,"5,2,14,1,13,11,6,4,9,10,12,15,3,8,7"
15034,commdev-image-keyboard-response,232,463178,learnblock1,605.7999999970198,img/planet12_right.png,12,Community 3,NA,TRUE,j,j,NA,NA,NA,2,6,"5,2,14,1,13,11,6,4,9,10,12,15,3,8,7"
15034,commdev-image-keyboard-response,233,464430,learnblock1,621.0999999940395,img/planet8_right.png,8,Community 3,NA,TRUE,j,j,NA,NA,NA,2,6,"5,2,14,1,13,11,6,4,9,10,12,15,3,8,7"
15034,commdev-image-keyboard-response,234,465682,learnblock1,660.2000000029802,img/planet12_right.png,12,Community 3,NA,TRUE,j,j,NA,NA,NA,2,6,"5,2,14,1,13,11,6,4,9,10,12,15,3,8,7"
15034,commdev-image-keyboard-response,235,466936,learnblock1,781.7000000029802,img/planet13_left.png,13,Community 1,NA,TRUE,f,f,NA,NA,NA,2,6,"5,2,14,1,13,11,6,4,9,10,12,15,3,8,7"
15034,commdev-image-keyboard-response,236,468191,learnblock1,732.9000000059605,img/planet14_left.png,14,Community 1,NA,TRUE,f,f,NA,NA,NA,2,6,"5,2,14,1,13,11,6,4,9,10,12,15,3,8,7"
15034,commdev-image-keyboard-response,237,469442,learnblock1,581.3000000119209,img/planet5_left.png,5,Community 1,NA,TRUE,f,f,NA,NA,NA,2,6,"5,2,14,1,13,11,6,4,9,10,12,15,3,8,7"
15034,commdev-image-keyboard-response,238,470695,learnblock1,781.5,img/planet14_left.png,14,Community 1,NA,TRUE,f,f,NA,NA,NA,2,6,"5,2,14,1,13,11,6,4,9,10,12,15,3,8,7"
15034,commdev-image-keyboard-response,239,471949,learnblock1,831.5999999940395,img/planet5_left.png,5,Community 1,NA,TRUE,f,f,NA,NA,NA,2,6,"5,2,14,1,13,11,6,4,9,10,12,15,3,8,7"
15034,commdev-image-keyboard-response,240,473201,learnblock1,921.1000000089407,img/planet2_left.png,2,Community 1,NA,TRUE,f,f,NA,NA,NA,2,6,"5,2,14,1,13,11,6,4,9,10,12,15,3,8,7"
15034,commdev-image-keyboard-response,241,474453,learnblock1,701.9000000059605,img/planet13_left.png,13,Community 1,NA,TRUE,f,f,NA,NA,NA,2,6,"5,2,14,1,13,11,6,4,9,10,12,15,3,8,7"
15034,commdev-image-keyboard-response,242,475706,learnblock1,498.5,img/planet2_right.png,2,Community 1,NA,FALSE,f,j,NA,NA,NA,2,6,"5,2,14,1,13,11,6,4,9,10,12,15,3,8,7"
15034,commdev-image-keyboard-response,243,476958,learnblock1,779.5,img/planet13_left.png,13,Community 1,NA,TRUE,f,f,NA,NA,NA,2,6,"5,2,14,1,13,11,6,4,9,10,12,15,3,8,7"
15034,commdev-image-keyboard-response,244,478210,learnblock1,763.6999999880791,img/planet12_left.png,12,Community 3,NA,TRUE,f,f,NA,NA,NA,2,6,"5,2,14,1,13,11,6,4,9,10,12,15,3,8,7"
15034,commdev-image-keyboard-response,245,479463,learnblock1,724.0999999940395,img/planet7_left.png,7,Community 3,NA,TRUE,f,f,NA,NA,NA,2,6,"5,2,14,1,13,11,6,4,9,10,12,15,3,8,7"
15034,commdev-image-keyboard-response,246,480715,learnblock1,603.8000000119209,img/planet12_left.png,12,Community 3,NA,TRUE,f,f,NA,NA,NA,2,6,"5,2,14,1,13,11,6,4,9,10,12,15,3,8,7"
15034,commdev-image-keyboard-response,247,481969,learnblock1,615.2999999970198,img/planet13_right.png,13,Community 1,NA,TRUE,j,j,NA,NA,NA,2,6,"5,2,14,1,13,11,6,4,9,10,12,15,3,8,7"
15034,commdev-image-keyboard-response,248,483221,learnblock1,536.2000000029802,img/planet12_left.png,12,Community 3,NA,TRUE,f,f,NA,NA,NA,2,6,"5,2,14,1,13,11,6,4,9,10,12,15,3,8,7"
15034,commdev-image-keyboard-response,249,484473,learnblock1,1173.8999999910593,img/planet7_left.png,7,Community 3,NA,TRUE,f,f,NA,NA,NA,2,6,"5,2,14,1,13,11,6,4,9,10,12,15,3,8,7"
15034,commdev-image-keyboard-response,250,485724,learnblock1,null,img/planet8_left.png,8,Community 3,NA,FALSE,null,f,NA,NA,NA,2,6,"5,2,14,1,13,11,6,4,9,10,12,15,3,8,7"
15034,commdev-image-keyboard-response,251,486977,learnblock1,null,img/planet3_left.png,3,Community 3,NA,FALSE,null,f,NA,NA,NA,2,6,"5,2,14,1,13,11,6,4,9,10,12,15,3,8,7"
15034,commdev-image-keyboard-response,252,488229,learnblock1,765.5,img/planet15_right.png,15,Community 3,NA,TRUE,j,j,NA,NA,NA,2,6,"5,2,14,1,13,11,6,4,9,10,12,15,3,8,7"
15034,commdev-image-keyboard-response,253,489481,learnblock1,621,img/planet3_right.png,3,Community 3,NA,TRUE,j,j,NA,NA,NA,2,6,"5,2,14,1,13,11,6,4,9,10,12,15,3,8,7"
15034,commdev-image-keyboard-response,254,490733,learnblock1,686.2999999970198,img/planet15_left.png,15,Community 3,NA,TRUE,f,f,NA,NA,NA,2,6,"5,2,14,1,13,11,6,4,9,10,12,15,3,8,7"
15034,commdev-image-keyboard-response,255,491986,learnblock1,856.2999999970198,img/planet7_left.png,7,Community 3,NA,TRUE,f,f,NA,NA,NA,2,6,"5,2,14,1,13,11,6,4,9,10,12,15,3,8,7"
15034,commdev-image-keyboard-response,256,493245,learnblock1,null,img/planet8_left.png,8,Community 3,NA,FALSE,null,f,NA,NA,NA,2,6,"5,2,14,1,13,11,6,4,9,10,12,15,3,8,7"
15034,commdev-image-keyboard-response,257,494497,learnblock1,null,img/planet7_left.png,7,Community 3,NA,FALSE,null,f,NA,NA,NA,2,6,"5,2,14,1,13,11,6,4,9,10,12,15,3,8,7"
15034,commdev-image-keyboard-response,258,495751,learnblock1,null,img/planet3_left.png,3,Community 3,NA,FALSE,null,f,NA,NA,NA,2,6,"5,2,14,1,13,11,6,4,9,10,12,15,3,8,7"
15034,commdev-image-keyboard-response,259,497004,learnblock1,null,img/planet15_right.png,15,Community 3,NA,FALSE,null,j,NA,NA,NA,2,6,"5,2,14,1,13,11,6,4,9,10,12,15,3,8,7"
15034,commdev-image-keyboard-response,260,498257,learnblock1,null,img/planet3_right.png,3,Community 3,NA,FALSE,null,j,NA,NA,NA,2,6,"5,2,14,1,13,11,6,4,9,10,12,15,3,8,7"
15034,commdev-image-keyboard-response,261,499510,learnblock1,589.5999999940395,img/planet15_left.png,15,Community 3,NA,TRUE,f,f,NA,NA,NA,2,6,"5,2,14,1,13,11,6,4,9,10,12,15,3,8,7"
15034,commdev-image-keyboard-response,262,500762,learnblock1,842.5,img/planet7_left.png,7,Community 3,NA,TRUE,f,f,NA,NA,NA,2,6,"5,2,14,1,13,11,6,4,9,10,12,15,3,8,7"
15034,commdev-image-keyboard-response,263,502013,learnblock1,499.59999999403954,img/planet12_right.png,12,Community 3,NA,TRUE,j,j,NA,NA,NA,2,6,"5,2,14,1,13,11,6,4,9,10,12,15,3,8,7"
15034,commdev-image-keyboard-response,264,503268,learnblock1,664.6999999880791,img/planet7_left.png,7,Community 3,NA,TRUE,f,f,NA,NA,NA,2,6,"5,2,14,1,13,11,6,4,9,10,12,15,3,8,7"
15034,commdev-image-keyboard-response,265,504531,learnblock1,672,img/planet3_right.png,3,Community 3,NA,TRUE,j,j,NA,NA,NA,2,6,"5,2,14,1,13,11,6,4,9,10,12,15,3,8,7"
15034,commdev-image-keyboard-response,266,505786,learnblock1,710,img/planet8_left.png,8,Community 3,NA,TRUE,f,f,NA,NA,NA,2,6,"5,2,14,1,13,11,6,4,9,10,12,15,3,8,7"
15034,commdev-image-keyboard-response,267,507048,learnblock1,713.1000000089407,img/planet15_right.png,15,Community 3,NA,TRUE,j,j,NA,NA,NA,2,6,"5,2,14,1,13,11,6,4,9,10,12,15,3,8,7"
15034,commdev-image-keyboard-response,268,508301,learnblock1,858,img/planet8_left.png,8,Community 3,NA,TRUE,f,f,NA,NA,NA,2,6,"5,2,14,1,13,11,6,4,9,10,12,15,3,8,7"
15034,commdev-image-keyboard-response,269,509553,learnblock1,null,img/planet3_left.png,3,Community 3,NA,FALSE,null,f,NA,NA,NA,2,6,"5,2,14,1,13,11,6,4,9,10,12,15,3,8,7"
15034,commdev-image-keyboard-response,270,510805,learnblock1,653.2999999970198,img/planet15_right.png,15,Community 3,NA,TRUE,j,j,NA,NA,NA,2,6,"5,2,14,1,13,11,6,4,9,10,12,15,3,8,7"
15034,commdev-image-keyboard-response,271,512058,learnblock1,856.3999999910593,img/planet7_right.png,7,Community 3,NA,TRUE,j,j,NA,NA,NA,2,6,"5,2,14,1,13,11,6,4,9,10,12,15,3,8,7"
15034,commdev-image-keyboard-response,272,513311,learnblock1,779.4000000059605,img/planet3_right.png,3,Community 3,NA,TRUE,j,j,NA,NA,NA,2,6,"5,2,14,1,13,11,6,4,9,10,12,15,3,8,7"
15034,commdev-image-keyboard-response,273,514619,learnblock1,634,img/planet15_left.png,15,Community 3,NA,TRUE,f,f,NA,NA,NA,2,6,"5,2,14,1,13,11,6,4,9,10,12,15,3,8,7"
15034,commdev-image-keyboard-response,274,515873,learnblock1,857.2999999970198,img/planet3_right.png,3,Community 3,NA,TRUE,j,j,NA,NA,NA,2,6,"5,2,14,1,13,11,6,4,9,10,12,15,3,8,7"
15034,commdev-image-keyboard-response,275,517125,learnblock1,663.7000000029802,img/planet15_right.png,15,Community 3,NA,FALSE,f,j,NA,NA,NA,2,6,"5,2,14,1,13,11,6,4,9,10,12,15,3,8,7"
15034,commdev-image-keyboard-response,276,518377,learnblock1,912.7999999970198,img/planet4_right.png,4,Community 2,NA,TRUE,j,j,NA,NA,NA,2,6,"5,2,14,1,13,11,6,4,9,10,12,15,3,8,7"
15034,commdev-image-keyboard-response,277,519629,learnblock1,666.5999999940395,img/planet15_left.png,15,Community 3,NA,TRUE,f,f,NA,NA,NA,2,6,"5,2,14,1,13,11,6,4,9,10,12,15,3,8,7"
15034,commdev-image-keyboard-response,278,520880,learnblock1,696.4000000059605,img/planet4_right.png,4,Community 2,NA,TRUE,j,j,NA,NA,NA,2,6,"5,2,14,1,13,11,6,4,9,10,12,15,3,8,7"
15034,commdev-image-keyboard-response,279,522132,learnblock1,873.5,img/planet10_right.png,10,Community 2,NA,TRUE,j,j,NA,NA,NA,2,6,"5,2,14,1,13,11,6,4,9,10,12,15,3,8,7"
15034,commdev-image-keyboard-response,280,523384,learnblock1,791.2999999970198,img/planet6_left.png,6,Community 2,NA,TRUE,f,f,NA,NA,NA,2,6,"5,2,14,1,13,11,6,4,9,10,12,15,3,8,7"
15034,commdev-image-keyboard-response,281,524637,learnblock1,763.5,img/planet10_right.png,10,Community 2,NA,TRUE,j,j,NA,NA,NA,2,6,"5,2,14,1,13,11,6,4,9,10,12,15,3,8,7"
15034,commdev-image-keyboard-response,282,525889,learnblock1,null,img/planet4_left.png,4,Community 2,NA,FALSE,null,f,NA,NA,NA,2,6,"5,2,14,1,13,11,6,4,9,10,12,15,3,8,7"
15034,commdev-image-keyboard-response,283,527147,learnblock1,24.599999994039536,img/planet6_left.png,6,Community 2,NA,TRUE,f,f,NA,NA,NA,2,6,"5,2,14,1,13,11,6,4,9,10,12,15,3,8,7"
15034,commdev-image-keyboard-response,284,528399,learnblock1,618,img/planet10_right.png,10,Community 2,NA,TRUE,j,j,NA,NA,NA,2,6,"5,2,14,1,13,11,6,4,9,10,12,15,3,8,7"
15034,commdev-image-keyboard-response,285,529654,learnblock1,828.2000000029802,img/planet11_right.png,11,Community 2,NA,TRUE,j,j,NA,NA,NA,2,6,"5,2,14,1,13,11,6,4,9,10,12,15,3,8,7"
15034,commdev-image-keyboard-response,286,530908,learnblock1,571.7999999970198,img/planet9_left.png,9,Community 2,NA,TRUE,f,f,NA,NA,NA,2,6,"5,2,14,1,13,11,6,4,9,10,12,15,3,8,7"
15034,commdev-image-keyboard-response,287,532161,learnblock1,842.3999999910593,img/planet11_right.png,11,Community 2,NA,TRUE,j,j,NA,NA,NA,2,6,"5,2,14,1,13,11,6,4,9,10,12,15,3,8,7"
15034,commdev-image-keyboard-response,288,533412,learnblock1,636.4000000059605,img/planet9_right.png,9,Community 2,NA,TRUE,j,j,NA,NA,NA,2,6,"5,2,14,1,13,11,6,4,9,10,12,15,3,8,7"
15034,commdev-image-keyboard-response,289,534666,learnblock1,790.5,img/planet6_right.png,6,Community 2,NA,TRUE,j,j,NA,NA,NA,2,6,"5,2,14,1,13,11,6,4,9,10,12,15,3,8,7"
15034,commdev-image-keyboard-response,290,535918,learnblock1,986.9000000059605,img/planet10_right.png,10,Community 2,NA,TRUE,j,j,NA,NA,NA,2,6,"5,2,14,1,13,11,6,4,9,10,12,15,3,8,7"
15034,commdev-image-keyboard-response,291,537172,learnblock1,688.2999999970198,img/planet9_left.png,9,Community 2,NA,TRUE,f,f,NA,NA,NA,2,6,"5,2,14,1,13,11,6,4,9,10,12,15,3,8,7"
15034,commdev-image-keyboard-response,292,538425,learnblock1,648.9000000059605,img/planet6_left.png,6,Community 2,NA,TRUE,f,f,NA,NA,NA,2,6,"5,2,14,1,13,11,6,4,9,10,12,15,3,8,7"
15034,commdev-image-keyboard-response,293,539682,learnblock1,723.2000000029802,img/planet11_right.png,11,Community 2,NA,TRUE,j,j,NA,NA,NA,2,6,"5,2,14,1,13,11,6,4,9,10,12,15,3,8,7"
15034,commdev-image-keyboard-response,294,540934,learnblock1,631.5999999940395,img/planet10_left.png,10,Community 2,NA,FALSE,j,f,NA,NA,NA,2,6,"5,2,14,1,13,11,6,4,9,10,12,15,3,8,7"
15034,commdev-image-keyboard-response,295,542187,learnblock1,998.6000000089407,img/planet4_right.png,4,Community 2,NA,TRUE,j,j,NA,NA,NA,2,6,"5,2,14,1,13,11,6,4,9,10,12,15,3,8,7"
15034,commdev-image-keyboard-response,296,543438,learnblock1,679,img/planet10_right.png,10,Community 2,NA,TRUE,j,j,NA,NA,NA,2,6,"5,2,14,1,13,11,6,4,9,10,12,15,3,8,7"
15034,commdev-image-keyboard-response,297,544691,learnblock1,716.1999999880791,img/planet6_left.png,6,Community 2,NA,TRUE,f,f,NA,NA,NA,2,6,"5,2,14,1,13,11,6,4,9,10,12,15,3,8,7"
15034,commdev-image-keyboard-response,298,545943,learnblock1,755.5999999940395,img/planet9_right.png,9,Community 2,NA,TRUE,j,j,NA,NA,NA,2,6,"5,2,14,1,13,11,6,4,9,10,12,15,3,8,7"
15034,commdev-image-keyboard-response,299,547197,learnblock1,1051.6000000089407,img/planet6_right.png,6,Community 2,NA,TRUE,j,j,NA,NA,NA,2,6,"5,2,14,1,13,11,6,4,9,10,12,15,3,8,7"
15034,commdev-image-keyboard-response,300,548449,learnblock1,785.9000000059605,img/planet4_right.png,4,Community 2,NA,TRUE,j,j,NA,NA,NA,2,6,"5,2,14,1,13,11,6,4,9,10,12,15,3,8,7"
15034,commdev-image-keyboard-response,301,549701,learnblock1,684.8000000119209,img/planet10_left.png,10,Community 2,NA,TRUE,f,f,NA,NA,NA,2,6,"5,2,14,1,13,11,6,4,9,10,12,15,3,8,7"
15034,commdev-image-keyboard-response,302,550952,learnblock1,792.7000000029802,img/planet6_right.png,6,Community 2,NA,TRUE,j,j,NA,NA,NA,2,6,"5,2,14,1,13,11,6,4,9,10,12,15,3,8,7"
15034,commdev-image-keyboard-response,303,552205,learnblock1,702.7000000029802,img/planet9_left.png,9,Community 2,NA,TRUE,f,f,NA,NA,NA,2,6,"5,2,14,1,13,11,6,4,9,10,12,15,3,8,7"
15034,commdev-image-keyboard-response,304,553457,learnblock1,1087.3999999910593,img/planet11_left.png,11,Community 2,NA,FALSE,j,f,NA,NA,NA,2,6,"5,2,14,1,13,11,6,4,9,10,12,15,3,8,7"
15034,commdev-image-keyboard-response,305,554709,learnblock1,909.0999999940395,img/planet6_right.png,6,Community 2,NA,FALSE,f,j,NA,NA,NA,2,6,"5,2,14,1,13,11,6,4,9,10,12,15,3,8,7"
15034,commdev-image-keyboard-response,306,555961,learnblock1,null,img/planet10_left.png,10,Community 2,NA,FALSE,null,f,NA,NA,NA,2,6,"5,2,14,1,13,11,6,4,9,10,12,15,3,8,7"
15034,commdev-image-keyboard-response,307,557229,learnblock1,null,img/planet11_left.png,11,Community 2,NA,FALSE,null,f,NA,NA,NA,2,6,"5,2,14,1,13,11,6,4,9,10,12,15,3,8,7"
15034,commdev-image-keyboard-response,308,558482,learnblock1,755.5999999940395,img/planet6_right.png,6,Community 2,NA,TRUE,j,j,NA,NA,NA,2,6,"5,2,14,1,13,11,6,4,9,10,12,15,3,8,7"
15034,commdev-image-keyboard-response,309,559734,learnblock1,499.8999999910593,img/planet4_left.png,4,Community 2,NA,TRUE,f,f,NA,NA,NA,2,6,"5,2,14,1,13,11,6,4,9,10,12,15,3,8,7"
15034,commdev-image-keyboard-response,310,560987,learnblock1,881.2000000029802,img/planet9_left.png,9,Community 2,NA,TRUE,f,f,NA,NA,NA,2,6,"5,2,14,1,13,11,6,4,9,10,12,15,3,8,7"
15034,commdev-image-keyboard-response,311,562240,learnblock1,611.7000000029802,img/planet11_right.png,11,Community 2,NA,FALSE,f,j,NA,NA,NA,2,6,"5,2,14,1,13,11,6,4,9,10,12,15,3,8,7"
15034,commdev-image-keyboard-response,312,563493,learnblock1,null,img/planet6_left.png,6,Community 2,NA,FALSE,null,f,NA,NA,NA,2,6,"5,2,14,1,13,11,6,4,9,10,12,15,3,8,7"
15034,commdev-image-keyboard-response,313,564746,learnblock1,202.29999999701977,img/planet9_right.png,9,Community 2,NA,FALSE,f,j,NA,NA,NA,2,6,"5,2,14,1,13,11,6,4,9,10,12,15,3,8,7"
15034,commdev-image-keyboard-response,314,565998,learnblock1,885.4000000059605,img/planet10_left.png,10,Community 2,NA,TRUE,f,f,NA,NA,NA,2,6,"5,2,14,1,13,11,6,4,9,10,12,15,3,8,7"
15034,commdev-image-keyboard-response,315,567251,learnblock1,726.5,img/planet11_right.png,11,Community 2,NA,TRUE,j,j,NA,NA,NA,2,6,"5,2,14,1,13,11,6,4,9,10,12,15,3,8,7"
15034,commdev-image-keyboard-response,316,568502,learnblock1,914,img/planet6_right.png,6,Community 2,NA,TRUE,j,j,NA,NA,NA,2,6,"5,2,14,1,13,11,6,4,9,10,12,15,3,8,7"
15034,commdev-image-keyboard-response,317,569755,learnblock1,1208.6000000089407,img/planet9_left.png,9,Community 2,NA,TRUE,f,f,NA,NA,NA,2,6,"5,2,14,1,13,11,6,4,9,10,12,15,3,8,7"
15034,commdev-image-keyboard-response,318,571010,learnblock1,66.59999999403954,img/planet11_left.png,11,Community 2,NA,TRUE,f,f,NA,NA,NA,2,6,"5,2,14,1,13,11,6,4,9,10,12,15,3,8,7"
15034,commdev-image-keyboard-response,319,572263,learnblock1,null,img/planet6_left.png,6,Community 2,NA,FALSE,null,f,NA,NA,NA,2,6,"5,2,14,1,13,11,6,4,9,10,12,15,3,8,7"
15034,commdev-image-keyboard-response,320,573515,learnblock1,617.2000000029802,img/planet9_right.png,9,Community 2,NA,TRUE,j,j,NA,NA,NA,2,6,"5,2,14,1,13,11,6,4,9,10,12,15,3,8,7"
15034,commdev-image-keyboard-response,321,574768,learnblock1,958,img/planet6_right.png,6,Community 2,NA,TRUE,j,j,NA,NA,NA,2,6,"5,2,14,1,13,11,6,4,9,10,12,15,3,8,7"
15034,commdev-image-keyboard-response,322,576022,learnblock1,612.3999999910593,img/planet9_left.png,9,Community 2,NA,TRUE,f,f,NA,NA,NA,2,6,"5,2,14,1,13,11,6,4,9,10,12,15,3,8,7"
15034,commdev-image-keyboard-response,323,577274,learnblock1,1131.7000000029802,img/planet11_left.png,11,Community 2,NA,TRUE,f,f,NA,NA,NA,2,6,"5,2,14,1,13,11,6,4,9,10,12,15,3,8,7"
15034,commdev-image-keyboard-response,324,578526,learnblock1,737.5999999940395,img/planet9_left.png,9,Community 2,NA,TRUE,f,f,NA,NA,NA,2,6,"5,2,14,1,13,11,6,4,9,10,12,15,3,8,7"
15034,commdev-image-keyboard-response,325,579779,learnblock1,985.6000000089407,img/planet11_left.png,11,Community 2,NA,TRUE,f,f,NA,NA,NA,2,6,"5,2,14,1,13,11,6,4,9,10,12,15,3,8,7"
15034,commdev-image-keyboard-response,326,581031,learnblock1,651.0999999940395,img/planet1_right.png,1,Community 1,NA,TRUE,j,j,NA,NA,NA,2,6,"5,2,14,1,13,11,6,4,9,10,12,15,3,8,7"
15034,commdev-image-keyboard-response,327,582282,learnblock1,null,img/planet5_left.png,5,Community 1,NA,FALSE,null,f,NA,NA,NA,2,6,"5,2,14,1,13,11,6,4,9,10,12,15,3,8,7"
15034,commdev-image-keyboard-response,328,583536,learnblock1,723.9000000059605,img/planet2_left.png,2,Community 1,NA,TRUE,f,f,NA,NA,NA,2,6,"5,2,14,1,13,11,6,4,9,10,12,15,3,8,7"
15034,commdev-image-keyboard-response,329,584787,learnblock1,1180.2000000029802,img/planet14_left.png,14,Community 1,NA,TRUE,f,f,NA,NA,NA,2,6,"5,2,14,1,13,11,6,4,9,10,12,15,3,8,7"
15034,commdev-image-keyboard-response,330,586041,learnblock1,null,img/planet5_right.png,5,Community 1,NA,FALSE,null,j,NA,NA,NA,2,6,"5,2,14,1,13,11,6,4,9,10,12,15,3,8,7"
15034,commdev-image-keyboard-response,331,587294,learnblock1,null,img/planet1_right.png,1,Community 1,NA,FALSE,null,j,NA,NA,NA,2,6,"5,2,14,1,13,11,6,4,9,10,12,15,3,8,7"
15034,commdev-image-keyboard-response,332,588546,learnblock1,null,img/planet2_left.png,2,Community 1,NA,FALSE,null,f,NA,NA,NA,2,6,"5,2,14,1,13,11,6,4,9,10,12,15,3,8,7"
15034,commdev-image-keyboard-response,333,589800,learnblock1,null,img/planet13_left.png,13,Community 1,NA,FALSE,null,f,NA,NA,NA,2,6,"5,2,14,1,13,11,6,4,9,10,12,15,3,8,7"
15034,commdev-image-keyboard-response,334,591052,learnblock1,762.7000000029802,img/planet14_right.png,14,Community 1,NA,TRUE,j,j,NA,NA,NA,2,6,"5,2,14,1,13,11,6,4,9,10,12,15,3,8,7"
15034,commdev-image-keyboard-response,335,592304,learnblock1,757,img/planet5_right.png,5,Community 1,NA,TRUE,j,j,NA,NA,NA,2,6,"5,2,14,1,13,11,6,4,9,10,12,15,3,8,7"
15034,commdev-image-keyboard-response,336,593557,learnblock1,null,img/planet1_right.png,1,Community 1,NA,FALSE,null,j,NA,NA,NA,2,6,"5,2,14,1,13,11,6,4,9,10,12,15,3,8,7"
15034,commdev-image-keyboard-response,337,594810,learnblock1,null,img/planet5_left.png,5,Community 1,NA,FALSE,null,f,NA,NA,NA,2,6,"5,2,14,1,13,11,6,4,9,10,12,15,3,8,7"
15034,commdev-image-keyboard-response,338,596062,learnblock1,null,img/planet2_left.png,2,Community 1,NA,FALSE,null,f,NA,NA,NA,2,6,"5,2,14,1,13,11,6,4,9,10,12,15,3,8,7"
15034,commdev-image-keyboard-response,339,597314,learnblock1,null,img/planet14_right.png,14,Community 1,NA,FALSE,null,j,NA,NA,NA,2,6,"5,2,14,1,13,11,6,4,9,10,12,15,3,8,7"
15034,commdev-image-keyboard-response,340,598567,learnblock1,null,img/planet5_left.png,5,Community 1,NA,FALSE,null,f,NA,NA,NA,2,6,"5,2,14,1,13,11,6,4,9,10,12,15,3,8,7"
15034,commdev-image-keyboard-response,341,599818,learnblock1,696.0999999940395,img/planet2_left.png,2,Community 1,NA,TRUE,f,f,NA,NA,NA,2,6,"5,2,14,1,13,11,6,4,9,10,12,15,3,8,7"
15034,commdev-image-keyboard-response,342,601070,learnblock1,618.4000000059605,img/planet13_left.png,13,Community 1,NA,TRUE,f,f,NA,NA,NA,2,6,"5,2,14,1,13,11,6,4,9,10,12,15,3,8,7"
15034,commdev-image-keyboard-response,343,602322,learnblock1,629.8000000119209,img/planet14_left.png,14,Community 1,NA,TRUE,f,f,NA,NA,NA,2,6,"5,2,14,1,13,11,6,4,9,10,12,15,3,8,7"
15034,commdev-image-keyboard-response,344,603576,learnblock1,539.5999999940395,img/planet1_right.png,1,Community 1,NA,TRUE,j,j,NA,NA,NA,2,6,"5,2,14,1,13,11,6,4,9,10,12,15,3,8,7"
15034,commdev-image-keyboard-response,345,604828,learnblock1,558.5,img/planet2_right.png,2,Community 1,NA,TRUE,j,j,NA,NA,NA,2,6,"5,2,14,1,13,11,6,4,9,10,12,15,3,8,7"
15034,commdev-image-keyboard-response,346,606080,learnblock1,634,img/planet5_right.png,5,Community 1,NA,TRUE,j,j,NA,NA,NA,2,6,"5,2,14,1,13,11,6,4,9,10,12,15,3,8,7"
15034,commdev-image-keyboard-response,347,607332,learnblock1,1042.7000000029802,img/planet2_right.png,2,Community 1,NA,TRUE,j,j,NA,NA,NA,2,6,"5,2,14,1,13,11,6,4,9,10,12,15,3,8,7"
15034,commdev-image-keyboard-response,351,676786,learnblock2,1044.7000000029802,img/planet14_right.png,14,Community 1,NA,TRUE,j,j,NA,NA,NA,2,6,"5,2,14,1,13,11,6,4,9,10,12,15,3,8,7"
15034,commdev-image-keyboard-response,352,678038,learnblock2,599.7000000029802,img/planet5_right.png,5,Community 1,NA,TRUE,j,j,NA,NA,NA,2,6,"5,2,14,1,13,11,6,4,9,10,12,15,3,8,7"
15034,commdev-image-keyboard-response,353,679293,learnblock2,573.0999999940395,img/planet2_left.png,2,Community 1,NA,TRUE,f,f,NA,NA,NA,2,6,"5,2,14,1,13,11,6,4,9,10,12,15,3,8,7"
15034,commdev-image-keyboard-response,354,680547,learnblock2,671.3000000119209,img/planet5_right.png,5,Community 1,NA,TRUE,j,j,NA,NA,NA,2,6,"5,2,14,1,13,11,6,4,9,10,12,15,3,8,7"
15034,commdev-image-keyboard-response,355,681800,learnblock2,633.5,img/planet13_right.png,13,Community 1,NA,TRUE,j,j,NA,NA,NA,2,6,"5,2,14,1,13,11,6,4,9,10,12,15,3,8,7"
15034,commdev-image-keyboard-response,356,683052,learnblock2,790,img/planet12_right.png,12,Community 3,NA,TRUE,j,j,NA,NA,NA,2,6,"5,2,14,1,13,11,6,4,9,10,12,15,3,8,7"
15034,commdev-image-keyboard-response,357,684308,learnblock2,635.2999999970198,img/planet3_left.png,3,Community 3,NA,TRUE,f,f,NA,NA,NA,2,6,"5,2,14,1,13,11,6,4,9,10,12,15,3,8,7"
15034,commdev-image-keyboard-response,358,685561,learnblock2,604.7999999970198,img/planet7_right.png,7,Community 3,NA,TRUE,j,j,NA,NA,NA,2,6,"5,2,14,1,13,11,6,4,9,10,12,15,3,8,7"
15034,commdev-image-keyboard-response,359,686812,learnblock2,666.7999999970198,img/planet12_left.png,12,Community 3,NA,TRUE,f,f,NA,NA,NA,2,6,"5,2,14,1,13,11,6,4,9,10,12,15,3,8,7"
15034,commdev-image-keyboard-response,360,688064,learnblock2,734,img/planet7_right.png,7,Community 3,NA,TRUE,j,j,NA,NA,NA,2,6,"5,2,14,1,13,11,6,4,9,10,12,15,3,8,7"
15034,commdev-image-keyboard-response,361,689318,learnblock2,592.9000000059605,img/planet12_right.png,12,Community 3,NA,TRUE,j,j,NA,NA,NA,2,6,"5,2,14,1,13,11,6,4,9,10,12,15,3,8,7"
15034,commdev-image-keyboard-response,362,690571,learnblock2,623.7000000029802,img/planet8_left.png,8,Community 3,NA,TRUE,f,f,NA,NA,NA,2,6,"5,2,14,1,13,11,6,4,9,10,12,15,3,8,7"
15034,commdev-image-keyboard-response,363,691824,learnblock2,545.2999999970198,img/planet7_left.png,7,Community 3,NA,TRUE,f,f,NA,NA,NA,2,6,"5,2,14,1,13,11,6,4,9,10,12,15,3,8,7"
15034,commdev-image-keyboard-response,364,693088,learnblock2,744.2000000029802,img/planet8_left.png,8,Community 3,NA,TRUE,f,f,NA,NA,NA,2,6,"5,2,14,1,13,11,6,4,9,10,12,15,3,8,7"
15034,commdev-image-keyboard-response,365,694340,learnblock2,843.8999999910593,img/planet3_left.png,3,Community 3,NA,TRUE,f,f,NA,NA,NA,2,6,"5,2,14,1,13,11,6,4,9,10,12,15,3,8,7"
15034,commdev-image-keyboard-response,366,695593,learnblock2,652.7999999970198,img/planet12_left.png,12,Community 3,NA,TRUE,f,f,NA,NA,NA,2,6,"5,2,14,1,13,11,6,4,9,10,12,15,3,8,7"
15034,commdev-image-keyboard-response,367,696845,learnblock2,586,img/planet8_right.png,8,Community 3,NA,TRUE,j,j,NA,NA,NA,2,6,"5,2,14,1,13,11,6,4,9,10,12,15,3,8,7"
15034,commdev-image-keyboard-response,368,698097,learnblock2,572.3999999910593,img/planet7_right.png,7,Community 3,NA,TRUE,j,j,NA,NA,NA,2,6,"5,2,14,1,13,11,6,4,9,10,12,15,3,8,7"
15034,commdev-image-keyboard-response,369,699351,learnblock2,977.2000000029802,img/planet3_right.png,3,Community 3,NA,TRUE,j,j,NA,NA,NA,2,6,"5,2,14,1,13,11,6,4,9,10,12,15,3,8,7"
15034,commdev-image-keyboard-response,370,700603,learnblock2,579.7000000029802,img/planet12_left.png,12,Community 3,NA,TRUE,f,f,NA,NA,NA,2,6,"5,2,14,1,13,11,6,4,9,10,12,15,3,8,7"
15034,commdev-image-keyboard-response,371,701856,learnblock2,607.7999999970198,img/planet8_right.png,8,Community 3,NA,TRUE,j,j,NA,NA,NA,2,6,"5,2,14,1,13,11,6,4,9,10,12,15,3,8,7"
15034,commdev-image-keyboard-response,372,703110,learnblock2,706.0999999940395,img/planet12_left.png,12,Community 3,NA,TRUE,f,f,NA,NA,NA,2,6,"5,2,14,1,13,11,6,4,9,10,12,15,3,8,7"
15034,commdev-image-keyboard-response,373,704362,learnblock2,902.3999999910593,img/planet3_left.png,3,Community 3,NA,TRUE,f,f,NA,NA,NA,2,6,"5,2,14,1,13,11,6,4,9,10,12,15,3,8,7"
15034,commdev-image-keyboard-response,374,705615,learnblock2,690.5999999940395,img/planet12_left.png,12,Community 3,NA,TRUE,f,f,NA,NA,NA,2,6,"5,2,14,1,13,11,6,4,9,10,12,15,3,8,7"
15034,commdev-image-keyboard-response,375,706866,learnblock2,567.3999999910593,img/planet7_right.png,7,Community 3,NA,TRUE,j,j,NA,NA,NA,2,6,"5,2,14,1,13,11,6,4,9,10,12,15,3,8,7"
15034,commdev-image-keyboard-response,376,708119,learnblock2,693.2000000029802,img/planet15_left.png,15,Community 3,NA,TRUE,f,f,NA,NA,NA,2,6,"5,2,14,1,13,11,6,4,9,10,12,15,3,8,7"
15034,commdev-image-keyboard-response,377,709371,learnblock2,804.4000000059605,img/planet7_right.png,7,Community 3,NA,TRUE,j,j,NA,NA,NA,2,6,"5,2,14,1,13,11,6,4,9,10,12,15,3,8,7"
15034,commdev-image-keyboard-response,378,710623,learnblock2,730.2999999970198,img/planet3_left.png,3,Community 3,NA,TRUE,f,f,NA,NA,NA,2,6,"5,2,14,1,13,11,6,4,9,10,12,15,3,8,7"
15034,commdev-image-keyboard-response,379,711875,learnblock2,580.2999999970198,img/planet12_right.png,12,Community 3,NA,TRUE,j,j,NA,NA,NA,2,6,"5,2,14,1,13,11,6,4,9,10,12,15,3,8,7"
15034,commdev-image-keyboard-response,380,713128,learnblock2,625.0999999940395,img/planet13_left.png,13,Community 1,NA,TRUE,f,f,NA,NA,NA,2,6,"5,2,14,1,13,11,6,4,9,10,12,15,3,8,7"
15034,commdev-image-keyboard-response,381,714387,learnblock2,580.5999999940395,img/planet2_right.png,2,Community 1,NA,TRUE,j,j,NA,NA,NA,2,6,"5,2,14,1,13,11,6,4,9,10,12,15,3,8,7"
15034,commdev-image-keyboard-response,382,715641,learnblock2,701.2000000029802,img/planet1_left.png,1,Community 1,NA,TRUE,f,f,NA,NA,NA,2,6,"5,2,14,1,13,11,6,4,9,10,12,15,3,8,7"
15034,commdev-image-keyboard-response,383,716893,learnblock2,617.7999999970198,img/planet5_left.png,5,Community 1,NA,TRUE,f,f,NA,NA,NA,2,6,"5,2,14,1,13,11,6,4,9,10,12,15,3,8,7"
15034,commdev-image-keyboard-response,384,718146,learnblock2,578.7999999970198,img/planet13_right.png,13,Community 1,NA,TRUE,j,j,NA,NA,NA,2,6,"5,2,14,1,13,11,6,4,9,10,12,15,3,8,7"
15034,commdev-image-keyboard-response,385,719399,learnblock2,595.2999999970198,img/planet14_right.png,14,Community 1,NA,TRUE,j,j,NA,NA,NA,2,6,"5,2,14,1,13,11,6,4,9,10,12,15,3,8,7"
15034,commdev-image-keyboard-response,386,720653,learnblock2,575.9000000059605,img/planet2_right.png,2,Community 1,NA,TRUE,j,j,NA,NA,NA,2,6,"5,2,14,1,13,11,6,4,9,10,12,15,3,8,7"
15034,commdev-image-keyboard-response,387,721905,learnblock2,656.3999999910593,img/planet14_left.png,14,Community 1,NA,TRUE,f,f,NA,NA,NA,2,6,"5,2,14,1,13,11,6,4,9,10,12,15,3,8,7"
15034,commdev-image-keyboard-response,388,723161,learnblock2,643.8999999910593,img/planet5_right.png,5,Community 1,NA,FALSE,f,j,NA,NA,NA,2,6,"5,2,14,1,13,11,6,4,9,10,12,15,3,8,7"
15034,commdev-image-keyboard-response,389,724414,learnblock2,753,img/planet13_left.png,13,Community 1,NA,TRUE,f,f,NA,NA,NA,2,6,"5,2,14,1,13,11,6,4,9,10,12,15,3,8,7"
15034,commdev-image-keyboard-response,390,725666,learnblock2,779.2999999970198,img/planet14_left.png,14,Community 1,NA,TRUE,f,f,NA,NA,NA,2,6,"5,2,14,1,13,11,6,4,9,10,12,15,3,8,7"
15034,commdev-image-keyboard-response,391,726918,learnblock2,686.0999999940395,img/planet1_right.png,1,Community 1,NA,TRUE,j,j,NA,NA,NA,2,6,"5,2,14,1,13,11,6,4,9,10,12,15,3,8,7"
15034,commdev-image-keyboard-response,392,728173,learnblock2,741.2000000029802,img/planet11_left.png,11,Community 2,NA,TRUE,f,f,NA,NA,NA,2,6,"5,2,14,1,13,11,6,4,9,10,12,15,3,8,7"
15034,commdev-image-keyboard-response,393,729426,learnblock2,600.9000000059605,img/planet1_right.png,1,Community 1,NA,TRUE,j,j,NA,NA,NA,2,6,"5,2,14,1,13,11,6,4,9,10,12,15,3,8,7"
15034,commdev-image-keyboard-response,394,730679,learnblock2,772.5,img/planet2_right.png,2,Community 1,NA,TRUE,j,j,NA,NA,NA,2,6,"5,2,14,1,13,11,6,4,9,10,12,15,3,8,7"
15034,commdev-image-keyboard-response,395,731931,learnblock2,573.7999999970198,img/planet13_right.png,13,Community 1,NA,TRUE,j,j,NA,NA,NA,2,6,"5,2,14,1,13,11,6,4,9,10,12,15,3,8,7"
15034,commdev-image-keyboard-response,396,733185,learnblock2,737.2999999970198,img/planet5_left.png,5,Community 1,NA,TRUE,f,f,NA,NA,NA,2,6,"5,2,14,1,13,11,6,4,9,10,12,15,3,8,7"
15034,commdev-image-keyboard-response,397,734437,learnblock2,667.0999999940395,img/planet2_right.png,2,Community 1,NA,TRUE,j,j,NA,NA,NA,2,6,"5,2,14,1,13,11,6,4,9,10,12,15,3,8,7"
15034,commdev-image-keyboard-response,398,735690,learnblock2,653.9000000059605,img/planet1_left.png,1,Community 1,NA,TRUE,f,f,NA,NA,NA,2,6,"5,2,14,1,13,11,6,4,9,10,12,15,3,8,7"
15034,commdev-image-keyboard-response,399,736942,learnblock2,null,img/planet5_left.png,5,Community 1,NA,FALSE,null,f,NA,NA,NA,2,6,"5,2,14,1,13,11,6,4,9,10,12,15,3,8,7"
15034,commdev-image-keyboard-response,400,738196,learnblock2,63,img/planet2_left.png,2,Community 1,NA,TRUE,f,f,NA,NA,NA,2,6,"5,2,14,1,13,11,6,4,9,10,12,15,3,8,7"
15034,commdev-image-keyboard-response,401,739447,learnblock2,591.5,img/planet13_left.png,13,Community 1,NA,TRUE,f,f,NA,NA,NA,2,6,"5,2,14,1,13,11,6,4,9,10,12,15,3,8,7"
15034,commdev-image-keyboard-response,402,740702,learnblock2,647.9000000059605,img/planet2_right.png,2,Community 1,NA,TRUE,j,j,NA,NA,NA,2,6,"5,2,14,1,13,11,6,4,9,10,12,15,3,8,7"
15034,commdev-image-keyboard-response,403,741953,learnblock2,1196.2999999970198,img/planet14_right.png,14,Community 1,NA,TRUE,j,j,NA,NA,NA,2,6,"5,2,14,1,13,11,6,4,9,10,12,15,3,8,7"
15034,commdev-image-keyboard-response,404,743206,learnblock2,587,img/planet2_left.png,2,Community 1,NA,TRUE,f,f,NA,NA,NA,2,6,"5,2,14,1,13,11,6,4,9,10,12,15,3,8,7"
15034,commdev-image-keyboard-response,405,744458,learnblock2,581.6000000089407,img/planet14_right.png,14,Community 1,NA,TRUE,j,j,NA,NA,NA,2,6,"5,2,14,1,13,11,6,4,9,10,12,15,3,8,7"
15034,commdev-image-keyboard-response,406,745710,learnblock2,553,img/planet13_left.png,13,Community 1,NA,TRUE,f,f,NA,NA,NA,2,6,"5,2,14,1,13,11,6,4,9,10,12,15,3,8,7"
15034,commdev-image-keyboard-response,407,746965,learnblock2,460.59999999403954,img/planet12_right.png,12,Community 3,NA,TRUE,j,j,NA,NA,NA,2,6,"5,2,14,1,13,11,6,4,9,10,12,15,3,8,7"
15034,commdev-image-keyboard-response,408,748218,learnblock2,564.2999999970198,img/planet7_left.png,7,Community 3,NA,TRUE,f,f,NA,NA,NA,2,6,"5,2,14,1,13,11,6,4,9,10,12,15,3,8,7"
15034,commdev-image-keyboard-response,409,749470,learnblock2,804,img/planet15_left.png,15,Community 3,NA,FALSE,j,f,NA,NA,NA,2,6,"5,2,14,1,13,11,6,4,9,10,12,15,3,8,7"
15034,commdev-image-keyboard-response,410,750734,learnblock2,700.9000000059605,img/planet3_left.png,3,Community 3,NA,TRUE,f,f,NA,NA,NA,2,6,"5,2,14,1,13,11,6,4,9,10,12,15,3,8,7"
15034,commdev-image-keyboard-response,411,751986,learnblock2,806.7000000029802,img/planet12_left.png,12,Community 3,NA,TRUE,f,f,NA,NA,NA,2,6,"5,2,14,1,13,11,6,4,9,10,12,15,3,8,7"
15034,commdev-image-keyboard-response,412,753240,learnblock2,644.7999999970198,img/planet3_left.png,3,Community 3,NA,TRUE,f,f,NA,NA,NA,2,6,"5,2,14,1,13,11,6,4,9,10,12,15,3,8,7"
15034,commdev-image-keyboard-response,413,754493,learnblock2,674.5,img/planet7_right.png,7,Community 3,NA,TRUE,j,j,NA,NA,NA,2,6,"5,2,14,1,13,11,6,4,9,10,12,15,3,8,7"
15034,commdev-image-keyboard-response,414,755745,learnblock2,676.7000000029802,img/planet8_left.png,8,Community 3,NA,TRUE,f,f,NA,NA,NA,2,6,"5,2,14,1,13,11,6,4,9,10,12,15,3,8,7"
15034,commdev-image-keyboard-response,415,756998,learnblock2,670.8000000119209,img/planet12_left.png,12,Community 3,NA,TRUE,f,f,NA,NA,NA,2,6,"5,2,14,1,13,11,6,4,9,10,12,15,3,8,7"
15034,commdev-image-keyboard-response,416,758250,learnblock2,739.0999999940395,img/planet7_right.png,7,Community 3,NA,TRUE,j,j,NA,NA,NA,2,6,"5,2,14,1,13,11,6,4,9,10,12,15,3,8,7"
15034,commdev-image-keyboard-response,417,759502,learnblock2,935.4000000059605,img/planet8_right.png,8,Community 3,NA,TRUE,j,j,NA,NA,NA,2,6,"5,2,14,1,13,11,6,4,9,10,12,15,3,8,7"
15034,commdev-image-keyboard-response,418,760756,learnblock2,679.2000000029802,img/planet7_left.png,7,Community 3,NA,TRUE,f,f,NA,NA,NA,2,6,"5,2,14,1,13,11,6,4,9,10,12,15,3,8,7"
15034,commdev-image-keyboard-response,419,762010,learnblock2,null,img/planet3_left.png,3,Community 3,NA,FALSE,null,f,NA,NA,NA,2,6,"5,2,14,1,13,11,6,4,9,10,12,15,3,8,7"
15034,commdev-image-keyboard-response,420,763270,learnblock2,828.6000000089407,img/planet7_left.png,7,Community 3,NA,TRUE,f,f,NA,NA,NA,2,6,"5,2,14,1,13,11,6,4,9,10,12,15,3,8,7"
15034,commdev-image-keyboard-response,421,764525,learnblock2,731.8999999910593,img/planet15_left.png,15,Community 3,NA,TRUE,f,f,NA,NA,NA,2,6,"5,2,14,1,13,11,6,4,9,10,12,15,3,8,7"
15034,commdev-image-keyboard-response,422,765778,learnblock2,726.0999999940395,img/planet3_left.png,3,Community 3,NA,TRUE,f,f,NA,NA,NA,2,6,"5,2,14,1,13,11,6,4,9,10,12,15,3,8,7"
15034,commdev-image-keyboard-response,423,767029,learnblock2,714.0999999940395,img/planet7_right.png,7,Community 3,NA,TRUE,j,j,NA,NA,NA,2,6,"5,2,14,1,13,11,6,4,9,10,12,15,3,8,7"
15034,commdev-image-keyboard-response,424,768282,learnblock2,973.5,img/planet3_right.png,3,Community 3,NA,TRUE,j,j,NA,NA,NA,2,6,"5,2,14,1,13,11,6,4,9,10,12,15,3,8,7"
15034,commdev-image-keyboard-response,425,769535,learnblock2,988.5999999940395,img/planet7_left.png,7,Community 3,NA,TRUE,f,f,NA,NA,NA,2,6,"5,2,14,1,13,11,6,4,9,10,12,15,3,8,7"
15034,commdev-image-keyboard-response,426,770788,learnblock2,741.1000000089407,img/planet12_left.png,12,Community 3,NA,TRUE,f,f,NA,NA,NA,2,6,"5,2,14,1,13,11,6,4,9,10,12,15,3,8,7"
15034,commdev-image-keyboard-response,427,772042,learnblock2,1036.5,img/planet13_left.png,13,Community 1,NA,TRUE,f,f,NA,NA,NA,2,6,"5,2,14,1,13,11,6,4,9,10,12,15,3,8,7"
15034,commdev-image-keyboard-response,428,773295,learnblock2,1080.199999988079,img/planet14_right.png,14,Community 1,NA,TRUE,j,j,NA,NA,NA,2,6,"5,2,14,1,13,11,6,4,9,10,12,15,3,8,7"
15034,commdev-image-keyboard-response,429,774548,learnblock2,703.5,img/planet13_right.png,13,Community 1,NA,TRUE,j,j,NA,NA,NA,2,6,"5,2,14,1,13,11,6,4,9,10,12,15,3,8,7"
15034,commdev-image-keyboard-response,430,775801,learnblock2,1131.5999999940395,img/planet14_right.png,14,Community 1,NA,TRUE,j,j,NA,NA,NA,2,6,"5,2,14,1,13,11,6,4,9,10,12,15,3,8,7"
15034,commdev-image-keyboard-response,431,777053,learnblock2,626.4000000059605,img/planet13_left.png,13,Community 1,NA,TRUE,f,f,NA,NA,NA,2,6,"5,2,14,1,13,11,6,4,9,10,12,15,3,8,7"
15034,commdev-image-keyboard-response,432,778306,learnblock2,730,img/planet14_right.png,14,Community 1,NA,TRUE,j,j,NA,NA,NA,2,6,"5,2,14,1,13,11,6,4,9,10,12,15,3,8,7"
15034,commdev-image-keyboard-response,433,779558,learnblock2,1167.5999999940395,img/planet1_right.png,1,Community 1,NA,TRUE,j,j,NA,NA,NA,2,6,"5,2,14,1,13,11,6,4,9,10,12,15,3,8,7"
15034,commdev-image-keyboard-response,434,780812,learnblock2,623.2999999970198,img/planet2_left.png,2,Community 1,NA,TRUE,f,f,NA,NA,NA,2,6,"5,2,14,1,13,11,6,4,9,10,12,15,3,8,7"
15034,commdev-image-keyboard-response,435,782065,learnblock2,915.3999999910593,img/planet13_left.png,13,Community 1,NA,TRUE,f,f,NA,NA,NA,2,6,"5,2,14,1,13,11,6,4,9,10,12,15,3,8,7"
15034,commdev-image-keyboard-response,436,783318,learnblock2,622.7000000029802,img/planet14_right.png,14,Community 1,NA,TRUE,j,j,NA,NA,NA,2,6,"5,2,14,1,13,11,6,4,9,10,12,15,3,8,7"
15034,commdev-image-keyboard-response,437,784570,learnblock2,937.3999999910593,img/planet13_right.png,13,Community 1,NA,TRUE,j,j,NA,NA,NA,2,6,"5,2,14,1,13,11,6,4,9,10,12,15,3,8,7"
15034,commdev-image-keyboard-response,438,785822,learnblock2,633.5999999940395,img/planet5_right.png,5,Community 1,NA,TRUE,j,j,NA,NA,NA,2,6,"5,2,14,1,13,11,6,4,9,10,12,15,3,8,7"
15034,commdev-image-keyboard-response,439,787080,learnblock2,924.8999999910593,img/planet13_left.png,13,Community 1,NA,TRUE,f,f,NA,NA,NA,2,6,"5,2,14,1,13,11,6,4,9,10,12,15,3,8,7"
15034,commdev-image-keyboard-response,440,788333,learnblock2,759.0999999940395,img/planet14_right.png,14,Community 1,NA,TRUE,j,j,NA,NA,NA,2,6,"5,2,14,1,13,11,6,4,9,10,12,15,3,8,7"
15034,commdev-image-keyboard-response,441,789585,learnblock2,633.2000000029802,img/planet5_left.png,5,Community 1,NA,TRUE,f,f,NA,NA,NA,2,6,"5,2,14,1,13,11,6,4,9,10,12,15,3,8,7"
15034,commdev-image-keyboard-response,442,790836,learnblock2,761.5,img/planet13_right.png,13,Community 1,NA,TRUE,j,j,NA,NA,NA,2,6,"5,2,14,1,13,11,6,4,9,10,12,15,3,8,7"
15034,commdev-image-keyboard-response,443,792089,learnblock2,761.2000000029802,img/planet12_right.png,12,Community 3,NA,TRUE,j,j,NA,NA,NA,2,6,"5,2,14,1,13,11,6,4,9,10,12,15,3,8,7"
15034,commdev-image-keyboard-response,444,793343,learnblock2,799.7000000029802,img/planet7_left.png,7,Community 3,NA,TRUE,f,f,NA,NA,NA,2,6,"5,2,14,1,13,11,6,4,9,10,12,15,3,8,7"
15034,commdev-image-keyboard-response,445,794596,learnblock2,677.0999999940395,img/planet8_right.png,8,Community 3,NA,TRUE,j,j,NA,NA,NA,2,6,"5,2,14,1,13,11,6,4,9,10,12,15,3,8,7"
15034,commdev-image-keyboard-response,446,795848,learnblock2,667.9000000059605,img/planet12_right.png,12,Community 3,NA,TRUE,j,j,NA,NA,NA,2,6,"5,2,14,1,13,11,6,4,9,10,12,15,3,8,7"
15034,commdev-image-keyboard-response,447,797101,learnblock2,666.1999999880791,img/planet13_right.png,13,Community 1,NA,TRUE,j,j,NA,NA,NA,2,6,"5,2,14,1,13,11,6,4,9,10,12,15,3,8,7"
15034,commdev-image-keyboard-response,448,798354,learnblock2,585.1000000089407,img/planet2_left.png,2,Community 1,NA,TRUE,f,f,NA,NA,NA,2,6,"5,2,14,1,13,11,6,4,9,10,12,15,3,8,7"
15034,commdev-image-keyboard-response,449,799608,learnblock2,632.6000000089407,img/planet13_right.png,13,Community 1,NA,TRUE,j,j,NA,NA,NA,2,6,"5,2,14,1,13,11,6,4,9,10,12,15,3,8,7"
15034,commdev-image-keyboard-response,450,800861,learnblock2,710.7999999970198,img/planet5_left.png,5,Community 1,NA,TRUE,f,f,NA,NA,NA,2,6,"5,2,14,1,13,11,6,4,9,10,12,15,3,8,7"
15034,commdev-image-keyboard-response,451,802114,learnblock2,958.8999999910593,img/planet14_left.png,14,Community 1,NA,FALSE,j,f,NA,NA,NA,2,6,"5,2,14,1,13,11,6,4,9,10,12,15,3,8,7"
15034,commdev-image-keyboard-response,452,803368,learnblock2,1091.7000000029802,img/planet5_right.png,5,Community 1,NA,TRUE,j,j,NA,NA,NA,2,6,"5,2,14,1,13,11,6,4,9,10,12,15,3,8,7"
15034,commdev-image-keyboard-response,453,804621,learnblock2,779.2000000029802,img/planet2_right.png,2,Community 1,NA,TRUE,j,j,NA,NA,NA,2,6,"5,2,14,1,13,11,6,4,9,10,12,15,3,8,7"
15034,commdev-image-keyboard-response,454,805873,learnblock2,622.8999999910593,img/planet13_right.png,13,Community 1,NA,TRUE,j,j,NA,NA,NA,2,6,"5,2,14,1,13,11,6,4,9,10,12,15,3,8,7"
15034,commdev-image-keyboard-response,455,807126,learnblock2,689.6000000089407,img/planet14_left.png,14,Community 1,NA,TRUE,f,f,NA,NA,NA,2,6,"5,2,14,1,13,11,6,4,9,10,12,15,3,8,7"
15034,commdev-image-keyboard-response,456,808379,learnblock2,697.5,img/planet1_right.png,1,Community 1,NA,TRUE,j,j,NA,NA,NA,2,6,"5,2,14,1,13,11,6,4,9,10,12,15,3,8,7"
15034,commdev-image-keyboard-response,457,809639,learnblock2,1197.8999999910593,img/planet2_left.png,2,Community 1,NA,TRUE,f,f,NA,NA,NA,2,6,"5,2,14,1,13,11,6,4,9,10,12,15,3,8,7"
15034,commdev-image-keyboard-response,458,810893,learnblock2,981,img/planet14_right.png,14,Community 1,NA,TRUE,j,j,NA,NA,NA,2,6,"5,2,14,1,13,11,6,4,9,10,12,15,3,8,7"
15034,commdev-image-keyboard-response,459,812145,learnblock2,843.5,img/planet2_left.png,2,Community 1,NA,TRUE,f,f,NA,NA,NA,2,6,"5,2,14,1,13,11,6,4,9,10,12,15,3,8,7"
15034,commdev-image-keyboard-response,460,813410,learnblock2,858.3000000119209,img/planet14_left.png,14,Community 1,NA,TRUE,f,f,NA,NA,NA,2,6,"5,2,14,1,13,11,6,4,9,10,12,15,3,8,7"
15034,commdev-image-keyboard-response,461,814662,learnblock2,null,img/planet2_left.png,2,Community 1,NA,FALSE,null,f,NA,NA,NA,2,6,"5,2,14,1,13,11,6,4,9,10,12,15,3,8,7"
15034,commdev-image-keyboard-response,462,815914,learnblock2,null,img/planet1_left.png,1,Community 1,NA,FALSE,null,f,NA,NA,NA,2,6,"5,2,14,1,13,11,6,4,9,10,12,15,3,8,7"
15034,commdev-image-keyboard-response,463,817168,learnblock2,142.40000000596046,img/planet11_right.png,11,Community 2,NA,FALSE,f,j,NA,NA,NA,2,6,"5,2,14,1,13,11,6,4,9,10,12,15,3,8,7"
15034,commdev-image-keyboard-response,464,818420,learnblock2,874.5,img/planet10_left.png,10,Community 2,NA,TRUE,f,f,NA,NA,NA,2,6,"5,2,14,1,13,11,6,4,9,10,12,15,3,8,7"
15034,commdev-image-keyboard-response,465,819672,learnblock2,565.0999999940395,img/planet11_right.png,11,Community 2,NA,TRUE,j,j,NA,NA,NA,2,6,"5,2,14,1,13,11,6,4,9,10,12,15,3,8,7"
15034,commdev-image-keyboard-response,466,820925,learnblock2,672.7999999970198,img/planet6_right.png,6,Community 2,NA,TRUE,j,j,NA,NA,NA,2,6,"5,2,14,1,13,11,6,4,9,10,12,15,3,8,7"
15034,commdev-image-keyboard-response,467,822181,learnblock2,691.2999999970198,img/planet4_left.png,4,Community 2,NA,TRUE,f,f,NA,NA,NA,2,6,"5,2,14,1,13,11,6,4,9,10,12,15,3,8,7"
15034,commdev-image-keyboard-response,468,823433,learnblock2,1066.7000000029802,img/planet15_left.png,15,Community 3,NA,FALSE,j,f,NA,NA,NA,2,6,"5,2,14,1,13,11,6,4,9,10,12,15,3,8,7"
15034,commdev-image-keyboard-response,469,824685,learnblock2,1054,img/planet4_left.png,4,Community 2,NA,TRUE,f,f,NA,NA,NA,2,6,"5,2,14,1,13,11,6,4,9,10,12,15,3,8,7"
15034,commdev-image-keyboard-response,470,825937,learnblock2,575.4000000059605,img/planet10_right.png,10,Community 2,NA,TRUE,j,j,NA,NA,NA,2,6,"5,2,14,1,13,11,6,4,9,10,12,15,3,8,7"
15034,commdev-image-keyboard-response,471,827218,learnblock2,875.8999999910593,img/planet6_left.png,6,Community 2,NA,TRUE,f,f,NA,NA,NA,2,6,"5,2,14,1,13,11,6,4,9,10,12,15,3,8,7"
15034,commdev-image-keyboard-response,472,828470,learnblock2,808.5,img/planet4_left.png,4,Community 2,NA,TRUE,f,f,NA,NA,NA,2,6,"5,2,14,1,13,11,6,4,9,10,12,15,3,8,7"
15034,commdev-image-keyboard-response,473,829721,learnblock2,877.7999999970198,img/planet9_left.png,9,Community 2,NA,TRUE,f,f,NA,NA,NA,2,6,"5,2,14,1,13,11,6,4,9,10,12,15,3,8,7"
15034,commdev-image-keyboard-response,474,830973,learnblock2,706.7999999970198,img/planet6_left.png,6,Community 2,NA,TRUE,f,f,NA,NA,NA,2,6,"5,2,14,1,13,11,6,4,9,10,12,15,3,8,7"
15034,commdev-image-keyboard-response,475,832227,learnblock2,715.7000000029802,img/planet11_left.png,11,Community 2,NA,TRUE,f,f,NA,NA,NA,2,6,"5,2,14,1,13,11,6,4,9,10,12,15,3,8,7"
15034,commdev-image-keyboard-response,476,833479,learnblock2,1008.1000000089407,img/planet1_left.png,1,Community 1,NA,TRUE,f,f,NA,NA,NA,2,6,"5,2,14,1,13,11,6,4,9,10,12,15,3,8,7"
15034,commdev-image-keyboard-response,477,834743,learnblock2,747.7000000029802,img/planet11_left.png,11,Community 2,NA,TRUE,f,f,NA,NA,NA,2,6,"5,2,14,1,13,11,6,4,9,10,12,15,3,8,7"
15034,commdev-image-keyboard-response,478,836009,learnblock2,907,img/planet1_left.png,1,Community 1,NA,TRUE,f,f,NA,NA,NA,2,6,"5,2,14,1,13,11,6,4,9,10,12,15,3,8,7"
15034,commdev-image-keyboard-response,479,837263,learnblock2,null,img/planet2_left.png,2,Community 1,NA,FALSE,null,f,NA,NA,NA,2,6,"5,2,14,1,13,11,6,4,9,10,12,15,3,8,7"
15034,commdev-image-keyboard-response,480,838514,learnblock2,null,img/planet14_right.png,14,Community 1,NA,FALSE,null,j,NA,NA,NA,2,6,"5,2,14,1,13,11,6,4,9,10,12,15,3,8,7"
15034,commdev-image-keyboard-response,481,839773,learnblock2,679.9000000059605,img/planet5_left.png,5,Community 1,NA,TRUE,f,f,NA,NA,NA,2,6,"5,2,14,1,13,11,6,4,9,10,12,15,3,8,7"
15034,commdev-image-keyboard-response,482,841025,learnblock2,519.2999999970198,img/planet1_left.png,1,Community 1,NA,TRUE,f,f,NA,NA,NA,2,6,"5,2,14,1,13,11,6,4,9,10,12,15,3,8,7"
15034,commdev-image-keyboard-response,483,842278,learnblock2,449.8999999910593,img/planet2_right.png,2,Community 1,NA,TRUE,j,j,NA,NA,NA,2,6,"5,2,14,1,13,11,6,4,9,10,12,15,3,8,7"
15034,commdev-image-keyboard-response,484,843532,learnblock2,568.4000000059605,img/planet1_left.png,1,Community 1,NA,TRUE,f,f,NA,NA,NA,2,6,"5,2,14,1,13,11,6,4,9,10,12,15,3,8,7"
15034,commdev-image-keyboard-response,485,844785,learnblock2,684.2999999970198,img/planet11_right.png,11,Community 2,NA,TRUE,j,j,NA,NA,NA,2,6,"5,2,14,1,13,11,6,4,9,10,12,15,3,8,7"
15034,commdev-image-keyboard-response,486,846040,learnblock2,636.2000000029802,img/planet6_left.png,6,Community 2,NA,TRUE,f,f,NA,NA,NA,2,6,"5,2,14,1,13,11,6,4,9,10,12,15,3,8,7"
15034,commdev-image-keyboard-response,487,847303,learnblock2,597.4000000059605,img/planet4_right.png,4,Community 2,NA,TRUE,j,j,NA,NA,NA,2,6,"5,2,14,1,13,11,6,4,9,10,12,15,3,8,7"
15034,commdev-image-keyboard-response,488,848555,learnblock2,883.0999999940395,img/planet10_left.png,10,Community 2,NA,TRUE,f,f,NA,NA,NA,2,6,"5,2,14,1,13,11,6,4,9,10,12,15,3,8,7"
15034,commdev-image-keyboard-response,489,849807,learnblock2,685.3999999910593,img/planet6_left.png,6,Community 2,NA,TRUE,f,f,NA,NA,NA,2,6,"5,2,14,1,13,11,6,4,9,10,12,15,3,8,7"
15034,commdev-image-keyboard-response,490,851075,learnblock2,928.7999999970198,img/planet9_left.png,9,Community 2,NA,TRUE,f,f,NA,NA,NA,2,6,"5,2,14,1,13,11,6,4,9,10,12,15,3,8,7"
15034,commdev-image-keyboard-response,491,852327,learnblock2,675.8000000119209,img/planet4_left.png,4,Community 2,NA,TRUE,f,f,NA,NA,NA,2,6,"5,2,14,1,13,11,6,4,9,10,12,15,3,8,7"
15034,commdev-image-keyboard-response,492,853580,learnblock2,756.0999999940395,img/planet10_left.png,10,Community 2,NA,TRUE,f,f,NA,NA,NA,2,6,"5,2,14,1,13,11,6,4,9,10,12,15,3,8,7"
15034,commdev-image-keyboard-response,493,854833,learnblock2,678.8999999910593,img/planet11_right.png,11,Community 2,NA,TRUE,j,j,NA,NA,NA,2,6,"5,2,14,1,13,11,6,4,9,10,12,15,3,8,7"
15034,commdev-image-keyboard-response,494,856086,learnblock2,null,img/planet9_left.png,9,Community 2,NA,FALSE,null,f,NA,NA,NA,2,6,"5,2,14,1,13,11,6,4,9,10,12,15,3,8,7"
15034,commdev-image-keyboard-response,495,857338,learnblock2,708,img/planet10_left.png,10,Community 2,NA,TRUE,f,f,NA,NA,NA,2,6,"5,2,14,1,13,11,6,4,9,10,12,15,3,8,7"
15034,commdev-image-keyboard-response,496,858591,learnblock2,512.2000000029802,img/planet11_left.png,11,Community 2,NA,TRUE,f,f,NA,NA,NA,2,6,"5,2,14,1,13,11,6,4,9,10,12,15,3,8,7"
15034,commdev-image-keyboard-response,497,859843,learnblock2,732.1000000089407,img/planet10_right.png,10,Community 2,NA,TRUE,j,j,NA,NA,NA,2,6,"5,2,14,1,13,11,6,4,9,10,12,15,3,8,7"
15034,commdev-image-keyboard-response,498,861097,learnblock2,1210.9000000059605,img/planet11_left.png,11,Community 2,NA,TRUE,f,f,NA,NA,NA,2,6,"5,2,14,1,13,11,6,4,9,10,12,15,3,8,7"
15034,commdev-image-keyboard-response,499,862350,learnblock2,627,img/planet1_left.png,1,Community 1,NA,TRUE,f,f,NA,NA,NA,2,6,"5,2,14,1,13,11,6,4,9,10,12,15,3,8,7"
15034,commdev-image-keyboard-response,500,863601,learnblock2,717.4000000059605,img/planet2_right.png,2,Community 1,NA,TRUE,j,j,NA,NA,NA,2,6,"5,2,14,1,13,11,6,4,9,10,12,15,3,8,7"
15034,commdev-image-keyboard-response,501,864856,learnblock2,null,img/planet14_left.png,14,Community 1,NA,FALSE,null,f,NA,NA,NA,2,6,"5,2,14,1,13,11,6,4,9,10,12,15,3,8,7"
15034,commdev-image-keyboard-response,502,866108,learnblock2,null,img/planet1_left.png,1,Community 1,NA,FALSE,null,f,NA,NA,NA,2,6,"5,2,14,1,13,11,6,4,9,10,12,15,3,8,7"
15034,commdev-image-keyboard-response,503,867361,learnblock2,986.5,img/planet2_right.png,2,Community 1,NA,FALSE,f,j,NA,NA,NA,2,6,"5,2,14,1,13,11,6,4,9,10,12,15,3,8,7"
15034,commdev-image-keyboard-response,504,868613,learnblock2,638.5999999940395,img/planet5_right.png,5,Community 1,NA,TRUE,j,j,NA,NA,NA,2,6,"5,2,14,1,13,11,6,4,9,10,12,15,3,8,7"
15034,commdev-image-keyboard-response,505,869865,learnblock2,819.7000000029802,img/planet13_right.png,13,Community 1,NA,TRUE,j,j,NA,NA,NA,2,6,"5,2,14,1,13,11,6,4,9,10,12,15,3,8,7"
15034,commdev-image-keyboard-response,506,871117,learnblock2,560.1999999880791,img/planet2_left.png,2,Community 1,NA,TRUE,f,f,NA,NA,NA,2,6,"5,2,14,1,13,11,6,4,9,10,12,15,3,8,7"
15034,commdev-image-keyboard-response,507,872369,learnblock2,820.7999999970198,img/planet1_left.png,1,Community 1,NA,TRUE,f,f,NA,NA,NA,2,6,"5,2,14,1,13,11,6,4,9,10,12,15,3,8,7"
15034,commdev-image-keyboard-response,508,873622,learnblock2,544.5,img/planet2_left.png,2,Community 1,NA,TRUE,f,f,NA,NA,NA,2,6,"5,2,14,1,13,11,6,4,9,10,12,15,3,8,7"
15034,commdev-image-keyboard-response,509,874876,learnblock2,652,img/planet5_right.png,5,Community 1,NA,TRUE,j,j,NA,NA,NA,2,6,"5,2,14,1,13,11,6,4,9,10,12,15,3,8,7"
15034,commdev-image-keyboard-response,510,876130,learnblock2,736.7999999970198,img/planet14_right.png,14,Community 1,NA,TRUE,j,j,NA,NA,NA,2,6,"5,2,14,1,13,11,6,4,9,10,12,15,3,8,7"
15034,commdev-image-keyboard-response,511,877388,learnblock2,738,img/planet2_right.png,2,Community 1,NA,TRUE,j,j,NA,NA,NA,2,6,"5,2,14,1,13,11,6,4,9,10,12,15,3,8,7"
15034,commdev-image-keyboard-response,512,878642,learnblock2,717.7999999970198,img/planet13_right.png,13,Community 1,NA,TRUE,j,j,NA,NA,NA,2,6,"5,2,14,1,13,11,6,4,9,10,12,15,3,8,7"
15034,commdev-image-keyboard-response,513,879893,learnblock2,641.4000000059605,img/planet5_right.png,5,Community 1,NA,TRUE,j,j,NA,NA,NA,2,6,"5,2,14,1,13,11,6,4,9,10,12,15,3,8,7"
15034,commdev-image-keyboard-response,514,881145,learnblock2,693.7000000029802,img/planet1_right.png,1,Community 1,NA,TRUE,j,j,NA,NA,NA,2,6,"5,2,14,1,13,11,6,4,9,10,12,15,3,8,7"
15034,commdev-image-keyboard-response,515,882397,learnblock2,556.5999999940395,img/planet2_right.png,2,Community 1,NA,TRUE,j,j,NA,NA,NA,2,6,"5,2,14,1,13,11,6,4,9,10,12,15,3,8,7"
15034,commdev-image-keyboard-response,516,883663,learnblock2,577.9000000059605,img/planet13_left.png,13,Community 1,NA,TRUE,f,f,NA,NA,NA,2,6,"5,2,14,1,13,11,6,4,9,10,12,15,3,8,7"
15034,commdev-image-keyboard-response,517,884914,learnblock2,null,img/planet2_left.png,2,Community 1,NA,FALSE,null,f,NA,NA,NA,2,6,"5,2,14,1,13,11,6,4,9,10,12,15,3,8,7"
15034,commdev-image-keyboard-response,518,886166,learnblock2,669.0999999940395,img/planet1_left.png,1,Community 1,NA,TRUE,f,f,NA,NA,NA,2,6,"5,2,14,1,13,11,6,4,9,10,12,15,3,8,7"
15034,commdev-image-keyboard-response,519,887418,learnblock2,589.8999999910593,img/planet5_right.png,5,Community 1,NA,TRUE,j,j,NA,NA,NA,2,6,"5,2,14,1,13,11,6,4,9,10,12,15,3,8,7"
15034,commdev-image-keyboard-response,520,888671,learnblock2,934,img/planet1_right.png,1,Community 1,NA,TRUE,j,j,NA,NA,NA,2,6,"5,2,14,1,13,11,6,4,9,10,12,15,3,8,7"
15034,commdev-image-keyboard-response,521,889923,learnblock2,null,img/planet2_left.png,2,Community 1,NA,FALSE,null,f,NA,NA,NA,2,6,"5,2,14,1,13,11,6,4,9,10,12,15,3,8,7"
15034,commdev-image-keyboard-response,522,891175,learnblock2,null,img/planet14_left.png,14,Community 1,NA,FALSE,null,f,NA,NA,NA,2,6,"5,2,14,1,13,11,6,4,9,10,12,15,3,8,7"
15034,commdev-image-keyboard-response,523,892428,learnblock2,662.5999999940395,img/planet13_left.png,13,Community 1,NA,TRUE,f,f,NA,NA,NA,2,6,"5,2,14,1,13,11,6,4,9,10,12,15,3,8,7"
15034,commdev-image-keyboard-response,524,893688,learnblock2,574,img/planet2_left.png,2,Community 1,NA,TRUE,f,f,NA,NA,NA,2,6,"5,2,14,1,13,11,6,4,9,10,12,15,3,8,7"
15034,commdev-image-keyboard-response,525,894939,learnblock2,628.6000000089407,img/planet1_left.png,1,Community 1,NA,TRUE,f,f,NA,NA,NA,2,6,"5,2,14,1,13,11,6,4,9,10,12,15,3,8,7"
15034,commdev-image-keyboard-response,526,896192,learnblock2,846.9000000059605,img/planet5_left.png,5,Community 1,NA,TRUE,f,f,NA,NA,NA,2,6,"5,2,14,1,13,11,6,4,9,10,12,15,3,8,7"
15034,commdev-image-keyboard-response,527,897445,learnblock2,932.2000000029802,img/planet13_right.png,13,Community 1,NA,TRUE,j,j,NA,NA,NA,2,6,"5,2,14,1,13,11,6,4,9,10,12,15,3,8,7"
15034,commdev-image-keyboard-response,528,898700,learnblock2,null,img/planet14_left.png,14,Community 1,NA,FALSE,null,f,NA,NA,NA,2,6,"5,2,14,1,13,11,6,4,9,10,12,15,3,8,7"
15034,commdev-image-keyboard-response,529,899953,learnblock2,null,img/planet1_right.png,1,Community 1,NA,FALSE,null,j,NA,NA,NA,2,6,"5,2,14,1,13,11,6,4,9,10,12,15,3,8,7"
15034,commdev-image-keyboard-response,530,901205,learnblock2,24.100000008940697,img/planet5_right.png,5,Community 1,NA,TRUE,j,j,NA,NA,NA,2,6,"5,2,14,1,13,11,6,4,9,10,12,15,3,8,7"
15034,commdev-image-keyboard-response,531,902456,learnblock2,659,img/planet1_right.png,1,Community 1,NA,TRUE,j,j,NA,NA,NA,2,6,"5,2,14,1,13,11,6,4,9,10,12,15,3,8,7"
15034,commdev-image-keyboard-response,532,903709,learnblock2,870.3999999910593,img/planet11_right.png,11,Community 2,NA,TRUE,j,j,NA,NA,NA,2,6,"5,2,14,1,13,11,6,4,9,10,12,15,3,8,7"
15034,commdev-image-keyboard-response,533,904963,learnblock2,788.0999999940395,img/planet9_left.png,9,Community 2,NA,TRUE,f,f,NA,NA,NA,2,6,"5,2,14,1,13,11,6,4,9,10,12,15,3,8,7"
15034,commdev-image-keyboard-response,534,906215,learnblock2,822,img/planet4_right.png,4,Community 2,NA,TRUE,j,j,NA,NA,NA,2,6,"5,2,14,1,13,11,6,4,9,10,12,15,3,8,7"
15034,commdev-image-keyboard-response,535,907468,learnblock2,582.3999999910593,img/planet10_right.png,10,Community 2,NA,TRUE,j,j,NA,NA,NA,2,6,"5,2,14,1,13,11,6,4,9,10,12,15,3,8,7"
15034,commdev-image-keyboard-response,536,908722,learnblock2,812.2000000029802,img/planet11_right.png,11,Community 2,NA,TRUE,j,j,NA,NA,NA,2,6,"5,2,14,1,13,11,6,4,9,10,12,15,3,8,7"
15034,commdev-image-keyboard-response,537,909974,learnblock2,558.0999999940395,img/planet10_right.png,10,Community 2,NA,TRUE,j,j,NA,NA,NA,2,6,"5,2,14,1,13,11,6,4,9,10,12,15,3,8,7"
15034,commdev-image-keyboard-response,538,911228,learnblock2,630.3999999910593,img/planet4_left.png,4,Community 2,NA,TRUE,f,f,NA,NA,NA,2,6,"5,2,14,1,13,11,6,4,9,10,12,15,3,8,7"
15034,commdev-image-keyboard-response,539,912480,learnblock2,842.2000000029802,img/planet10_right.png,10,Community 2,NA,TRUE,j,j,NA,NA,NA,2,6,"5,2,14,1,13,11,6,4,9,10,12,15,3,8,7"
15034,commdev-image-keyboard-response,540,913733,learnblock2,811.8999999910593,img/planet9_left.png,9,Community 2,NA,TRUE,f,f,NA,NA,NA,2,6,"5,2,14,1,13,11,6,4,9,10,12,15,3,8,7"
15034,commdev-image-keyboard-response,541,914985,learnblock2,753.3999999910593,img/planet4_right.png,4,Community 2,NA,TRUE,j,j,NA,NA,NA,2,6,"5,2,14,1,13,11,6,4,9,10,12,15,3,8,7"
15034,commdev-image-keyboard-response,542,916239,learnblock2,965.2000000029802,img/planet6_right.png,6,Community 2,NA,TRUE,j,j,NA,NA,NA,2,6,"5,2,14,1,13,11,6,4,9,10,12,15,3,8,7"
15034,commdev-image-keyboard-response,543,917491,learnblock2,683.0999999940395,img/planet10_right.png,10,Community 2,NA,TRUE,j,j,NA,NA,NA,2,6,"5,2,14,1,13,11,6,4,9,10,12,15,3,8,7"
15034,commdev-image-keyboard-response,544,918743,learnblock2,559.5,img/planet9_left.png,9,Community 2,NA,TRUE,f,f,NA,NA,NA,2,6,"5,2,14,1,13,11,6,4,9,10,12,15,3,8,7"
15034,commdev-image-keyboard-response,545,919995,learnblock2,650.8999999910593,img/planet6_left.png,6,Community 2,NA,TRUE,f,f,NA,NA,NA,2,6,"5,2,14,1,13,11,6,4,9,10,12,15,3,8,7"
15034,commdev-image-keyboard-response,546,921247,learnblock2,598.2000000029802,img/planet11_right.png,11,Community 2,NA,TRUE,j,j,NA,NA,NA,2,6,"5,2,14,1,13,11,6,4,9,10,12,15,3,8,7"
15034,commdev-image-keyboard-response,547,922502,learnblock2,710.2000000029802,img/planet10_left.png,10,Community 2,NA,TRUE,f,f,NA,NA,NA,2,6,"5,2,14,1,13,11,6,4,9,10,12,15,3,8,7"
15034,commdev-image-keyboard-response,548,923767,learnblock2,1236,img/planet6_left.png,6,Community 2,NA,FALSE,j,f,NA,NA,NA,2,6,"5,2,14,1,13,11,6,4,9,10,12,15,3,8,7"
15034,commdev-image-keyboard-response,549,925021,learnblock2,803.5,img/planet9_left.png,9,Community 2,NA,TRUE,f,f,NA,NA,NA,2,6,"5,2,14,1,13,11,6,4,9,10,12,15,3,8,7"
15034,commdev-image-keyboard-response,550,926274,learnblock2,531.4000000059605,img/planet10_left.png,10,Community 2,NA,TRUE,f,f,NA,NA,NA,2,6,"5,2,14,1,13,11,6,4,9,10,12,15,3,8,7"
15034,commdev-image-keyboard-response,551,927525,learnblock2,962,img/planet6_left.png,6,Community 2,NA,TRUE,f,f,NA,NA,NA,2,6,"5,2,14,1,13,11,6,4,9,10,12,15,3,8,7"
15034,commdev-image-keyboard-response,552,928778,learnblock2,808.7999999970198,img/planet10_left.png,10,Community 2,NA,TRUE,f,f,NA,NA,NA,2,6,"5,2,14,1,13,11,6,4,9,10,12,15,3,8,7"
15034,commdev-image-keyboard-response,553,930030,learnblock2,835.4000000059605,img/planet11_left.png,11,Community 2,NA,TRUE,f,f,NA,NA,NA,2,6,"5,2,14,1,13,11,6,4,9,10,12,15,3,8,7"
15034,commdev-image-keyboard-response,554,931284,learnblock2,702.6000000089407,img/planet10_right.png,10,Community 2,NA,TRUE,j,j,NA,NA,NA,2,6,"5,2,14,1,13,11,6,4,9,10,12,15,3,8,7"
15034,commdev-image-keyboard-response,555,932537,learnblock2,590.7999999970198,img/planet9_right.png,9,Community 2,NA,TRUE,j,j,NA,NA,NA,2,6,"5,2,14,1,13,11,6,4,9,10,12,15,3,8,7"
15034,commdev-image-keyboard-response,556,933790,learnblock2,557.3000000119209,img/planet6_left.png,6,Community 2,NA,TRUE,f,f,NA,NA,NA,2,6,"5,2,14,1,13,11,6,4,9,10,12,15,3,8,7"
15034,commdev-image-keyboard-response,557,935042,learnblock2,621,img/planet4_left.png,4,Community 2,NA,TRUE,f,f,NA,NA,NA,2,6,"5,2,14,1,13,11,6,4,9,10,12,15,3,8,7"
15034,commdev-image-keyboard-response,558,936295,learnblock2,null,img/planet15_left.png,15,Community 3,NA,FALSE,null,f,NA,NA,NA,2,6,"5,2,14,1,13,11,6,4,9,10,12,15,3,8,7"
15034,commdev-image-keyboard-response,559,937549,learnblock2,1108.2999999970198,img/planet7_right.png,7,Community 3,NA,TRUE,j,j,NA,NA,NA,2,6,"5,2,14,1,13,11,6,4,9,10,12,15,3,8,7"
15034,commdev-image-keyboard-response,560,938802,learnblock2,720.1000000089407,img/planet3_right.png,3,Community 3,NA,TRUE,j,j,NA,NA,NA,2,6,"5,2,14,1,13,11,6,4,9,10,12,15,3,8,7"
15034,commdev-image-keyboard-response,561,940067,learnblock2,819,img/planet15_right.png,15,Community 3,NA,TRUE,j,j,NA,NA,NA,2,6,"5,2,14,1,13,11,6,4,9,10,12,15,3,8,7"
15034,commdev-image-keyboard-response,562,941320,learnblock2,562.5999999940395,img/planet7_right.png,7,Community 3,NA,TRUE,j,j,NA,NA,NA,2,6,"5,2,14,1,13,11,6,4,9,10,12,15,3,8,7"
15034,commdev-image-keyboard-response,563,942573,learnblock2,584,img/planet8_left.png,8,Community 3,NA,TRUE,f,f,NA,NA,NA,2,6,"5,2,14,1,13,11,6,4,9,10,12,15,3,8,7"
15034,commdev-image-keyboard-response,564,943831,learnblock2,902.7000000029802,img/planet7_right.png,7,Community 3,NA,TRUE,j,j,NA,NA,NA,2,6,"5,2,14,1,13,11,6,4,9,10,12,15,3,8,7"
15034,commdev-image-keyboard-response,565,945083,learnblock2,684.7999999970198,img/planet12_left.png,12,Community 3,NA,TRUE,f,f,NA,NA,NA,2,6,"5,2,14,1,13,11,6,4,9,10,12,15,3,8,7"
15034,commdev-image-keyboard-response,566,946344,learnblock2,855.5,img/planet3_left.png,3,Community 3,NA,TRUE,f,f,NA,NA,NA,2,6,"5,2,14,1,13,11,6,4,9,10,12,15,3,8,7"
15034,commdev-image-keyboard-response,567,947597,learnblock2,836.2999999970198,img/planet8_left.png,8,Community 3,NA,TRUE,f,f,NA,NA,NA,2,6,"5,2,14,1,13,11,6,4,9,10,12,15,3,8,7"
15034,commdev-image-keyboard-response,568,948849,learnblock2,958.5999999940395,img/planet12_left.png,12,Community 3,NA,TRUE,f,f,NA,NA,NA,2,6,"5,2,14,1,13,11,6,4,9,10,12,15,3,8,7"
15034,commdev-image-keyboard-response,569,950100,learnblock2,null,img/planet13_left.png,13,Community 1,NA,FALSE,null,f,NA,NA,NA,2,6,"5,2,14,1,13,11,6,4,9,10,12,15,3,8,7"
15034,commdev-image-keyboard-response,570,951354,learnblock2,1142.0999999940395,img/planet2_left.png,2,Community 1,NA,TRUE,f,f,NA,NA,NA,2,6,"5,2,14,1,13,11,6,4,9,10,12,15,3,8,7"
15034,commdev-image-keyboard-response,571,952607,learnblock2,863.2999999970198,img/planet13_left.png,13,Community 1,NA,TRUE,f,f,NA,NA,NA,2,6,"5,2,14,1,13,11,6,4,9,10,12,15,3,8,7"
15034,commdev-image-keyboard-response,572,953859,learnblock2,764.5,img/planet2_left.png,2,Community 1,NA,TRUE,f,f,NA,NA,NA,2,6,"5,2,14,1,13,11,6,4,9,10,12,15,3,8,7"
15034,commdev-image-keyboard-response,573,955112,learnblock2,680.7000000029802,img/planet5_right.png,5,Community 1,NA,TRUE,j,j,NA,NA,NA,2,6,"5,2,14,1,13,11,6,4,9,10,12,15,3,8,7"
15034,commdev-image-keyboard-response,574,956366,learnblock2,707.5,img/planet14_left.png,14,Community 1,NA,FALSE,j,f,NA,NA,NA,2,6,"5,2,14,1,13,11,6,4,9,10,12,15,3,8,7"
15034,commdev-image-keyboard-response,575,957618,learnblock2,494.1000000089407,img/planet2_right.png,2,Community 1,NA,TRUE,j,j,NA,NA,NA,2,6,"5,2,14,1,13,11,6,4,9,10,12,15,3,8,7"
15034,commdev-image-keyboard-response,576,958870,learnblock2,780.5,img/planet14_left.png,14,Community 1,NA,TRUE,f,f,NA,NA,NA,2,6,"5,2,14,1,13,11,6,4,9,10,12,15,3,8,7"
15034,commdev-image-keyboard-response,577,960122,learnblock2,996.7999999970198,img/planet2_left.png,2,Community 1,NA,TRUE,f,f,NA,NA,NA,2,6,"5,2,14,1,13,11,6,4,9,10,12,15,3,8,7"
15034,commdev-image-keyboard-response,578,961375,learnblock2,683.5,img/planet5_right.png,5,Community 1,NA,TRUE,j,j,NA,NA,NA,2,6,"5,2,14,1,13,11,6,4,9,10,12,15,3,8,7"
15034,commdev-image-keyboard-response,579,962627,learnblock2,null,img/planet2_right.png,2,Community 1,NA,FALSE,null,j,NA,NA,NA,2,6,"5,2,14,1,13,11,6,4,9,10,12,15,3,8,7"
15034,commdev-image-keyboard-response,580,963879,learnblock2,835.5999999940395,img/planet14_left.png,14,Community 1,NA,TRUE,f,f,NA,NA,NA,2,6,"5,2,14,1,13,11,6,4,9,10,12,15,3,8,7"
15034,commdev-image-keyboard-response,581,965131,learnblock2,500.8999999910593,img/planet2_right.png,2,Community 1,NA,TRUE,j,j,NA,NA,NA,2,6,"5,2,14,1,13,11,6,4,9,10,12,15,3,8,7"
15034,commdev-image-keyboard-response,582,966384,learnblock2,648.7999999970198,img/planet1_left.png,1,Community 1,NA,TRUE,f,f,NA,NA,NA,2,6,"5,2,14,1,13,11,6,4,9,10,12,15,3,8,7"
15034,commdev-image-keyboard-response,583,967652,learnblock2,673.7999999970198,img/planet5_right.png,5,Community 1,NA,TRUE,j,j,NA,NA,NA,2,6,"5,2,14,1,13,11,6,4,9,10,12,15,3,8,7"
15034,commdev-image-keyboard-response,584,968905,learnblock2,496.40000000596046,img/planet2_right.png,2,Community 1,NA,TRUE,j,j,NA,NA,NA,2,6,"5,2,14,1,13,11,6,4,9,10,12,15,3,8,7"
15034,commdev-image-keyboard-response,585,970157,learnblock2,751.3999999910593,img/planet13_right.png,13,Community 1,NA,TRUE,j,j,NA,NA,NA,2,6,"5,2,14,1,13,11,6,4,9,10,12,15,3,8,7"
15034,commdev-image-keyboard-response,586,971408,learnblock2,521.7999999970198,img/planet5_right.png,5,Community 1,NA,TRUE,j,j,NA,NA,NA,2,6,"5,2,14,1,13,11,6,4,9,10,12,15,3,8,7"
15034,commdev-image-keyboard-response,587,972666,learnblock2,881.9000000059605,img/planet13_left.png,13,Community 1,NA,TRUE,f,f,NA,NA,NA,2,6,"5,2,14,1,13,11,6,4,9,10,12,15,3,8,7"
15034,commdev-image-keyboard-response,588,973919,learnblock2,null,img/planet12_right.png,12,Community 3,NA,FALSE,null,j,NA,NA,NA,2,6,"5,2,14,1,13,11,6,4,9,10,12,15,3,8,7"
