subject_id,trial_type,trial_index,time_elapsed,block,rt,stimulus,planet,community,response,correct,key_press,learning_correct_response,parse,init_locations,final_locations,browser_interactions,num_comp,planet_map
14927,commdev-instructions,7,40058,NA,2637.699999809265,"<p>In this game, you will be shown a 3x3 grid of patterns.</p> <p>The last one in the bottom right-hand corner, <strong>will be missing:</strong></p> <div style='width: 700px;'><div style='float: top;'><img style='width: 200px;' src='practice/p1_M1.png'></img><p class='small'>You need to select<strong> which of the four possible patterns </strong>along the bottom<strong> fits into the gap:</strong></p></div><div style='float: top;'><img style='width: 300px;' src='practice/p1_T1.png'></img></div><br>",NA,NA,NA,NA,NA,NA,NA,NA,NA,9,9,"1,8,14,9,2,11,3,5,6,15,7,13,12,10,4"
14927,commdev-instructions,8,61828,NA,3795.199999809265,"<p>Try to be as fast and as accurate as you can be.</p> <p>If you cannot solve the puzzle then you should guess - you will not be penalised for an incorrect answer.</p> <p>The task contains a shuffled mix of easy, medium and hard puzzles.</p> <p>You will have <strong>30 seconds</strong> to complete each puzzle.</p><br>",NA,NA,NA,NA,NA,NA,NA,NA,NA,9,9,"1,8,14,9,2,11,3,5,6,15,7,13,12,10,4"
14927,commdev-instructions,15,90547,NA,1281.6000001430511,<p><strong>Success!</strong></p> <p>You seem to be getting the hang of this...</p> <p>Let's move on to the real trials.</p><br>,NA,NA,NA,NA,NA,NA,NA,NA,NA,9,9,"1,8,14,9,2,11,3,5,6,15,7,13,12,10,4"
14927,commdev-instructions,178,569835,NA,4689.5,"<p>In this game, you are a scientist on board a space shuttle. </p><p> On each mission, you will visit planets all across the universe.</p><img src=""img/controlroom.jpg"" width=300vw>",NA,NA,NA,NA,NA,NA,NA,NA,NA,9,9,"1,8,14,9,2,11,3,5,6,15,7,13,12,10,4"
14927,commdev-instructions,179,570663,NA,NA,NA,NA,NA,NA,NA,NA,NA,NA,NA,NA,9,9,"1,8,14,9,2,11,3,5,6,15,7,13,12,10,4"
14927,commdev-instructions,191,724232,NA,9224.700000047684,"<p>Great, now try a short practice mission. </p><p> This time, you will have 1 second to respond and you won't know whether you pressed the right or wrong key for each planet.</p>",NA,NA,NA,NA,NA,NA,NA,NA,NA,9,9,"1,8,14,9,2,11,3,5,6,15,7,13,12,10,4"
14927,commdev-image-keyboard-response,192,725599,practice,1064.5,img/practice1_left.png,NA,Number not found in mappings,NA,FALSE,j,f,NA,NA,NA,9,9,"1,8,14,9,2,11,3,5,6,15,7,13,12,10,4"
14927,commdev-image-keyboard-response,193,726852,practice,261.7999999523163,img/practice3_right.png,NA,Number not found in mappings,NA,TRUE,j,j,NA,NA,NA,9,9,"1,8,14,9,2,11,3,5,6,15,7,13,12,10,4"
14927,commdev-image-keyboard-response,194,728116,practice,544.7000000476837,img/practice1_left.png,NA,Number not found in mappings,NA,TRUE,f,f,NA,NA,NA,9,9,"1,8,14,9,2,11,3,5,6,15,7,13,12,10,4"
14927,commdev-image-keyboard-response,195,729371,practice,363.2000000476837,img/practice3_right.png,NA,Number not found in mappings,NA,FALSE,f,j,NA,NA,NA,9,9,"1,8,14,9,2,11,3,5,6,15,7,13,12,10,4"
14927,commdev-image-keyboard-response,196,730623,practice,517.7000000476837,img/practice4_left.png,NA,Number not found in mappings,NA,FALSE,j,f,NA,NA,NA,9,9,"1,8,14,9,2,11,3,5,6,15,7,13,12,10,4"
14927,commdev-image-keyboard-response,197,731875,practice,562.8999998569489,img/practice1_left.png,NA,Number not found in mappings,NA,TRUE,f,f,NA,NA,NA,9,9,"1,8,14,9,2,11,3,5,6,15,7,13,12,10,4"
14927,commdev-image-keyboard-response,198,733141,practice,182.30000019073486,img/practice4_right.png,NA,Number not found in mappings,NA,FALSE,f,j,NA,NA,NA,9,9,"1,8,14,9,2,11,3,5,6,15,7,13,12,10,4"
14927,commdev-image-keyboard-response,199,734405,practice,400.10000014305115,img/practice3_left.png,NA,Number not found in mappings,NA,FALSE,j,f,NA,NA,NA,9,9,"1,8,14,9,2,11,3,5,6,15,7,13,12,10,4"
14927,commdev-instructions,200,745447,NA,1488.5,"<p>Great job with the practice round.</p><p>During real missions, you won't know whether you pressed the right or wrong key for each planet.</p><p>But between missions, we will tell you how you did overall.</p>",NA,NA,NA,NA,NA,NA,NA,NA,NA,9,9,"1,8,14,9,2,11,3,5,6,15,7,13,12,10,4"
14927,commdev-instructions,201,754569,NA,882.0999999046326,<p>Try your best! You will be paid a bonus based on how many correct responses you make!</p><p>Responses that are too slow will not count toward your bonus.</p>,NA,NA,NA,NA,NA,NA,NA,NA,NA,9,9,"1,8,14,9,2,11,3,5,6,15,7,13,12,10,4"
14927,commdev-instructions,202,762226,NA,1445.6000001430511,"<p>You are almost ready to start the real game.</p><p> First, we are going to ask you some questions about how the game works.</p>",NA,NA,NA,NA,NA,NA,NA,NA,NA,9,9,"1,8,14,9,2,11,3,5,6,15,7,13,12,10,4"
14927,commdev-instructions,217,906360,NA,10339.799999952316,"<p> Nice work! It is now time to start the real game.<p></p>You will go on two missions to record wind directions of different planets.<p></p>Each one will take about 5 minutes. You will get to take a break between missions.<p><p> Remember, press <strong>F</strong> or <strong>J</strong> depending on the wind direction. Good luck!<br><img src=""img/categorize_planet_example.png""",NA,NA,NA,NA,NA,NA,NA,NA,NA,9,9,"1,8,14,9,2,11,3,5,6,15,7,13,12,10,4"
14927,commdev-image-keyboard-response,219,915396,learnblock1,null,img/planet13_right.png,13,Community 3,NA,FALSE,null,j,NA,NA,NA,9,9,"1,8,14,9,2,11,3,5,6,15,7,13,12,10,4"
14927,commdev-image-keyboard-response,220,916660,learnblock1,224.09999990463257,img/planet4_left.png,4,Community 3,NA,FALSE,j,f,NA,NA,NA,9,9,"1,8,14,9,2,11,3,5,6,15,7,13,12,10,4"
14927,commdev-image-keyboard-response,221,917913,learnblock1,678.5,img/planet7_left.png,7,Community 3,NA,FALSE,j,f,NA,NA,NA,9,9,"1,8,14,9,2,11,3,5,6,15,7,13,12,10,4"
14927,commdev-image-keyboard-response,222,919178,learnblock1,80.60000014305115,img/planet4_left.png,4,Community 3,NA,TRUE,f,f,NA,NA,NA,9,9,"1,8,14,9,2,11,3,5,6,15,7,13,12,10,4"
14927,commdev-image-keyboard-response,223,920441,learnblock1,768.7000000476837,img/planet10_left.png,10,Community 3,NA,TRUE,f,f,NA,NA,NA,9,9,"1,8,14,9,2,11,3,5,6,15,7,13,12,10,4"
14927,commdev-image-keyboard-response,224,921701,learnblock1,1100.2000000476837,img/planet4_right.png,4,Community 3,NA,TRUE,j,j,NA,NA,NA,9,9,"1,8,14,9,2,11,3,5,6,15,7,13,12,10,4"
14927,commdev-image-keyboard-response,225,922959,learnblock1,586.5,img/planet10_left.png,10,Community 3,NA,TRUE,f,f,NA,NA,NA,9,9,"1,8,14,9,2,11,3,5,6,15,7,13,12,10,4"
14927,commdev-image-keyboard-response,226,924218,learnblock1,1228.1000001430511,img/planet12_right.png,12,Community 3,NA,TRUE,j,j,NA,NA,NA,9,9,"1,8,14,9,2,11,3,5,6,15,7,13,12,10,4"
14927,commdev-image-keyboard-response,227,925476,learnblock1,667.9000000953674,img/planet13_left.png,13,Community 3,NA,TRUE,f,f,NA,NA,NA,9,9,"1,8,14,9,2,11,3,5,6,15,7,13,12,10,4"
14927,commdev-image-keyboard-response,228,926730,learnblock1,631.5,img/planet10_right.png,10,Community 3,NA,TRUE,j,j,NA,NA,NA,9,9,"1,8,14,9,2,11,3,5,6,15,7,13,12,10,4"
14927,commdev-image-keyboard-response,229,927984,learnblock1,290.7000000476837,img/planet4_right.png,4,Community 3,NA,FALSE,f,j,NA,NA,NA,9,9,"1,8,14,9,2,11,3,5,6,15,7,13,12,10,4"
14927,commdev-image-keyboard-response,230,929238,learnblock1,17.899999856948853,img/planet7_left.png,7,Community 3,NA,FALSE,j,f,NA,NA,NA,9,9,"1,8,14,9,2,11,3,5,6,15,7,13,12,10,4"
14927,commdev-image-keyboard-response,231,930490,learnblock1,352.60000014305115,img/planet12_right.png,12,Community 3,NA,TRUE,j,j,NA,NA,NA,9,9,"1,8,14,9,2,11,3,5,6,15,7,13,12,10,4"
14927,commdev-image-keyboard-response,232,931754,learnblock1,486.2999999523163,img/planet4_left.png,4,Community 3,NA,TRUE,f,f,NA,NA,NA,9,9,"1,8,14,9,2,11,3,5,6,15,7,13,12,10,4"
14927,commdev-image-keyboard-response,233,933013,learnblock1,705.7000000476837,img/planet7_right.png,7,Community 3,NA,TRUE,j,j,NA,NA,NA,9,9,"1,8,14,9,2,11,3,5,6,15,7,13,12,10,4"
14927,commdev-image-keyboard-response,234,934272,learnblock1,482.2999999523163,img/planet10_right.png,10,Community 3,NA,FALSE,f,j,NA,NA,NA,9,9,"1,8,14,9,2,11,3,5,6,15,7,13,12,10,4"
14927,commdev-image-keyboard-response,235,935526,learnblock1,631.1999998092651,img/planet7_right.png,7,Community 3,NA,FALSE,f,j,NA,NA,NA,9,9,"1,8,14,9,2,11,3,5,6,15,7,13,12,10,4"
14927,commdev-image-keyboard-response,236,936781,learnblock1,800.2999999523163,img/planet12_left.png,12,Community 3,NA,TRUE,f,f,NA,NA,NA,9,9,"1,8,14,9,2,11,3,5,6,15,7,13,12,10,4"
14927,commdev-image-keyboard-response,237,938032,learnblock1,555.1000001430511,img/planet4_right.png,4,Community 3,NA,TRUE,j,j,NA,NA,NA,9,9,"1,8,14,9,2,11,3,5,6,15,7,13,12,10,4"
14927,commdev-image-keyboard-response,238,939291,learnblock1,945.9000000953674,img/planet12_left.png,12,Community 3,NA,TRUE,f,f,NA,NA,NA,9,9,"1,8,14,9,2,11,3,5,6,15,7,13,12,10,4"
14927,commdev-image-keyboard-response,239,940547,learnblock1,924.9000000953674,img/planet7_left.png,7,Community 3,NA,TRUE,f,f,NA,NA,NA,9,9,"1,8,14,9,2,11,3,5,6,15,7,13,12,10,4"
14927,commdev-image-keyboard-response,240,941806,learnblock1,1005.7999999523163,img/planet12_right.png,12,Community 3,NA,TRUE,j,j,NA,NA,NA,9,9,"1,8,14,9,2,11,3,5,6,15,7,13,12,10,4"
14927,commdev-image-keyboard-response,241,943061,learnblock1,553,img/planet10_left.png,10,Community 3,NA,TRUE,f,f,NA,NA,NA,9,9,"1,8,14,9,2,11,3,5,6,15,7,13,12,10,4"
14927,commdev-image-keyboard-response,242,944322,learnblock1,975.2000000476837,img/planet13_left.png,13,Community 3,NA,TRUE,f,f,NA,NA,NA,9,9,"1,8,14,9,2,11,3,5,6,15,7,13,12,10,4"
14927,commdev-image-keyboard-response,243,945579,learnblock1,690.7000000476837,img/planet10_right.png,10,Community 3,NA,FALSE,f,j,NA,NA,NA,9,9,"1,8,14,9,2,11,3,5,6,15,7,13,12,10,4"
14927,commdev-image-keyboard-response,244,946832,learnblock1,1089.7000000476837,img/planet7_right.png,7,Community 3,NA,TRUE,j,j,NA,NA,NA,9,9,"1,8,14,9,2,11,3,5,6,15,7,13,12,10,4"
14927,commdev-image-keyboard-response,245,948090,learnblock1,910.2000000476837,img/planet4_left.png,4,Community 3,NA,TRUE,f,f,NA,NA,NA,9,9,"1,8,14,9,2,11,3,5,6,15,7,13,12,10,4"
14927,commdev-image-keyboard-response,246,949349,learnblock1,637.7000000476837,img/planet7_right.png,7,Community 3,NA,TRUE,j,j,NA,NA,NA,9,9,"1,8,14,9,2,11,3,5,6,15,7,13,12,10,4"
14927,commdev-image-keyboard-response,247,950610,learnblock1,771.1000001430511,img/planet12_left.png,12,Community 3,NA,TRUE,f,f,NA,NA,NA,9,9,"1,8,14,9,2,11,3,5,6,15,7,13,12,10,4"
14927,commdev-image-keyboard-response,248,951871,learnblock1,769.5999999046326,img/planet13_right.png,13,Community 3,NA,TRUE,j,j,NA,NA,NA,9,9,"1,8,14,9,2,11,3,5,6,15,7,13,12,10,4"
14927,commdev-image-keyboard-response,249,953124,learnblock1,973.7999999523163,img/planet10_right.png,10,Community 3,NA,FALSE,f,j,NA,NA,NA,9,9,"1,8,14,9,2,11,3,5,6,15,7,13,12,10,4"
14927,commdev-image-keyboard-response,250,954378,learnblock1,962.3999998569489,img/planet13_left.png,13,Community 3,NA,FALSE,j,f,NA,NA,NA,9,9,"1,8,14,9,2,11,3,5,6,15,7,13,12,10,4"
14927,commdev-image-keyboard-response,251,955632,learnblock1,null,img/planet5_left.png,5,Community 2,NA,FALSE,null,f,NA,NA,NA,9,9,"1,8,14,9,2,11,3,5,6,15,7,13,12,10,4"
14927,commdev-image-keyboard-response,252,956898,learnblock1,293.7000000476837,img/planet6_right.png,6,Community 2,NA,TRUE,j,j,NA,NA,NA,9,9,"1,8,14,9,2,11,3,5,6,15,7,13,12,10,4"
14927,commdev-image-keyboard-response,253,958154,learnblock1,1223.3999998569489,img/planet15_left.png,15,Community 2,NA,TRUE,f,f,NA,NA,NA,9,9,"1,8,14,9,2,11,3,5,6,15,7,13,12,10,4"
14927,commdev-image-keyboard-response,254,959408,learnblock1,685.8000001907349,img/planet6_right.png,6,Community 2,NA,TRUE,j,j,NA,NA,NA,9,9,"1,8,14,9,2,11,3,5,6,15,7,13,12,10,4"
14927,commdev-image-keyboard-response,255,960661,learnblock1,627.0999999046326,img/planet11_left.png,11,Community 2,NA,TRUE,f,f,NA,NA,NA,9,9,"1,8,14,9,2,11,3,5,6,15,7,13,12,10,4"
14927,commdev-image-keyboard-response,256,961919,learnblock1,311.40000009536743,img/planet3_right.png,3,Community 2,NA,TRUE,j,j,NA,NA,NA,9,9,"1,8,14,9,2,11,3,5,6,15,7,13,12,10,4"
14927,commdev-image-keyboard-response,257,963170,learnblock1,302.5,img/planet11_right.png,11,Community 2,NA,FALSE,f,j,NA,NA,NA,9,9,"1,8,14,9,2,11,3,5,6,15,7,13,12,10,4"
14927,commdev-image-keyboard-response,258,964434,learnblock1,102.60000014305115,img/planet6_left.png,6,Community 2,NA,FALSE,j,f,NA,NA,NA,9,9,"1,8,14,9,2,11,3,5,6,15,7,13,12,10,4"
14927,commdev-image-keyboard-response,259,965692,learnblock1,788.8999998569489,img/planet15_right.png,15,Community 2,NA,TRUE,j,j,NA,NA,NA,9,9,"1,8,14,9,2,11,3,5,6,15,7,13,12,10,4"
14927,commdev-image-keyboard-response,260,966951,learnblock1,1089.4000000953674,img/planet6_right.png,6,Community 2,NA,FALSE,f,j,NA,NA,NA,9,9,"1,8,14,9,2,11,3,5,6,15,7,13,12,10,4"
14927,commdev-image-keyboard-response,261,968203,learnblock1,34,img/planet11_right.png,11,Community 2,NA,TRUE,j,j,NA,NA,NA,9,9,"1,8,14,9,2,11,3,5,6,15,7,13,12,10,4"
14927,commdev-image-keyboard-response,262,969455,learnblock1,1127.5999999046326,img/planet15_left.png,15,Community 2,NA,TRUE,f,f,NA,NA,NA,9,9,"1,8,14,9,2,11,3,5,6,15,7,13,12,10,4"
14927,commdev-image-keyboard-response,263,970713,learnblock1,951.5,img/planet3_right.png,3,Community 2,NA,TRUE,j,j,NA,NA,NA,9,9,"1,8,14,9,2,11,3,5,6,15,7,13,12,10,4"
14927,commdev-image-keyboard-response,264,971973,learnblock1,null,img/planet11_right.png,11,Community 2,NA,FALSE,null,j,NA,NA,NA,9,9,"1,8,14,9,2,11,3,5,6,15,7,13,12,10,4"
14927,commdev-image-keyboard-response,265,973231,learnblock1,74.09999990463257,img/planet3_left.png,3,Community 2,NA,TRUE,f,f,NA,NA,NA,9,9,"1,8,14,9,2,11,3,5,6,15,7,13,12,10,4"
14927,commdev-image-keyboard-response,266,974497,learnblock1,701.2000000476837,img/planet15_right.png,15,Community 2,NA,FALSE,f,j,NA,NA,NA,9,9,"1,8,14,9,2,11,3,5,6,15,7,13,12,10,4"
14927,commdev-image-keyboard-response,267,975751,learnblock1,43.5,img/planet11_left.png,11,Community 2,NA,FALSE,j,f,NA,NA,NA,9,9,"1,8,14,9,2,11,3,5,6,15,7,13,12,10,4"
14927,commdev-image-keyboard-response,268,977003,learnblock1,568.5,img/planet6_left.png,6,Community 2,NA,FALSE,j,f,NA,NA,NA,9,9,"1,8,14,9,2,11,3,5,6,15,7,13,12,10,4"
14927,commdev-image-keyboard-response,269,978259,learnblock1,892.7000000476837,img/planet11_left.png,11,Community 2,NA,TRUE,f,f,NA,NA,NA,9,9,"1,8,14,9,2,11,3,5,6,15,7,13,12,10,4"
14927,commdev-image-keyboard-response,270,979511,learnblock1,933.5,img/planet6_right.png,6,Community 2,NA,TRUE,j,j,NA,NA,NA,9,9,"1,8,14,9,2,11,3,5,6,15,7,13,12,10,4"
14927,commdev-image-keyboard-response,271,980767,learnblock1,859.0999999046326,img/planet3_left.png,3,Community 2,NA,TRUE,f,f,NA,NA,NA,9,9,"1,8,14,9,2,11,3,5,6,15,7,13,12,10,4"
14927,commdev-image-keyboard-response,272,982022,learnblock1,922.5,img/planet15_left.png,15,Community 2,NA,TRUE,f,f,NA,NA,NA,9,9,"1,8,14,9,2,11,3,5,6,15,7,13,12,10,4"
14927,commdev-image-keyboard-response,273,983276,learnblock1,833.2999999523163,img/planet6_right.png,6,Community 2,NA,TRUE,j,j,NA,NA,NA,9,9,"1,8,14,9,2,11,3,5,6,15,7,13,12,10,4"
14927,commdev-image-keyboard-response,274,984528,learnblock1,969.7000000476837,img/planet5_right.png,5,Community 2,NA,TRUE,j,j,NA,NA,NA,9,9,"1,8,14,9,2,11,3,5,6,15,7,13,12,10,4"
14927,commdev-image-keyboard-response,275,985788,learnblock1,630.9000000953674,img/planet6_right.png,6,Community 2,NA,TRUE,j,j,NA,NA,NA,9,9,"1,8,14,9,2,11,3,5,6,15,7,13,12,10,4"
14927,commdev-image-keyboard-response,276,987045,learnblock1,699.0999999046326,img/planet15_right.png,15,Community 2,NA,TRUE,j,j,NA,NA,NA,9,9,"1,8,14,9,2,11,3,5,6,15,7,13,12,10,4"
14927,commdev-image-keyboard-response,277,988298,learnblock1,797.2999999523163,img/planet5_left.png,5,Community 2,NA,TRUE,f,f,NA,NA,NA,9,9,"1,8,14,9,2,11,3,5,6,15,7,13,12,10,4"
14927,commdev-image-keyboard-response,278,989554,learnblock1,846,img/planet6_left.png,6,Community 2,NA,TRUE,f,f,NA,NA,NA,9,9,"1,8,14,9,2,11,3,5,6,15,7,13,12,10,4"
14927,commdev-image-keyboard-response,279,990807,learnblock1,917.2000000476837,img/planet11_right.png,11,Community 2,NA,TRUE,j,j,NA,NA,NA,9,9,"1,8,14,9,2,11,3,5,6,15,7,13,12,10,4"
14927,commdev-image-keyboard-response,280,992060,learnblock1,788.2999999523163,img/planet3_left.png,3,Community 2,NA,TRUE,f,f,NA,NA,NA,9,9,"1,8,14,9,2,11,3,5,6,15,7,13,12,10,4"
14927,commdev-image-keyboard-response,281,993317,learnblock1,847.2000000476837,img/planet6_left.png,6,Community 2,NA,TRUE,f,f,NA,NA,NA,9,9,"1,8,14,9,2,11,3,5,6,15,7,13,12,10,4"
14927,commdev-image-keyboard-response,282,994574,learnblock1,910.2000000476837,img/planet5_left.png,5,Community 2,NA,TRUE,f,f,NA,NA,NA,9,9,"1,8,14,9,2,11,3,5,6,15,7,13,12,10,4"
14927,commdev-image-keyboard-response,283,995828,learnblock1,1048.0999999046326,img/planet3_right.png,3,Community 2,NA,TRUE,j,j,NA,NA,NA,9,9,"1,8,14,9,2,11,3,5,6,15,7,13,12,10,4"
14927,commdev-image-keyboard-response,284,997085,learnblock1,1128,img/planet6_right.png,6,Community 2,NA,TRUE,j,j,NA,NA,NA,9,9,"1,8,14,9,2,11,3,5,6,15,7,13,12,10,4"
14927,commdev-image-keyboard-response,285,998345,learnblock1,730.2000000476837,img/planet3_left.png,3,Community 2,NA,TRUE,f,f,NA,NA,NA,9,9,"1,8,14,9,2,11,3,5,6,15,7,13,12,10,4"
14927,commdev-image-keyboard-response,286,999604,learnblock1,889,img/planet6_left.png,6,Community 2,NA,TRUE,f,f,NA,NA,NA,9,9,"1,8,14,9,2,11,3,5,6,15,7,13,12,10,4"
14927,commdev-image-keyboard-response,287,1000856,learnblock1,1048.1000001430511,img/planet11_left.png,11,Community 2,NA,TRUE,f,f,NA,NA,NA,9,9,"1,8,14,9,2,11,3,5,6,15,7,13,12,10,4"
14927,commdev-image-keyboard-response,288,1002111,learnblock1,797.3999998569489,img/planet15_right.png,15,Community 2,NA,TRUE,j,j,NA,NA,NA,9,9,"1,8,14,9,2,11,3,5,6,15,7,13,12,10,4"
14927,commdev-image-keyboard-response,289,1003377,learnblock1,630.1000001430511,img/planet6_right.png,6,Community 2,NA,TRUE,j,j,NA,NA,NA,9,9,"1,8,14,9,2,11,3,5,6,15,7,13,12,10,4"
14927,commdev-image-keyboard-response,290,1004633,learnblock1,842.5999999046326,img/planet3_left.png,3,Community 2,NA,TRUE,f,f,NA,NA,NA,9,9,"1,8,14,9,2,11,3,5,6,15,7,13,12,10,4"
14927,commdev-image-keyboard-response,291,1005887,learnblock1,819.4000000953674,img/planet5_right.png,5,Community 2,NA,TRUE,j,j,NA,NA,NA,9,9,"1,8,14,9,2,11,3,5,6,15,7,13,12,10,4"
14927,commdev-image-keyboard-response,292,1007143,learnblock1,771.5,img/planet13_left.png,13,Community 3,NA,TRUE,f,f,NA,NA,NA,9,9,"1,8,14,9,2,11,3,5,6,15,7,13,12,10,4"
14927,commdev-image-keyboard-response,293,1008395,learnblock1,880.2999999523163,img/planet12_right.png,12,Community 3,NA,TRUE,j,j,NA,NA,NA,9,9,"1,8,14,9,2,11,3,5,6,15,7,13,12,10,4"
14927,commdev-image-keyboard-response,294,1009655,learnblock1,777.7999999523163,img/planet4_right.png,4,Community 3,NA,TRUE,j,j,NA,NA,NA,9,9,"1,8,14,9,2,11,3,5,6,15,7,13,12,10,4"
14927,commdev-image-keyboard-response,295,1010911,learnblock1,748.5,img/planet10_left.png,10,Community 3,NA,TRUE,f,f,NA,NA,NA,9,9,"1,8,14,9,2,11,3,5,6,15,7,13,12,10,4"
14927,commdev-image-keyboard-response,296,1012167,learnblock1,963.5999999046326,img/planet7_left.png,7,Community 3,NA,TRUE,f,f,NA,NA,NA,9,9,"1,8,14,9,2,11,3,5,6,15,7,13,12,10,4"
14927,commdev-image-keyboard-response,297,1013420,learnblock1,718.8999998569489,img/planet2_right.png,2,Community 1,NA,TRUE,j,j,NA,NA,NA,9,9,"1,8,14,9,2,11,3,5,6,15,7,13,12,10,4"
14927,commdev-image-keyboard-response,298,1014677,learnblock1,967.3999998569489,img/planet8_left.png,8,Community 1,NA,TRUE,f,f,NA,NA,NA,9,9,"1,8,14,9,2,11,3,5,6,15,7,13,12,10,4"
14927,commdev-image-keyboard-response,299,1015929,learnblock1,1227.5,img/planet14_right.png,14,Community 1,NA,TRUE,j,j,NA,NA,NA,9,9,"1,8,14,9,2,11,3,5,6,15,7,13,12,10,4"
14927,commdev-image-keyboard-response,300,1017186,learnblock1,985.2000000476837,img/planet2_right.png,2,Community 1,NA,FALSE,f,j,NA,NA,NA,9,9,"1,8,14,9,2,11,3,5,6,15,7,13,12,10,4"
14927,commdev-image-keyboard-response,301,1018439,learnblock1,57.200000047683716,img/planet14_right.png,14,Community 1,NA,TRUE,j,j,NA,NA,NA,9,9,"1,8,14,9,2,11,3,5,6,15,7,13,12,10,4"
14927,commdev-image-keyboard-response,302,1019695,learnblock1,861.5999999046326,img/planet2_left.png,2,Community 1,NA,TRUE,f,f,NA,NA,NA,9,9,"1,8,14,9,2,11,3,5,6,15,7,13,12,10,4"
14927,commdev-image-keyboard-response,303,1020953,learnblock1,839.2000000476837,img/planet14_left.png,14,Community 1,NA,FALSE,j,f,NA,NA,NA,9,9,"1,8,14,9,2,11,3,5,6,15,7,13,12,10,4"
14927,commdev-image-keyboard-response,304,1022211,learnblock1,120.20000004768372,img/planet8_left.png,8,Community 1,NA,TRUE,f,f,NA,NA,NA,9,9,"1,8,14,9,2,11,3,5,6,15,7,13,12,10,4"
14927,commdev-image-keyboard-response,305,1023463,learnblock1,70.20000004768372,img/planet14_left.png,14,Community 1,NA,TRUE,f,f,NA,NA,NA,9,9,"1,8,14,9,2,11,3,5,6,15,7,13,12,10,4"
14927,commdev-image-keyboard-response,306,1024715,learnblock1,1030.8000001907349,img/planet1_left.png,1,Community 1,NA,TRUE,f,f,NA,NA,NA,9,9,"1,8,14,9,2,11,3,5,6,15,7,13,12,10,4"
14927,commdev-image-keyboard-response,307,1025968,learnblock1,834.1000001430511,img/planet9_right.png,9,Community 1,NA,TRUE,j,j,NA,NA,NA,9,9,"1,8,14,9,2,11,3,5,6,15,7,13,12,10,4"
14927,commdev-image-keyboard-response,308,1027220,learnblock1,1114.4000000953674,img/planet8_right.png,8,Community 1,NA,TRUE,j,j,NA,NA,NA,9,9,"1,8,14,9,2,11,3,5,6,15,7,13,12,10,4"
14927,commdev-image-keyboard-response,309,1028481,learnblock1,739,img/planet9_left.png,9,Community 1,NA,TRUE,f,f,NA,NA,NA,9,9,"1,8,14,9,2,11,3,5,6,15,7,13,12,10,4"
14927,commdev-image-keyboard-response,310,1029740,learnblock1,793.5999999046326,img/planet11_left.png,11,Community 2,NA,TRUE,f,f,NA,NA,NA,9,9,"1,8,14,9,2,11,3,5,6,15,7,13,12,10,4"
14927,commdev-image-keyboard-response,311,1030994,learnblock1,893,img/planet6_left.png,6,Community 2,NA,TRUE,f,f,NA,NA,NA,9,9,"1,8,14,9,2,11,3,5,6,15,7,13,12,10,4"
14927,commdev-image-keyboard-response,312,1032253,learnblock1,942.5999999046326,img/planet11_right.png,11,Community 2,NA,TRUE,j,j,NA,NA,NA,9,9,"1,8,14,9,2,11,3,5,6,15,7,13,12,10,4"
14927,commdev-image-keyboard-response,313,1033513,learnblock1,793.2999999523163,img/planet9_right.png,9,Community 1,NA,TRUE,j,j,NA,NA,NA,9,9,"1,8,14,9,2,11,3,5,6,15,7,13,12,10,4"
14927,commdev-image-keyboard-response,314,1034773,learnblock1,958.7000000476837,img/planet14_left.png,14,Community 1,NA,TRUE,f,f,NA,NA,NA,9,9,"1,8,14,9,2,11,3,5,6,15,7,13,12,10,4"
14927,commdev-image-keyboard-response,315,1036031,learnblock1,1017.7000000476837,img/planet1_right.png,1,Community 1,NA,TRUE,j,j,NA,NA,NA,9,9,"1,8,14,9,2,11,3,5,6,15,7,13,12,10,4"
14927,commdev-image-keyboard-response,316,1037285,learnblock1,1144.4000000953674,img/planet14_right.png,14,Community 1,NA,FALSE,f,j,NA,NA,NA,9,9,"1,8,14,9,2,11,3,5,6,15,7,13,12,10,4"
14927,commdev-image-keyboard-response,317,1038537,learnblock1,285.39999985694885,img/planet1_right.png,1,Community 1,NA,TRUE,j,j,NA,NA,NA,9,9,"1,8,14,9,2,11,3,5,6,15,7,13,12,10,4"
14927,commdev-image-keyboard-response,318,1039789,learnblock1,538,img/planet9_left.png,9,Community 1,NA,TRUE,f,f,NA,NA,NA,9,9,"1,8,14,9,2,11,3,5,6,15,7,13,12,10,4"
14927,commdev-image-keyboard-response,319,1041047,learnblock1,623.6000001430511,img/planet1_right.png,1,Community 1,NA,TRUE,j,j,NA,NA,NA,9,9,"1,8,14,9,2,11,3,5,6,15,7,13,12,10,4"
14927,commdev-image-keyboard-response,320,1042301,learnblock1,943.5,img/planet8_left.png,8,Community 1,NA,TRUE,f,f,NA,NA,NA,9,9,"1,8,14,9,2,11,3,5,6,15,7,13,12,10,4"
14927,commdev-image-keyboard-response,321,1043564,learnblock1,677.3999998569489,img/planet2_right.png,2,Community 1,NA,TRUE,j,j,NA,NA,NA,9,9,"1,8,14,9,2,11,3,5,6,15,7,13,12,10,4"
14927,commdev-image-keyboard-response,322,1044818,learnblock1,790.3000001907349,img/planet8_left.png,8,Community 1,NA,TRUE,f,f,NA,NA,NA,9,9,"1,8,14,9,2,11,3,5,6,15,7,13,12,10,4"
14927,commdev-image-keyboard-response,323,1046070,learnblock1,725.2999999523163,img/planet2_left.png,2,Community 1,NA,FALSE,j,f,NA,NA,NA,9,9,"1,8,14,9,2,11,3,5,6,15,7,13,12,10,4"
14927,commdev-image-keyboard-response,324,1047322,learnblock1,117,img/planet14_left.png,14,Community 1,NA,TRUE,f,f,NA,NA,NA,9,9,"1,8,14,9,2,11,3,5,6,15,7,13,12,10,4"
14927,commdev-image-keyboard-response,325,1048586,learnblock1,125.20000004768372,img/planet2_right.png,2,Community 1,NA,FALSE,f,j,NA,NA,NA,9,9,"1,8,14,9,2,11,3,5,6,15,7,13,12,10,4"
14927,commdev-image-keyboard-response,326,1049842,learnblock1,851.9000000953674,img/planet1_right.png,1,Community 1,NA,TRUE,j,j,NA,NA,NA,9,9,"1,8,14,9,2,11,3,5,6,15,7,13,12,10,4"
14927,commdev-image-keyboard-response,327,1051095,learnblock1,607.2000000476837,img/planet2_left.png,2,Community 1,NA,TRUE,f,f,NA,NA,NA,9,9,"1,8,14,9,2,11,3,5,6,15,7,13,12,10,4"
14927,commdev-image-keyboard-response,328,1052353,learnblock1,582.7000000476837,img/planet14_right.png,14,Community 1,NA,TRUE,j,j,NA,NA,NA,9,9,"1,8,14,9,2,11,3,5,6,15,7,13,12,10,4"
14927,commdev-image-keyboard-response,329,1053605,learnblock1,550.5999999046326,img/planet9_left.png,9,Community 1,NA,TRUE,f,f,NA,NA,NA,9,9,"1,8,14,9,2,11,3,5,6,15,7,13,12,10,4"
14927,commdev-image-keyboard-response,330,1054863,learnblock1,689.2000000476837,img/planet1_right.png,1,Community 1,NA,TRUE,j,j,NA,NA,NA,9,9,"1,8,14,9,2,11,3,5,6,15,7,13,12,10,4"
14927,commdev-image-keyboard-response,331,1056116,learnblock1,801.6000001430511,img/planet14_right.png,14,Community 1,NA,FALSE,f,j,NA,NA,NA,9,9,"1,8,14,9,2,11,3,5,6,15,7,13,12,10,4"
14927,commdev-image-keyboard-response,332,1057374,learnblock1,690.6000001430511,img/planet8_right.png,8,Community 1,NA,FALSE,f,j,NA,NA,NA,9,9,"1,8,14,9,2,11,3,5,6,15,7,13,12,10,4"
14927,commdev-image-keyboard-response,333,1058629,learnblock1,904.4000000953674,img/planet2_right.png,2,Community 1,NA,TRUE,j,j,NA,NA,NA,9,9,"1,8,14,9,2,11,3,5,6,15,7,13,12,10,4"
14927,commdev-image-keyboard-response,334,1059885,learnblock1,1040.1000001430511,img/planet8_right.png,8,Community 1,NA,TRUE,j,j,NA,NA,NA,9,9,"1,8,14,9,2,11,3,5,6,15,7,13,12,10,4"
14927,commdev-image-keyboard-response,335,1061138,learnblock1,955.3000001907349,img/planet14_left.png,14,Community 1,NA,TRUE,f,f,NA,NA,NA,9,9,"1,8,14,9,2,11,3,5,6,15,7,13,12,10,4"
14927,commdev-image-keyboard-response,336,1062393,learnblock1,983.1000001430511,img/planet1_right.png,1,Community 1,NA,TRUE,j,j,NA,NA,NA,9,9,"1,8,14,9,2,11,3,5,6,15,7,13,12,10,4"
14927,commdev-image-keyboard-response,337,1063645,learnblock1,789.2000000476837,img/planet14_left.png,14,Community 1,NA,TRUE,f,f,NA,NA,NA,9,9,"1,8,14,9,2,11,3,5,6,15,7,13,12,10,4"
14927,commdev-image-keyboard-response,338,1064906,learnblock1,677.2000000476837,img/planet2_right.png,2,Community 1,NA,TRUE,j,j,NA,NA,NA,9,9,"1,8,14,9,2,11,3,5,6,15,7,13,12,10,4"
14927,commdev-image-keyboard-response,339,1066164,learnblock1,739.2000000476837,img/planet7_right.png,7,Community 3,NA,TRUE,j,j,NA,NA,NA,9,9,"1,8,14,9,2,11,3,5,6,15,7,13,12,10,4"
14927,commdev-image-keyboard-response,340,1067419,learnblock1,967.9000000953674,img/planet4_left.png,4,Community 3,NA,TRUE,f,f,NA,NA,NA,9,9,"1,8,14,9,2,11,3,5,6,15,7,13,12,10,4"
14927,commdev-image-keyboard-response,341,1068676,learnblock1,1049.7999999523163,img/planet12_right.png,12,Community 3,NA,TRUE,j,j,NA,NA,NA,9,9,"1,8,14,9,2,11,3,5,6,15,7,13,12,10,4"
14927,commdev-image-keyboard-response,342,1069934,learnblock1,960.2999999523163,img/planet13_right.png,13,Community 3,NA,TRUE,j,j,NA,NA,NA,9,9,"1,8,14,9,2,11,3,5,6,15,7,13,12,10,4"
14927,commdev-image-keyboard-response,343,1071189,learnblock1,914.2999999523163,img/planet4_left.png,4,Community 3,NA,TRUE,f,f,NA,NA,NA,9,9,"1,8,14,9,2,11,3,5,6,15,7,13,12,10,4"
14927,commdev-image-keyboard-response,344,1072449,learnblock1,764.2999999523163,img/planet7_left.png,7,Community 3,NA,FALSE,j,f,NA,NA,NA,9,9,"1,8,14,9,2,11,3,5,6,15,7,13,12,10,4"
14927,commdev-image-keyboard-response,345,1073701,learnblock1,890.9000000953674,img/planet10_right.png,10,Community 3,NA,TRUE,j,j,NA,NA,NA,9,9,"1,8,14,9,2,11,3,5,6,15,7,13,12,10,4"
14927,commdev-image-keyboard-response,346,1074959,learnblock1,966.4000000953674,img/planet13_right.png,13,Community 3,NA,FALSE,f,j,NA,NA,NA,9,9,"1,8,14,9,2,11,3,5,6,15,7,13,12,10,4"
14927,commdev-image-keyboard-response,347,1076212,learnblock1,893.6999998092651,img/planet5_left.png,5,Community 2,NA,TRUE,f,f,NA,NA,NA,9,9,"1,8,14,9,2,11,3,5,6,15,7,13,12,10,4"
14927,commdev-image-keyboard-response,348,1077466,learnblock1,850.7000000476837,img/planet13_left.png,13,Community 3,NA,TRUE,f,f,NA,NA,NA,9,9,"1,8,14,9,2,11,3,5,6,15,7,13,12,10,4"
14927,commdev-image-keyboard-response,349,1078724,learnblock1,951.3000001907349,img/planet12_left.png,12,Community 3,NA,TRUE,f,f,NA,NA,NA,9,9,"1,8,14,9,2,11,3,5,6,15,7,13,12,10,4"
14927,commdev-image-keyboard-response,350,1079979,learnblock1,989.6000001430511,img/planet10_left.png,10,Community 3,NA,TRUE,f,f,NA,NA,NA,9,9,"1,8,14,9,2,11,3,5,6,15,7,13,12,10,4"
14927,commdev-image-keyboard-response,351,1081239,learnblock1,473.2000000476837,img/planet13_right.png,13,Community 3,NA,TRUE,j,j,NA,NA,NA,9,9,"1,8,14,9,2,11,3,5,6,15,7,13,12,10,4"
14927,commdev-image-keyboard-response,352,1082495,learnblock1,891.8999998569489,img/planet4_left.png,4,Community 3,NA,TRUE,f,f,NA,NA,NA,9,9,"1,8,14,9,2,11,3,5,6,15,7,13,12,10,4"
14927,commdev-image-keyboard-response,353,1083753,learnblock1,710.3000001907349,img/planet10_left.png,10,Community 3,NA,TRUE,f,f,NA,NA,NA,9,9,"1,8,14,9,2,11,3,5,6,15,7,13,12,10,4"
14927,commdev-image-keyboard-response,354,1085013,learnblock1,752.0999999046326,img/planet7_left.png,7,Community 3,NA,TRUE,f,f,NA,NA,NA,9,9,"1,8,14,9,2,11,3,5,6,15,7,13,12,10,4"
14927,commdev-image-keyboard-response,355,1086269,learnblock1,null,img/planet12_right.png,12,Community 3,NA,FALSE,null,j,NA,NA,NA,9,9,"1,8,14,9,2,11,3,5,6,15,7,13,12,10,4"
14927,commdev-image-keyboard-response,356,1087526,learnblock1,70.20000004768372,img/planet10_right.png,10,Community 3,NA,TRUE,j,j,NA,NA,NA,9,9,"1,8,14,9,2,11,3,5,6,15,7,13,12,10,4"
14927,commdev-image-keyboard-response,357,1088783,learnblock1,10.099999904632568,img/planet13_right.png,13,Community 3,NA,FALSE,f,j,NA,NA,NA,9,9,"1,8,14,9,2,11,3,5,6,15,7,13,12,10,4"
14927,commdev-image-keyboard-response,358,1090043,learnblock1,691.3999998569489,img/planet4_right.png,4,Community 3,NA,TRUE,j,j,NA,NA,NA,9,9,"1,8,14,9,2,11,3,5,6,15,7,13,12,10,4"
14927,commdev-image-keyboard-response,359,1091298,learnblock1,661.6999998092651,img/planet12_right.png,12,Community 3,NA,TRUE,j,j,NA,NA,NA,9,9,"1,8,14,9,2,11,3,5,6,15,7,13,12,10,4"
14927,commdev-image-keyboard-response,360,1092558,learnblock1,664.0999999046326,img/planet4_right.png,4,Community 3,NA,TRUE,j,j,NA,NA,NA,9,9,"1,8,14,9,2,11,3,5,6,15,7,13,12,10,4"
14927,commdev-image-keyboard-response,361,1093823,learnblock1,526,img/planet12_left.png,12,Community 3,NA,TRUE,f,f,NA,NA,NA,9,9,"1,8,14,9,2,11,3,5,6,15,7,13,12,10,4"
14927,commdev-image-keyboard-response,362,1095090,learnblock1,568.4000000953674,img/planet10_right.png,10,Community 3,NA,TRUE,j,j,NA,NA,NA,9,9,"1,8,14,9,2,11,3,5,6,15,7,13,12,10,4"
14927,commdev-image-keyboard-response,363,1096347,learnblock1,656.2000000476837,img/planet13_right.png,13,Community 3,NA,TRUE,j,j,NA,NA,NA,9,9,"1,8,14,9,2,11,3,5,6,15,7,13,12,10,4"
14927,commdev-image-keyboard-response,364,1097606,learnblock1,828,img/planet5_right.png,5,Community 2,NA,TRUE,j,j,NA,NA,NA,9,9,"1,8,14,9,2,11,3,5,6,15,7,13,12,10,4"
14927,commdev-image-keyboard-response,365,1098862,learnblock1,991.0999999046326,img/planet13_right.png,13,Community 3,NA,TRUE,j,j,NA,NA,NA,9,9,"1,8,14,9,2,11,3,5,6,15,7,13,12,10,4"
14927,commdev-image-keyboard-response,366,1100116,learnblock1,790.2999999523163,img/planet5_right.png,5,Community 2,NA,TRUE,j,j,NA,NA,NA,9,9,"1,8,14,9,2,11,3,5,6,15,7,13,12,10,4"
14927,commdev-image-keyboard-response,367,1101374,learnblock1,574.7000000476837,img/planet13_left.png,13,Community 3,NA,FALSE,j,f,NA,NA,NA,9,9,"1,8,14,9,2,11,3,5,6,15,7,13,12,10,4"
14927,commdev-image-keyboard-response,368,1102631,learnblock1,832.8999998569489,img/planet10_left.png,10,Community 3,NA,TRUE,f,f,NA,NA,NA,9,9,"1,8,14,9,2,11,3,5,6,15,7,13,12,10,4"
14927,commdev-image-keyboard-response,369,1103884,learnblock1,367.2000000476837,img/planet12_left.png,12,Community 3,NA,TRUE,f,f,NA,NA,NA,9,9,"1,8,14,9,2,11,3,5,6,15,7,13,12,10,4"
14927,commdev-image-keyboard-response,370,1105148,learnblock1,389.90000009536743,img/planet4_right.png,4,Community 3,NA,TRUE,j,j,NA,NA,NA,9,9,"1,8,14,9,2,11,3,5,6,15,7,13,12,10,4"
14927,commdev-image-keyboard-response,371,1106412,learnblock1,300.09999990463257,img/planet7_right.png,7,Community 3,NA,FALSE,f,j,NA,NA,NA,9,9,"1,8,14,9,2,11,3,5,6,15,7,13,12,10,4"
14927,commdev-image-keyboard-response,372,1107667,learnblock1,516.5999999046326,img/planet4_left.png,4,Community 3,NA,TRUE,f,f,NA,NA,NA,9,9,"1,8,14,9,2,11,3,5,6,15,7,13,12,10,4"
14927,commdev-image-keyboard-response,373,1108924,learnblock1,979.5,img/planet7_left.png,7,Community 3,NA,TRUE,f,f,NA,NA,NA,9,9,"1,8,14,9,2,11,3,5,6,15,7,13,12,10,4"
14927,commdev-image-keyboard-response,374,1110176,learnblock1,57.89999985694885,img/planet12_right.png,12,Community 3,NA,TRUE,j,j,NA,NA,NA,9,9,"1,8,14,9,2,11,3,5,6,15,7,13,12,10,4"
14927,commdev-image-keyboard-response,375,1111430,learnblock1,729.7000000476837,img/planet13_right.png,13,Community 3,NA,TRUE,j,j,NA,NA,NA,9,9,"1,8,14,9,2,11,3,5,6,15,7,13,12,10,4"
14927,commdev-image-keyboard-response,376,1112682,learnblock1,610.5,img/planet10_right.png,10,Community 3,NA,FALSE,f,j,NA,NA,NA,9,9,"1,8,14,9,2,11,3,5,6,15,7,13,12,10,4"
14927,commdev-image-keyboard-response,377,1113935,learnblock1,25.799999952316284,img/planet13_right.png,13,Community 3,NA,TRUE,j,j,NA,NA,NA,9,9,"1,8,14,9,2,11,3,5,6,15,7,13,12,10,4"
14927,commdev-image-keyboard-response,378,1115190,learnblock1,425.2000000476837,img/planet10_left.png,10,Community 3,NA,FALSE,j,f,NA,NA,NA,9,9,"1,8,14,9,2,11,3,5,6,15,7,13,12,10,4"
14927,commdev-image-keyboard-response,379,1116447,learnblock1,951.2999999523163,img/planet7_left.png,7,Community 3,NA,TRUE,f,f,NA,NA,NA,9,9,"1,8,14,9,2,11,3,5,6,15,7,13,12,10,4"
14927,commdev-image-keyboard-response,380,1117705,learnblock1,null,img/planet4_left.png,4,Community 3,NA,FALSE,null,f,NA,NA,NA,9,9,"1,8,14,9,2,11,3,5,6,15,7,13,12,10,4"
14927,commdev-image-keyboard-response,381,1118958,learnblock1,35.200000047683716,img/planet12_right.png,12,Community 3,NA,FALSE,f,j,NA,NA,NA,9,9,"1,8,14,9,2,11,3,5,6,15,7,13,12,10,4"
14927,commdev-image-keyboard-response,382,1120211,learnblock1,742.3999998569489,img/planet13_right.png,13,Community 3,NA,TRUE,j,j,NA,NA,NA,9,9,"1,8,14,9,2,11,3,5,6,15,7,13,12,10,4"
14927,commdev-image-keyboard-response,383,1121477,learnblock1,null,img/planet12_left.png,12,Community 3,NA,FALSE,null,f,NA,NA,NA,9,9,"1,8,14,9,2,11,3,5,6,15,7,13,12,10,4"
14927,commdev-image-keyboard-response,384,1122730,learnblock1,0.7000000476837158,img/planet13_left.png,13,Community 3,NA,TRUE,f,f,NA,NA,NA,9,9,"1,8,14,9,2,11,3,5,6,15,7,13,12,10,4"
14927,commdev-image-keyboard-response,385,1123989,learnblock1,874.7999999523163,img/planet10_right.png,10,Community 3,NA,TRUE,j,j,NA,NA,NA,9,9,"1,8,14,9,2,11,3,5,6,15,7,13,12,10,4"
14927,commdev-image-keyboard-response,386,1125248,learnblock1,877.5,img/planet4_left.png,4,Community 3,NA,TRUE,f,f,NA,NA,NA,9,9,"1,8,14,9,2,11,3,5,6,15,7,13,12,10,4"
14927,commdev-image-keyboard-response,387,1126500,learnblock1,871.9000000953674,img/planet12_left.png,12,Community 3,NA,TRUE,f,f,NA,NA,NA,9,9,"1,8,14,9,2,11,3,5,6,15,7,13,12,10,4"
14927,commdev-image-keyboard-response,388,1127752,learnblock1,1008.6999998092651,img/planet13_right.png,13,Community 3,NA,TRUE,j,j,NA,NA,NA,9,9,"1,8,14,9,2,11,3,5,6,15,7,13,12,10,4"
14927,commdev-image-keyboard-response,389,1129010,learnblock1,901.0999999046326,img/planet5_left.png,5,Community 2,NA,TRUE,f,f,NA,NA,NA,9,9,"1,8,14,9,2,11,3,5,6,15,7,13,12,10,4"
14927,commdev-image-keyboard-response,390,1130268,learnblock1,995.6000001430511,img/planet15_left.png,15,Community 2,NA,TRUE,f,f,NA,NA,NA,9,9,"1,8,14,9,2,11,3,5,6,15,7,13,12,10,4"
14927,commdev-image-keyboard-response,391,1131524,learnblock1,720,img/planet6_right.png,6,Community 2,NA,TRUE,j,j,NA,NA,NA,9,9,"1,8,14,9,2,11,3,5,6,15,7,13,12,10,4"
14927,commdev-image-keyboard-response,392,1132781,learnblock1,947.5999999046326,img/planet15_left.png,15,Community 2,NA,TRUE,f,f,NA,NA,NA,9,9,"1,8,14,9,2,11,3,5,6,15,7,13,12,10,4"
14927,commdev-image-keyboard-response,393,1134033,learnblock1,1160.5,img/planet11_left.png,11,Community 2,NA,TRUE,f,f,NA,NA,NA,9,9,"1,8,14,9,2,11,3,5,6,15,7,13,12,10,4"
14927,commdev-image-keyboard-response,394,1135289,learnblock1,953.2999999523163,img/planet9_left.png,9,Community 1,NA,TRUE,f,f,NA,NA,NA,9,9,"1,8,14,9,2,11,3,5,6,15,7,13,12,10,4"
14927,commdev-image-keyboard-response,395,1136546,learnblock1,920.7999999523163,img/planet1_right.png,1,Community 1,NA,TRUE,j,j,NA,NA,NA,9,9,"1,8,14,9,2,11,3,5,6,15,7,13,12,10,4"
14927,commdev-image-keyboard-response,396,1137803,learnblock1,760.2999999523163,img/planet14_left.png,14,Community 1,NA,TRUE,f,f,NA,NA,NA,9,9,"1,8,14,9,2,11,3,5,6,15,7,13,12,10,4"
14927,commdev-image-keyboard-response,397,1139055,learnblock1,806.5,img/planet9_left.png,9,Community 1,NA,FALSE,j,f,NA,NA,NA,9,9,"1,8,14,9,2,11,3,5,6,15,7,13,12,10,4"
14927,commdev-image-keyboard-response,398,1140314,learnblock1,671.5,img/planet8_right.png,8,Community 1,NA,FALSE,f,j,NA,NA,NA,9,9,"1,8,14,9,2,11,3,5,6,15,7,13,12,10,4"
14927,commdev-image-keyboard-response,399,1141569,learnblock1,731.9000000953674,img/planet9_left.png,9,Community 1,NA,TRUE,f,f,NA,NA,NA,9,9,"1,8,14,9,2,11,3,5,6,15,7,13,12,10,4"
14927,commdev-image-keyboard-response,400,1142825,learnblock1,901.3999998569489,img/planet1_right.png,1,Community 1,NA,TRUE,j,j,NA,NA,NA,9,9,"1,8,14,9,2,11,3,5,6,15,7,13,12,10,4"
14927,commdev-image-keyboard-response,401,1144084,learnblock1,1000.5999999046326,img/planet9_right.png,9,Community 1,NA,TRUE,j,j,NA,NA,NA,9,9,"1,8,14,9,2,11,3,5,6,15,7,13,12,10,4"
14927,commdev-image-keyboard-response,402,1145343,learnblock1,696.5999999046326,img/planet14_left.png,14,Community 1,NA,TRUE,f,f,NA,NA,NA,9,9,"1,8,14,9,2,11,3,5,6,15,7,13,12,10,4"
14927,commdev-image-keyboard-response,403,1146599,learnblock1,794.1999998092651,img/planet1_left.png,1,Community 1,NA,TRUE,f,f,NA,NA,NA,9,9,"1,8,14,9,2,11,3,5,6,15,7,13,12,10,4"
14927,commdev-image-keyboard-response,404,1147855,learnblock1,970.7999999523163,img/planet9_left.png,9,Community 1,NA,TRUE,f,f,NA,NA,NA,9,9,"1,8,14,9,2,11,3,5,6,15,7,13,12,10,4"
14927,commdev-image-keyboard-response,405,1149108,learnblock1,864.2000000476837,img/planet14_left.png,14,Community 1,NA,TRUE,f,f,NA,NA,NA,9,9,"1,8,14,9,2,11,3,5,6,15,7,13,12,10,4"
14927,commdev-image-keyboard-response,406,1150365,learnblock1,974.5999999046326,img/planet8_right.png,8,Community 1,NA,TRUE,j,j,NA,NA,NA,9,9,"1,8,14,9,2,11,3,5,6,15,7,13,12,10,4"
14927,commdev-image-keyboard-response,407,1151619,learnblock1,862.8999998569489,img/planet1_right.png,1,Community 1,NA,TRUE,j,j,NA,NA,NA,9,9,"1,8,14,9,2,11,3,5,6,15,7,13,12,10,4"
14927,commdev-image-keyboard-response,408,1152874,learnblock1,644.9000000953674,img/planet9_left.png,9,Community 1,NA,TRUE,f,f,NA,NA,NA,9,9,"1,8,14,9,2,11,3,5,6,15,7,13,12,10,4"
14927,commdev-image-keyboard-response,409,1154134,learnblock1,864.9000000953674,img/planet14_left.png,14,Community 1,NA,TRUE,f,f,NA,NA,NA,9,9,"1,8,14,9,2,11,3,5,6,15,7,13,12,10,4"
14927,commdev-image-keyboard-response,410,1155391,learnblock1,886.3999998569489,img/planet9_left.png,9,Community 1,NA,TRUE,f,f,NA,NA,NA,9,9,"1,8,14,9,2,11,3,5,6,15,7,13,12,10,4"
14927,commdev-image-keyboard-response,411,1156651,learnblock1,786.0999999046326,img/planet11_right.png,11,Community 2,NA,TRUE,j,j,NA,NA,NA,9,9,"1,8,14,9,2,11,3,5,6,15,7,13,12,10,4"
14927,commdev-image-keyboard-response,412,1157904,learnblock1,735.4000000953674,img/planet15_left.png,15,Community 2,NA,TRUE,f,f,NA,NA,NA,9,9,"1,8,14,9,2,11,3,5,6,15,7,13,12,10,4"
14927,commdev-image-keyboard-response,413,1159164,learnblock1,628.7000000476837,img/planet11_right.png,11,Community 2,NA,TRUE,j,j,NA,NA,NA,9,9,"1,8,14,9,2,11,3,5,6,15,7,13,12,10,4"
14927,commdev-image-keyboard-response,414,1160417,learnblock1,692.5,img/planet9_left.png,9,Community 1,NA,TRUE,f,f,NA,NA,NA,9,9,"1,8,14,9,2,11,3,5,6,15,7,13,12,10,4"
14927,commdev-image-keyboard-response,415,1161669,learnblock1,981,img/planet11_left.png,11,Community 2,NA,TRUE,f,f,NA,NA,NA,9,9,"1,8,14,9,2,11,3,5,6,15,7,13,12,10,4"
14927,commdev-image-keyboard-response,416,1162921,learnblock1,897.3999998569489,img/planet3_left.png,3,Community 2,NA,TRUE,f,f,NA,NA,NA,9,9,"1,8,14,9,2,11,3,5,6,15,7,13,12,10,4"
14927,commdev-image-keyboard-response,417,1164175,learnblock1,779.8999998569489,img/planet5_right.png,5,Community 2,NA,FALSE,f,j,NA,NA,NA,9,9,"1,8,14,9,2,11,3,5,6,15,7,13,12,10,4"
14927,commdev-image-keyboard-response,418,1165429,learnblock1,577.7999999523163,img/planet15_right.png,15,Community 2,NA,FALSE,f,j,NA,NA,NA,9,9,"1,8,14,9,2,11,3,5,6,15,7,13,12,10,4"
14927,commdev-image-keyboard-response,419,1166684,learnblock1,863.9000000953674,img/planet3_right.png,3,Community 2,NA,TRUE,j,j,NA,NA,NA,9,9,"1,8,14,9,2,11,3,5,6,15,7,13,12,10,4"
14927,commdev-image-keyboard-response,420,1167941,learnblock1,904,img/planet6_left.png,6,Community 2,NA,TRUE,f,f,NA,NA,NA,9,9,"1,8,14,9,2,11,3,5,6,15,7,13,12,10,4"
14927,commdev-image-keyboard-response,421,1169193,learnblock1,704.7999999523163,img/planet15_right.png,15,Community 2,NA,TRUE,j,j,NA,NA,NA,9,9,"1,8,14,9,2,11,3,5,6,15,7,13,12,10,4"
14927,commdev-image-keyboard-response,422,1170447,learnblock1,867.5999999046326,img/planet3_right.png,3,Community 2,NA,TRUE,j,j,NA,NA,NA,9,9,"1,8,14,9,2,11,3,5,6,15,7,13,12,10,4"
14927,commdev-image-keyboard-response,423,1171705,learnblock1,914.5,img/planet5_right.png,5,Community 2,NA,FALSE,f,j,NA,NA,NA,9,9,"1,8,14,9,2,11,3,5,6,15,7,13,12,10,4"
14927,commdev-image-keyboard-response,424,1172959,learnblock1,893.4000000953674,img/planet13_left.png,13,Community 3,NA,TRUE,f,f,NA,NA,NA,9,9,"1,8,14,9,2,11,3,5,6,15,7,13,12,10,4"
14927,commdev-image-keyboard-response,425,1174217,learnblock1,706.7000000476837,img/planet10_right.png,10,Community 3,NA,TRUE,j,j,NA,NA,NA,9,9,"1,8,14,9,2,11,3,5,6,15,7,13,12,10,4"
14927,commdev-image-keyboard-response,426,1175483,learnblock1,null,img/planet4_right.png,4,Community 3,NA,FALSE,null,j,NA,NA,NA,9,9,"1,8,14,9,2,11,3,5,6,15,7,13,12,10,4"
14927,commdev-image-keyboard-response,427,1176736,learnblock1,0.8000001907348633,img/planet13_left.png,13,Community 3,NA,FALSE,j,f,NA,NA,NA,9,9,"1,8,14,9,2,11,3,5,6,15,7,13,12,10,4"
14927,commdev-image-keyboard-response,428,1177988,learnblock1,473.7000000476837,img/planet4_left.png,4,Community 3,NA,FALSE,j,f,NA,NA,NA,9,9,"1,8,14,9,2,11,3,5,6,15,7,13,12,10,4"
14927,commdev-image-keyboard-response,429,1179245,learnblock1,734.8999998569489,img/planet12_left.png,12,Community 3,NA,TRUE,f,f,NA,NA,NA,9,9,"1,8,14,9,2,11,3,5,6,15,7,13,12,10,4"
14927,commdev-image-keyboard-response,430,1180504,learnblock1,666.5,img/planet7_right.png,7,Community 3,NA,FALSE,f,j,NA,NA,NA,9,9,"1,8,14,9,2,11,3,5,6,15,7,13,12,10,4"
14927,commdev-image-keyboard-response,431,1181766,learnblock1,647.3999998569489,img/planet10_right.png,10,Community 3,NA,TRUE,j,j,NA,NA,NA,9,9,"1,8,14,9,2,11,3,5,6,15,7,13,12,10,4"
14927,commdev-image-keyboard-response,432,1183022,learnblock1,980.2999999523163,img/planet13_right.png,13,Community 3,NA,TRUE,j,j,NA,NA,NA,9,9,"1,8,14,9,2,11,3,5,6,15,7,13,12,10,4"
14927,commdev-image-keyboard-response,433,1184277,learnblock1,863.6000001430511,img/planet10_left.png,10,Community 3,NA,TRUE,f,f,NA,NA,NA,9,9,"1,8,14,9,2,11,3,5,6,15,7,13,12,10,4"
14927,commdev-image-keyboard-response,434,1185536,learnblock1,1105.5,img/planet7_right.png,7,Community 3,NA,TRUE,j,j,NA,NA,NA,9,9,"1,8,14,9,2,11,3,5,6,15,7,13,12,10,4"
14927,commdev-image-keyboard-response,435,1186794,learnblock1,null,img/planet2_right.png,2,Community 1,NA,FALSE,null,j,NA,NA,NA,9,9,"1,8,14,9,2,11,3,5,6,15,7,13,12,10,4"
14927,commdev-image-keyboard-response,436,1188046,learnblock1,931,img/planet8_right.png,8,Community 1,NA,FALSE,f,j,NA,NA,NA,9,9,"1,8,14,9,2,11,3,5,6,15,7,13,12,10,4"
14927,commdev-image-keyboard-response,437,1189302,learnblock1,406.59999990463257,img/planet1_left.png,1,Community 1,NA,FALSE,j,f,NA,NA,NA,9,9,"1,8,14,9,2,11,3,5,6,15,7,13,12,10,4"
14927,commdev-image-keyboard-response,438,1190559,learnblock1,0.9000000953674316,img/planet2_left.png,2,Community 1,NA,TRUE,f,f,NA,NA,NA,9,9,"1,8,14,9,2,11,3,5,6,15,7,13,12,10,4"
14927,commdev-image-keyboard-response,439,1191815,learnblock1,9.299999952316284,img/planet7_right.png,7,Community 3,NA,FALSE,f,j,NA,NA,NA,9,9,"1,8,14,9,2,11,3,5,6,15,7,13,12,10,4"
14927,commdev-image-keyboard-response,440,1193069,learnblock1,83.40000009536743,img/planet10_left.png,10,Community 3,NA,FALSE,j,f,NA,NA,NA,9,9,"1,8,14,9,2,11,3,5,6,15,7,13,12,10,4"
14927,commdev-image-keyboard-response,441,1194321,learnblock1,96.09999990463257,img/planet7_right.png,7,Community 3,NA,TRUE,j,j,NA,NA,NA,9,9,"1,8,14,9,2,11,3,5,6,15,7,13,12,10,4"
14927,commdev-image-keyboard-response,442,1195574,learnblock1,169.30000019073486,img/planet10_right.png,10,Community 3,NA,TRUE,j,j,NA,NA,NA,9,9,"1,8,14,9,2,11,3,5,6,15,7,13,12,10,4"
14927,commdev-image-keyboard-response,443,1196831,learnblock1,88,img/planet4_right.png,4,Community 3,NA,TRUE,j,j,NA,NA,NA,9,9,"1,8,14,9,2,11,3,5,6,15,7,13,12,10,4"
14927,commdev-image-keyboard-response,444,1198088,learnblock1,66.60000014305115,img/planet13_left.png,13,Community 3,NA,FALSE,j,f,NA,NA,NA,9,9,"1,8,14,9,2,11,3,5,6,15,7,13,12,10,4"
14927,commdev-image-keyboard-response,445,1199347,learnblock1,1.5,img/planet10_left.png,10,Community 3,NA,TRUE,f,f,NA,NA,NA,9,9,"1,8,14,9,2,11,3,5,6,15,7,13,12,10,4"
14927,commdev-image-keyboard-response,446,1200603,learnblock1,176.90000009536743,img/planet13_right.png,13,Community 3,NA,TRUE,j,j,NA,NA,NA,9,9,"1,8,14,9,2,11,3,5,6,15,7,13,12,10,4"
14927,commdev-image-keyboard-response,447,1201861,learnblock1,null,img/planet10_right.png,10,Community 3,NA,FALSE,null,j,NA,NA,NA,9,9,"1,8,14,9,2,11,3,5,6,15,7,13,12,10,4"
14927,commdev-image-keyboard-response,448,1203119,learnblock1,118.59999990463257,img/planet13_right.png,13,Community 3,NA,TRUE,j,j,NA,NA,NA,9,9,"1,8,14,9,2,11,3,5,6,15,7,13,12,10,4"
14927,commdev-image-keyboard-response,449,1204375,learnblock1,925.3999998569489,img/planet4_right.png,4,Community 3,NA,TRUE,j,j,NA,NA,NA,9,9,"1,8,14,9,2,11,3,5,6,15,7,13,12,10,4"
14927,commdev-image-keyboard-response,450,1205627,learnblock1,478.5,img/planet7_right.png,7,Community 3,NA,TRUE,j,j,NA,NA,NA,9,9,"1,8,14,9,2,11,3,5,6,15,7,13,12,10,4"
14927,commdev-image-keyboard-response,451,1206884,learnblock1,544.0999999046326,img/planet12_left.png,12,Community 3,NA,FALSE,j,f,NA,NA,NA,9,9,"1,8,14,9,2,11,3,5,6,15,7,13,12,10,4"
14927,commdev-image-keyboard-response,452,1208141,learnblock1,522.5,img/planet10_right.png,10,Community 3,NA,TRUE,j,j,NA,NA,NA,9,9,"1,8,14,9,2,11,3,5,6,15,7,13,12,10,4"
14927,commdev-image-keyboard-response,453,1209408,learnblock1,736,img/planet12_left.png,12,Community 3,NA,TRUE,f,f,NA,NA,NA,9,9,"1,8,14,9,2,11,3,5,6,15,7,13,12,10,4"
14927,commdev-image-keyboard-response,454,1210665,learnblock1,1197.4000000953674,img/planet4_left.png,4,Community 3,NA,TRUE,f,f,NA,NA,NA,9,9,"1,8,14,9,2,11,3,5,6,15,7,13,12,10,4"
14927,commdev-image-keyboard-response,455,1211919,learnblock1,null,img/planet10_right.png,10,Community 3,NA,FALSE,null,j,NA,NA,NA,9,9,"1,8,14,9,2,11,3,5,6,15,7,13,12,10,4"
14927,commdev-image-keyboard-response,456,1213184,learnblock1,225.60000014305115,img/planet12_left.png,12,Community 3,NA,TRUE,f,f,NA,NA,NA,9,9,"1,8,14,9,2,11,3,5,6,15,7,13,12,10,4"
14927,commdev-image-keyboard-response,457,1214442,learnblock1,450.89999985694885,img/planet13_left.png,13,Community 3,NA,FALSE,j,f,NA,NA,NA,9,9,"1,8,14,9,2,11,3,5,6,15,7,13,12,10,4"
14927,commdev-image-keyboard-response,458,1215696,learnblock1,715.2999999523163,img/planet12_right.png,12,Community 3,NA,TRUE,j,j,NA,NA,NA,9,9,"1,8,14,9,2,11,3,5,6,15,7,13,12,10,4"
14927,commdev-image-keyboard-response,459,1216950,learnblock1,1074.2999999523163,img/planet10_left.png,10,Community 3,NA,TRUE,f,f,NA,NA,NA,9,9,"1,8,14,9,2,11,3,5,6,15,7,13,12,10,4"
14927,commdev-image-keyboard-response,460,1218210,learnblock1,608.2000000476837,img/planet12_left.png,12,Community 3,NA,FALSE,j,f,NA,NA,NA,9,9,"1,8,14,9,2,11,3,5,6,15,7,13,12,10,4"
14927,commdev-image-keyboard-response,461,1219462,learnblock1,1250.5,img/planet7_left.png,7,Community 3,NA,TRUE,f,f,NA,NA,NA,9,9,"1,8,14,9,2,11,3,5,6,15,7,13,12,10,4"
14927,commdev-image-keyboard-response,462,1220719,learnblock1,586.5,img/planet2_right.png,2,Community 1,NA,TRUE,j,j,NA,NA,NA,9,9,"1,8,14,9,2,11,3,5,6,15,7,13,12,10,4"
14927,commdev-image-keyboard-response,463,1221978,learnblock1,585.7999999523163,img/planet1_right.png,1,Community 1,NA,FALSE,f,j,NA,NA,NA,9,9,"1,8,14,9,2,11,3,5,6,15,7,13,12,10,4"
14927,commdev-image-keyboard-response,464,1223231,learnblock1,50.90000009536743,img/planet8_left.png,8,Community 1,NA,FALSE,j,f,NA,NA,NA,9,9,"1,8,14,9,2,11,3,5,6,15,7,13,12,10,4"
14927,commdev-image-keyboard-response,465,1224490,learnblock1,285.7999999523163,img/planet9_right.png,9,Community 1,NA,FALSE,f,j,NA,NA,NA,9,9,"1,8,14,9,2,11,3,5,6,15,7,13,12,10,4"
14927,commdev-image-keyboard-response,466,1225748,learnblock1,882.5,img/planet1_right.png,1,Community 1,NA,FALSE,f,j,NA,NA,NA,9,9,"1,8,14,9,2,11,3,5,6,15,7,13,12,10,4"
14927,commdev-image-keyboard-response,467,1227002,learnblock1,146.59999990463257,img/planet9_left.png,9,Community 1,NA,FALSE,j,f,NA,NA,NA,9,9,"1,8,14,9,2,11,3,5,6,15,7,13,12,10,4"
14927,commdev-image-keyboard-response,468,1228255,learnblock1,689.4000000953674,img/planet11_left.png,11,Community 2,NA,TRUE,f,f,NA,NA,NA,9,9,"1,8,14,9,2,11,3,5,6,15,7,13,12,10,4"
14927,commdev-image-keyboard-response,469,1229512,learnblock1,1171.1000001430511,img/planet6_right.png,6,Community 2,NA,TRUE,j,j,NA,NA,NA,9,9,"1,8,14,9,2,11,3,5,6,15,7,13,12,10,4"
14927,commdev-image-keyboard-response,470,1230771,learnblock1,980.5,img/planet11_left.png,11,Community 2,NA,TRUE,f,f,NA,NA,NA,9,9,"1,8,14,9,2,11,3,5,6,15,7,13,12,10,4"
14927,commdev-image-keyboard-response,471,1232026,learnblock1,776.5999999046326,img/planet15_left.png,15,Community 2,NA,FALSE,j,f,NA,NA,NA,9,9,"1,8,14,9,2,11,3,5,6,15,7,13,12,10,4"
14927,commdev-image-keyboard-response,472,1233279,learnblock1,664.8000001907349,img/planet6_right.png,6,Community 2,NA,FALSE,f,j,NA,NA,NA,9,9,"1,8,14,9,2,11,3,5,6,15,7,13,12,10,4"
14927,commdev-image-keyboard-response,473,1234536,learnblock1,205.70000004768372,img/planet15_left.png,15,Community 2,NA,FALSE,j,f,NA,NA,NA,9,9,"1,8,14,9,2,11,3,5,6,15,7,13,12,10,4"
14927,commdev-image-keyboard-response,474,1235788,learnblock1,1145,img/planet5_left.png,5,Community 2,NA,FALSE,j,f,NA,NA,NA,9,9,"1,8,14,9,2,11,3,5,6,15,7,13,12,10,4"
14927,commdev-image-keyboard-response,475,1237047,learnblock1,127,img/planet3_left.png,3,Community 2,NA,TRUE,f,f,NA,NA,NA,9,9,"1,8,14,9,2,11,3,5,6,15,7,13,12,10,4"
14927,commdev-image-keyboard-response,476,1238302,learnblock1,1174.5,img/planet6_right.png,6,Community 2,NA,FALSE,f,j,NA,NA,NA,9,9,"1,8,14,9,2,11,3,5,6,15,7,13,12,10,4"
14927,commdev-image-keyboard-response,477,1239562,learnblock1,119,img/planet5_left.png,5,Community 2,NA,FALSE,j,f,NA,NA,NA,9,9,"1,8,14,9,2,11,3,5,6,15,7,13,12,10,4"
14927,commdev-image-keyboard-response,478,1240821,learnblock1,584.5,img/planet13_right.png,13,Community 3,NA,TRUE,j,j,NA,NA,NA,9,9,"1,8,14,9,2,11,3,5,6,15,7,13,12,10,4"
14927,commdev-image-keyboard-response,479,1242080,learnblock1,811.6999998092651,img/planet10_left.png,10,Community 3,NA,FALSE,j,f,NA,NA,NA,9,9,"1,8,14,9,2,11,3,5,6,15,7,13,12,10,4"
14927,commdev-image-keyboard-response,480,1243338,learnblock1,887.5,img/planet12_right.png,12,Community 3,NA,TRUE,j,j,NA,NA,NA,9,9,"1,8,14,9,2,11,3,5,6,15,7,13,12,10,4"
14927,commdev-image-keyboard-response,481,1244595,learnblock1,967.0999999046326,img/planet7_right.png,7,Community 3,NA,TRUE,j,j,NA,NA,NA,9,9,"1,8,14,9,2,11,3,5,6,15,7,13,12,10,4"
14927,commdev-image-keyboard-response,482,1245855,learnblock1,986,img/planet10_left.png,10,Community 3,NA,TRUE,f,f,NA,NA,NA,9,9,"1,8,14,9,2,11,3,5,6,15,7,13,12,10,4"
14927,commdev-image-keyboard-response,483,1247117,learnblock1,949,img/planet4_left.png,4,Community 3,NA,TRUE,f,f,NA,NA,NA,9,9,"1,8,14,9,2,11,3,5,6,15,7,13,12,10,4"
14927,commdev-image-keyboard-response,484,1248371,learnblock1,1072.1000001430511,img/planet12_left.png,12,Community 3,NA,TRUE,f,f,NA,NA,NA,9,9,"1,8,14,9,2,11,3,5,6,15,7,13,12,10,4"
14927,commdev-image-keyboard-response,485,1249629,learnblock1,836.9000000953674,img/planet7_right.png,7,Community 3,NA,TRUE,j,j,NA,NA,NA,9,9,"1,8,14,9,2,11,3,5,6,15,7,13,12,10,4"
14927,commdev-image-keyboard-response,486,1250884,learnblock1,1029.7000000476837,img/planet2_left.png,2,Community 1,NA,TRUE,f,f,NA,NA,NA,9,9,"1,8,14,9,2,11,3,5,6,15,7,13,12,10,4"
14927,commdev-image-keyboard-response,487,1252138,learnblock1,787,img/planet1_right.png,1,Community 1,NA,TRUE,j,j,NA,NA,NA,9,9,"1,8,14,9,2,11,3,5,6,15,7,13,12,10,4"
14927,commdev-image-keyboard-response,488,1253393,learnblock1,1039.6000001430511,img/planet8_right.png,8,Community 1,NA,TRUE,j,j,NA,NA,NA,9,9,"1,8,14,9,2,11,3,5,6,15,7,13,12,10,4"
14927,commdev-image-keyboard-response,489,1254652,learnblock1,1135.5,img/planet9_left.png,9,Community 1,NA,TRUE,f,f,NA,NA,NA,9,9,"1,8,14,9,2,11,3,5,6,15,7,13,12,10,4"
14927,commdev-image-keyboard-response,490,1255908,learnblock1,1009.3999998569489,img/planet8_left.png,8,Community 1,NA,TRUE,f,f,NA,NA,NA,9,9,"1,8,14,9,2,11,3,5,6,15,7,13,12,10,4"
14927,commdev-image-keyboard-response,491,1257164,learnblock1,1086.3999998569489,img/planet1_right.png,1,Community 1,NA,TRUE,j,j,NA,NA,NA,9,9,"1,8,14,9,2,11,3,5,6,15,7,13,12,10,4"
14927,commdev-image-keyboard-response,492,1258422,learnblock1,1056,img/planet14_left.png,14,Community 1,NA,TRUE,f,f,NA,NA,NA,9,9,"1,8,14,9,2,11,3,5,6,15,7,13,12,10,4"
14927,commdev-image-keyboard-response,493,1259677,learnblock1,982.5,img/planet8_left.png,8,Community 1,NA,TRUE,f,f,NA,NA,NA,9,9,"1,8,14,9,2,11,3,5,6,15,7,13,12,10,4"
14927,commdev-image-keyboard-response,494,1260929,learnblock1,806.4000000953674,img/planet1_right.png,1,Community 1,NA,TRUE,j,j,NA,NA,NA,9,9,"1,8,14,9,2,11,3,5,6,15,7,13,12,10,4"
14927,commdev-image-keyboard-response,495,1262189,learnblock1,1091,img/planet14_right.png,14,Community 1,NA,FALSE,f,j,NA,NA,NA,9,9,"1,8,14,9,2,11,3,5,6,15,7,13,12,10,4"
14927,commdev-image-keyboard-response,496,1263446,learnblock1,500.2999999523163,img/planet1_right.png,1,Community 1,NA,TRUE,j,j,NA,NA,NA,9,9,"1,8,14,9,2,11,3,5,6,15,7,13,12,10,4"
14927,commdev-image-keyboard-response,497,1264699,learnblock1,662.3999998569489,img/planet2_right.png,2,Community 1,NA,TRUE,j,j,NA,NA,NA,9,9,"1,8,14,9,2,11,3,5,6,15,7,13,12,10,4"
14927,commdev-image-keyboard-response,498,1265959,learnblock1,795.7000000476837,img/planet1_right.png,1,Community 1,NA,TRUE,j,j,NA,NA,NA,9,9,"1,8,14,9,2,11,3,5,6,15,7,13,12,10,4"
14927,commdev-image-keyboard-response,499,1267217,learnblock1,782.0999999046326,img/planet9_left.png,9,Community 1,NA,TRUE,f,f,NA,NA,NA,9,9,"1,8,14,9,2,11,3,5,6,15,7,13,12,10,4"
14927,commdev-image-keyboard-response,500,1268477,learnblock1,966.5,img/planet1_right.png,1,Community 1,NA,TRUE,j,j,NA,NA,NA,9,9,"1,8,14,9,2,11,3,5,6,15,7,13,12,10,4"
14927,commdev-image-keyboard-response,501,1269731,learnblock1,1026.7999999523163,img/planet8_right.png,8,Community 1,NA,TRUE,j,j,NA,NA,NA,9,9,"1,8,14,9,2,11,3,5,6,15,7,13,12,10,4"
14927,commdev-image-keyboard-response,502,1270991,learnblock1,863.2999999523163,img/planet14_right.png,14,Community 1,NA,TRUE,j,j,NA,NA,NA,9,9,"1,8,14,9,2,11,3,5,6,15,7,13,12,10,4"
14927,commdev-image-keyboard-response,503,1272251,learnblock1,872.7999999523163,img/planet9_right.png,9,Community 1,NA,TRUE,j,j,NA,NA,NA,9,9,"1,8,14,9,2,11,3,5,6,15,7,13,12,10,4"
14927,commdev-image-keyboard-response,504,1273503,learnblock1,832.2999999523163,img/planet14_right.png,14,Community 1,NA,TRUE,j,j,NA,NA,NA,9,9,"1,8,14,9,2,11,3,5,6,15,7,13,12,10,4"
14927,commdev-image-keyboard-response,505,1274758,learnblock1,1025.2999999523163,img/planet8_left.png,8,Community 1,NA,TRUE,f,f,NA,NA,NA,9,9,"1,8,14,9,2,11,3,5,6,15,7,13,12,10,4"
14927,commdev-image-keyboard-response,506,1276011,learnblock1,955.8000001907349,img/planet9_right.png,9,Community 1,NA,TRUE,j,j,NA,NA,NA,9,9,"1,8,14,9,2,11,3,5,6,15,7,13,12,10,4"
14927,commdev-image-keyboard-response,507,1277264,learnblock1,1025.3999998569489,img/planet8_right.png,8,Community 1,NA,TRUE,j,j,NA,NA,NA,9,9,"1,8,14,9,2,11,3,5,6,15,7,13,12,10,4"
14927,commdev-image-keyboard-response,508,1278519,learnblock1,802.2999999523163,img/planet2_right.png,2,Community 1,NA,FALSE,f,j,NA,NA,NA,9,9,"1,8,14,9,2,11,3,5,6,15,7,13,12,10,4"
14927,commdev-image-keyboard-response,509,1279772,learnblock1,891.5999999046326,img/planet14_left.png,14,Community 1,NA,TRUE,f,f,NA,NA,NA,9,9,"1,8,14,9,2,11,3,5,6,15,7,13,12,10,4"
14927,commdev-image-keyboard-response,510,1281026,learnblock1,996.7000000476837,img/planet8_left.png,8,Community 1,NA,TRUE,f,f,NA,NA,NA,9,9,"1,8,14,9,2,11,3,5,6,15,7,13,12,10,4"
14927,commdev-image-keyboard-response,511,1282285,learnblock1,1089.9000000953674,img/planet14_left.png,14,Community 1,NA,TRUE,f,f,NA,NA,NA,9,9,"1,8,14,9,2,11,3,5,6,15,7,13,12,10,4"
14927,commdev-image-keyboard-response,512,1283541,learnblock1,858.5,img/planet1_right.png,1,Community 1,NA,TRUE,j,j,NA,NA,NA,9,9,"1,8,14,9,2,11,3,5,6,15,7,13,12,10,4"
14927,commdev-image-keyboard-response,513,1284799,learnblock1,995,img/planet14_right.png,14,Community 1,NA,TRUE,j,j,NA,NA,NA,9,9,"1,8,14,9,2,11,3,5,6,15,7,13,12,10,4"
14927,commdev-image-keyboard-response,514,1286058,learnblock1,620.8000001907349,img/planet2_left.png,2,Community 1,NA,TRUE,f,f,NA,NA,NA,9,9,"1,8,14,9,2,11,3,5,6,15,7,13,12,10,4"
14927,commdev-image-keyboard-response,515,1287323,learnblock1,746.0999999046326,img/planet7_left.png,7,Community 3,NA,TRUE,f,f,NA,NA,NA,9,9,"1,8,14,9,2,11,3,5,6,15,7,13,12,10,4"
14927,commdev-image-keyboard-response,516,1288574,learnblock1,797.2000000476837,img/planet10_left.png,10,Community 3,NA,TRUE,f,f,NA,NA,NA,9,9,"1,8,14,9,2,11,3,5,6,15,7,13,12,10,4"
14927,commdev-image-keyboard-response,517,1289829,learnblock1,879.1000001430511,img/planet7_left.png,7,Community 3,NA,TRUE,f,f,NA,NA,NA,9,9,"1,8,14,9,2,11,3,5,6,15,7,13,12,10,4"
14927,commdev-image-keyboard-response,518,1291088,learnblock1,null,img/planet2_left.png,2,Community 1,NA,FALSE,null,f,NA,NA,NA,9,9,"1,8,14,9,2,11,3,5,6,15,7,13,12,10,4"
14927,commdev-image-keyboard-response,522,1999259,learnblock2,802.2999999523163,img/planet1_left.png,1,Community 1,NA,TRUE,f,f,NA,NA,NA,9,9,"1,8,14,9,2,11,3,5,6,15,7,13,12,10,4"
14927,commdev-image-keyboard-response,523,2000515,learnblock2,890.2999999523163,img/planet8_left.png,8,Community 1,NA,TRUE,f,f,NA,NA,NA,9,9,"1,8,14,9,2,11,3,5,6,15,7,13,12,10,4"
14927,commdev-image-keyboard-response,524,2001767,learnblock2,739.2000000476837,img/planet9_left.png,9,Community 1,NA,TRUE,f,f,NA,NA,NA,9,9,"1,8,14,9,2,11,3,5,6,15,7,13,12,10,4"
14927,commdev-image-keyboard-response,525,2003025,learnblock2,674.2000000476837,img/planet8_right.png,8,Community 1,NA,TRUE,j,j,NA,NA,NA,9,9,"1,8,14,9,2,11,3,5,6,15,7,13,12,10,4"
14927,commdev-image-keyboard-response,526,2004293,learnblock2,727.4000000953674,img/planet9_left.png,9,Community 1,NA,TRUE,f,f,NA,NA,NA,9,9,"1,8,14,9,2,11,3,5,6,15,7,13,12,10,4"
14927,commdev-image-keyboard-response,527,2005557,learnblock2,597.7999999523163,img/planet1_left.png,1,Community 1,NA,TRUE,f,f,NA,NA,NA,9,9,"1,8,14,9,2,11,3,5,6,15,7,13,12,10,4"
14927,commdev-image-keyboard-response,528,2006814,learnblock2,448.59999990463257,img/planet9_left.png,9,Community 1,NA,TRUE,f,f,NA,NA,NA,9,9,"1,8,14,9,2,11,3,5,6,15,7,13,12,10,4"
14927,commdev-image-keyboard-response,529,2008073,learnblock2,462.2999999523163,img/planet11_right.png,11,Community 2,NA,TRUE,j,j,NA,NA,NA,9,9,"1,8,14,9,2,11,3,5,6,15,7,13,12,10,4"
14927,commdev-image-keyboard-response,530,2009329,learnblock2,431.09999990463257,img/planet15_right.png,15,Community 2,NA,FALSE,f,j,NA,NA,NA,9,9,"1,8,14,9,2,11,3,5,6,15,7,13,12,10,4"
14927,commdev-image-keyboard-response,531,2010581,learnblock2,629.5999999046326,img/planet5_left.png,5,Community 2,NA,TRUE,f,f,NA,NA,NA,9,9,"1,8,14,9,2,11,3,5,6,15,7,13,12,10,4"
14927,commdev-image-keyboard-response,532,2011841,learnblock2,549,img/planet13_right.png,13,Community 3,NA,TRUE,j,j,NA,NA,NA,9,9,"1,8,14,9,2,11,3,5,6,15,7,13,12,10,4"
14927,commdev-image-keyboard-response,533,2013095,learnblock2,575.5999999046326,img/planet4_left.png,4,Community 3,NA,TRUE,f,f,NA,NA,NA,9,9,"1,8,14,9,2,11,3,5,6,15,7,13,12,10,4"
14927,commdev-image-keyboard-response,534,2014353,learnblock2,715.6999998092651,img/planet7_left.png,7,Community 3,NA,TRUE,f,f,NA,NA,NA,9,9,"1,8,14,9,2,11,3,5,6,15,7,13,12,10,4"
14927,commdev-image-keyboard-response,535,2015606,learnblock2,724,img/planet4_right.png,4,Community 3,NA,TRUE,j,j,NA,NA,NA,9,9,"1,8,14,9,2,11,3,5,6,15,7,13,12,10,4"
14927,commdev-image-keyboard-response,536,2016874,learnblock2,725.5999999046326,img/planet12_right.png,12,Community 3,NA,TRUE,j,j,NA,NA,NA,9,9,"1,8,14,9,2,11,3,5,6,15,7,13,12,10,4"
14927,commdev-image-keyboard-response,537,2018132,learnblock2,710.2000000476837,img/planet13_right.png,13,Community 3,NA,TRUE,j,j,NA,NA,NA,9,9,"1,8,14,9,2,11,3,5,6,15,7,13,12,10,4"
14927,commdev-image-keyboard-response,538,2019390,learnblock2,622.5999999046326,img/planet10_right.png,10,Community 3,NA,TRUE,j,j,NA,NA,NA,9,9,"1,8,14,9,2,11,3,5,6,15,7,13,12,10,4"
14927,commdev-image-keyboard-response,539,2020650,learnblock2,487.2000000476837,img/planet12_left.png,12,Community 3,NA,TRUE,f,f,NA,NA,NA,9,9,"1,8,14,9,2,11,3,5,6,15,7,13,12,10,4"
14927,commdev-image-keyboard-response,540,2021903,learnblock2,396.40000009536743,img/planet13_right.png,13,Community 3,NA,TRUE,j,j,NA,NA,NA,9,9,"1,8,14,9,2,11,3,5,6,15,7,13,12,10,4"
14927,commdev-image-keyboard-response,541,2023167,learnblock2,502.90000009536743,img/planet4_right.png,4,Community 3,NA,TRUE,j,j,NA,NA,NA,9,9,"1,8,14,9,2,11,3,5,6,15,7,13,12,10,4"
14927,commdev-image-keyboard-response,542,2024421,learnblock2,785.7999999523163,img/planet13_left.png,13,Community 3,NA,TRUE,f,f,NA,NA,NA,9,9,"1,8,14,9,2,11,3,5,6,15,7,13,12,10,4"
14927,commdev-image-keyboard-response,543,2025677,learnblock2,777.5,img/planet10_right.png,10,Community 3,NA,TRUE,j,j,NA,NA,NA,9,9,"1,8,14,9,2,11,3,5,6,15,7,13,12,10,4"
14927,commdev-image-keyboard-response,544,2026937,learnblock2,780.7999999523163,img/planet7_right.png,7,Community 3,NA,TRUE,j,j,NA,NA,NA,9,9,"1,8,14,9,2,11,3,5,6,15,7,13,12,10,4"
14927,commdev-image-keyboard-response,545,2028202,learnblock2,805.0999999046326,img/planet4_right.png,4,Community 3,NA,TRUE,j,j,NA,NA,NA,9,9,"1,8,14,9,2,11,3,5,6,15,7,13,12,10,4"
14927,commdev-image-keyboard-response,546,2029462,learnblock2,936.7999999523163,img/planet7_left.png,7,Community 3,NA,TRUE,f,f,NA,NA,NA,9,9,"1,8,14,9,2,11,3,5,6,15,7,13,12,10,4"
14927,commdev-image-keyboard-response,547,2030715,learnblock2,1014.5,img/planet10_left.png,10,Community 3,NA,TRUE,f,f,NA,NA,NA,9,9,"1,8,14,9,2,11,3,5,6,15,7,13,12,10,4"
14927,commdev-image-keyboard-response,548,2031973,learnblock2,945.4000000953674,img/planet13_left.png,13,Community 3,NA,TRUE,f,f,NA,NA,NA,9,9,"1,8,14,9,2,11,3,5,6,15,7,13,12,10,4"
14927,commdev-image-keyboard-response,549,2033233,learnblock2,1004.8000001907349,img/planet4_left.png,4,Community 3,NA,TRUE,f,f,NA,NA,NA,9,9,"1,8,14,9,2,11,3,5,6,15,7,13,12,10,4"
14927,commdev-image-keyboard-response,550,2034488,learnblock2,869.7999999523163,img/planet7_left.png,7,Community 3,NA,TRUE,f,f,NA,NA,NA,9,9,"1,8,14,9,2,11,3,5,6,15,7,13,12,10,4"
14927,commdev-image-keyboard-response,551,2035749,learnblock2,647.4000000953674,img/planet12_left.png,12,Community 3,NA,TRUE,f,f,NA,NA,NA,9,9,"1,8,14,9,2,11,3,5,6,15,7,13,12,10,4"
14927,commdev-image-keyboard-response,552,2037001,learnblock2,578.9000000953674,img/planet7_right.png,7,Community 3,NA,FALSE,f,j,NA,NA,NA,9,9,"1,8,14,9,2,11,3,5,6,15,7,13,12,10,4"
14927,commdev-image-keyboard-response,553,2038260,learnblock2,776.6000001430511,img/planet10_left.png,10,Community 3,NA,TRUE,f,f,NA,NA,NA,9,9,"1,8,14,9,2,11,3,5,6,15,7,13,12,10,4"
14927,commdev-image-keyboard-response,554,2039512,learnblock2,620.2000000476837,img/planet13_left.png,13,Community 3,NA,TRUE,f,f,NA,NA,NA,9,9,"1,8,14,9,2,11,3,5,6,15,7,13,12,10,4"
14927,commdev-image-keyboard-response,555,2040772,learnblock2,916.1000001430511,img/planet10_right.png,10,Community 3,NA,TRUE,j,j,NA,NA,NA,9,9,"1,8,14,9,2,11,3,5,6,15,7,13,12,10,4"
14927,commdev-image-keyboard-response,556,2042024,learnblock2,1106.6000001430511,img/planet13_left.png,13,Community 3,NA,TRUE,f,f,NA,NA,NA,9,9,"1,8,14,9,2,11,3,5,6,15,7,13,12,10,4"
14927,commdev-image-keyboard-response,557,2043282,learnblock2,null,img/planet12_right.png,12,Community 3,NA,FALSE,null,j,NA,NA,NA,9,9,"1,8,14,9,2,11,3,5,6,15,7,13,12,10,4"
14927,commdev-image-keyboard-response,558,2044550,learnblock2,50.90000009536743,img/planet7_left.png,7,Community 3,NA,FALSE,j,f,NA,NA,NA,9,9,"1,8,14,9,2,11,3,5,6,15,7,13,12,10,4"
14927,commdev-image-keyboard-response,559,2045807,learnblock2,627.2000000476837,img/planet2_right.png,2,Community 1,NA,TRUE,j,j,NA,NA,NA,9,9,"1,8,14,9,2,11,3,5,6,15,7,13,12,10,4"
14927,commdev-image-keyboard-response,560,2047059,learnblock2,695,img/planet1_right.png,1,Community 1,NA,FALSE,f,j,NA,NA,NA,9,9,"1,8,14,9,2,11,3,5,6,15,7,13,12,10,4"
14927,commdev-image-keyboard-response,561,2048318,learnblock2,898.5999999046326,img/planet2_right.png,2,Community 1,NA,FALSE,f,j,NA,NA,NA,9,9,"1,8,14,9,2,11,3,5,6,15,7,13,12,10,4"
14927,commdev-image-keyboard-response,562,2049572,learnblock2,1063.5999999046326,img/planet8_left.png,8,Community 1,NA,TRUE,f,f,NA,NA,NA,9,9,"1,8,14,9,2,11,3,5,6,15,7,13,12,10,4"
14927,commdev-image-keyboard-response,563,2050826,learnblock2,620,img/planet1_right.png,1,Community 1,NA,TRUE,j,j,NA,NA,NA,9,9,"1,8,14,9,2,11,3,5,6,15,7,13,12,10,4"
14927,commdev-image-keyboard-response,564,2052078,learnblock2,810.7000000476837,img/planet9_right.png,9,Community 1,NA,TRUE,j,j,NA,NA,NA,9,9,"1,8,14,9,2,11,3,5,6,15,7,13,12,10,4"
14927,commdev-image-keyboard-response,565,2053340,learnblock2,682.1000001430511,img/planet11_right.png,11,Community 2,NA,TRUE,j,j,NA,NA,NA,9,9,"1,8,14,9,2,11,3,5,6,15,7,13,12,10,4"
14927,commdev-image-keyboard-response,566,2054592,learnblock2,723.6000001430511,img/planet15_left.png,15,Community 2,NA,TRUE,f,f,NA,NA,NA,9,9,"1,8,14,9,2,11,3,5,6,15,7,13,12,10,4"
14927,commdev-image-keyboard-response,567,2055848,learnblock2,693.8999998569489,img/planet11_right.png,11,Community 2,NA,TRUE,j,j,NA,NA,NA,9,9,"1,8,14,9,2,11,3,5,6,15,7,13,12,10,4"
14927,commdev-image-keyboard-response,568,2057103,learnblock2,1010.5999999046326,img/planet9_left.png,9,Community 1,NA,TRUE,f,f,NA,NA,NA,9,9,"1,8,14,9,2,11,3,5,6,15,7,13,12,10,4"
14927,commdev-image-keyboard-response,569,2058356,learnblock2,1174.7999999523163,img/planet1_left.png,1,Community 1,NA,TRUE,f,f,NA,NA,NA,9,9,"1,8,14,9,2,11,3,5,6,15,7,13,12,10,4"
14927,commdev-image-keyboard-response,570,2059616,learnblock2,32.5,img/planet9_right.png,9,Community 1,NA,TRUE,j,j,NA,NA,NA,9,9,"1,8,14,9,2,11,3,5,6,15,7,13,12,10,4"
14927,commdev-image-keyboard-response,571,2060869,learnblock2,745.6999998092651,img/planet14_right.png,14,Community 1,NA,TRUE,j,j,NA,NA,NA,9,9,"1,8,14,9,2,11,3,5,6,15,7,13,12,10,4"
14927,commdev-image-keyboard-response,572,2062129,learnblock2,808.0999999046326,img/planet1_right.png,1,Community 1,NA,FALSE,f,j,NA,NA,NA,9,9,"1,8,14,9,2,11,3,5,6,15,7,13,12,10,4"
14927,commdev-image-keyboard-response,573,2063385,learnblock2,817,img/planet14_left.png,14,Community 1,NA,TRUE,f,f,NA,NA,NA,9,9,"1,8,14,9,2,11,3,5,6,15,7,13,12,10,4"
14927,commdev-image-keyboard-response,574,2064637,learnblock2,1089.7000000476837,img/planet8_left.png,8,Community 1,NA,FALSE,j,f,NA,NA,NA,9,9,"1,8,14,9,2,11,3,5,6,15,7,13,12,10,4"
14927,commdev-image-keyboard-response,575,2065891,learnblock2,113.5,img/planet14_left.png,14,Community 1,NA,TRUE,f,f,NA,NA,NA,9,9,"1,8,14,9,2,11,3,5,6,15,7,13,12,10,4"
14927,commdev-image-keyboard-response,576,2067144,learnblock2,838.7999999523163,img/planet8_left.png,8,Community 1,NA,TRUE,f,f,NA,NA,NA,9,9,"1,8,14,9,2,11,3,5,6,15,7,13,12,10,4"
14927,commdev-image-keyboard-response,577,2068404,learnblock2,615.4000000953674,img/planet2_right.png,2,Community 1,NA,TRUE,j,j,NA,NA,NA,9,9,"1,8,14,9,2,11,3,5,6,15,7,13,12,10,4"
14927,commdev-image-keyboard-response,578,2069656,learnblock2,945.9000000953674,img/planet14_left.png,14,Community 1,NA,TRUE,f,f,NA,NA,NA,9,9,"1,8,14,9,2,11,3,5,6,15,7,13,12,10,4"
14927,commdev-image-keyboard-response,579,2070919,learnblock2,685.2000000476837,img/planet2_right.png,2,Community 1,NA,TRUE,j,j,NA,NA,NA,9,9,"1,8,14,9,2,11,3,5,6,15,7,13,12,10,4"
14927,commdev-image-keyboard-response,580,2072175,learnblock2,521.5,img/planet7_left.png,7,Community 3,NA,TRUE,f,f,NA,NA,NA,9,9,"1,8,14,9,2,11,3,5,6,15,7,13,12,10,4"
14927,commdev-image-keyboard-response,581,2073439,learnblock2,552.5,img/planet4_left.png,4,Community 3,NA,TRUE,f,f,NA,NA,NA,9,9,"1,8,14,9,2,11,3,5,6,15,7,13,12,10,4"
14927,commdev-image-keyboard-response,582,2074696,learnblock2,764.0999999046326,img/planet7_left.png,7,Community 3,NA,TRUE,f,f,NA,NA,NA,9,9,"1,8,14,9,2,11,3,5,6,15,7,13,12,10,4"
14927,commdev-image-keyboard-response,583,2075957,learnblock2,null,img/planet10_left.png,10,Community 3,NA,FALSE,null,f,NA,NA,NA,9,9,"1,8,14,9,2,11,3,5,6,15,7,13,12,10,4"
14927,commdev-image-keyboard-response,584,2077213,learnblock2,844.7999999523163,img/planet12_right.png,12,Community 3,NA,FALSE,f,j,NA,NA,NA,9,9,"1,8,14,9,2,11,3,5,6,15,7,13,12,10,4"
14927,commdev-image-keyboard-response,585,2078466,learnblock2,733.2999999523163,img/planet10_left.png,10,Community 3,NA,TRUE,f,f,NA,NA,NA,9,9,"1,8,14,9,2,11,3,5,6,15,7,13,12,10,4"
14927,commdev-image-keyboard-response,586,2079718,learnblock2,618.2999999523163,img/planet12_right.png,12,Community 3,NA,TRUE,j,j,NA,NA,NA,9,9,"1,8,14,9,2,11,3,5,6,15,7,13,12,10,4"
14927,commdev-image-keyboard-response,587,2080973,learnblock2,852.9000000953674,img/planet13_left.png,13,Community 3,NA,TRUE,f,f,NA,NA,NA,9,9,"1,8,14,9,2,11,3,5,6,15,7,13,12,10,4"
14927,commdev-image-keyboard-response,588,2082235,learnblock2,710,img/planet5_right.png,5,Community 2,NA,TRUE,j,j,NA,NA,NA,9,9,"1,8,14,9,2,11,3,5,6,15,7,13,12,10,4"
14927,commdev-image-keyboard-response,589,2083494,learnblock2,1037,img/planet15_right.png,15,Community 2,NA,TRUE,j,j,NA,NA,NA,9,9,"1,8,14,9,2,11,3,5,6,15,7,13,12,10,4"
14927,commdev-image-keyboard-response,590,2084746,learnblock2,900.7000000476837,img/planet3_left.png,3,Community 2,NA,TRUE,f,f,NA,NA,NA,9,9,"1,8,14,9,2,11,3,5,6,15,7,13,12,10,4"
14927,commdev-image-keyboard-response,591,2086002,learnblock2,588.9000000953674,img/planet15_right.png,15,Community 2,NA,TRUE,j,j,NA,NA,NA,9,9,"1,8,14,9,2,11,3,5,6,15,7,13,12,10,4"
14927,commdev-image-keyboard-response,592,2087258,learnblock2,501.19999980926514,img/planet11_left.png,11,Community 2,NA,TRUE,f,f,NA,NA,NA,9,9,"1,8,14,9,2,11,3,5,6,15,7,13,12,10,4"
14927,commdev-image-keyboard-response,593,2088514,learnblock2,683,img/planet9_left.png,9,Community 1,NA,TRUE,f,f,NA,NA,NA,9,9,"1,8,14,9,2,11,3,5,6,15,7,13,12,10,4"
14927,commdev-image-keyboard-response,594,2089769,learnblock2,811,img/planet1_right.png,1,Community 1,NA,FALSE,f,j,NA,NA,NA,9,9,"1,8,14,9,2,11,3,5,6,15,7,13,12,10,4"
14927,commdev-image-keyboard-response,595,2091026,learnblock2,576.6000001430511,img/planet14_right.png,14,Community 1,NA,FALSE,f,j,NA,NA,NA,9,9,"1,8,14,9,2,11,3,5,6,15,7,13,12,10,4"
14927,commdev-image-keyboard-response,596,2092284,learnblock2,697.5,img/planet2_right.png,2,Community 1,NA,TRUE,j,j,NA,NA,NA,9,9,"1,8,14,9,2,11,3,5,6,15,7,13,12,10,4"
14927,commdev-image-keyboard-response,597,2093540,learnblock2,1039.0999999046326,img/planet14_right.png,14,Community 1,NA,TRUE,j,j,NA,NA,NA,9,9,"1,8,14,9,2,11,3,5,6,15,7,13,12,10,4"
14927,commdev-image-keyboard-response,598,2094792,learnblock2,null,img/planet1_left.png,1,Community 1,NA,FALSE,null,f,NA,NA,NA,9,9,"1,8,14,9,2,11,3,5,6,15,7,13,12,10,4"
14927,commdev-image-keyboard-response,599,2096050,learnblock2,215.60000014305115,img/planet2_right.png,2,Community 1,NA,FALSE,f,j,NA,NA,NA,9,9,"1,8,14,9,2,11,3,5,6,15,7,13,12,10,4"
14927,commdev-image-keyboard-response,600,2097309,learnblock2,801.1000001430511,img/planet7_left.png,7,Community 3,NA,TRUE,f,f,NA,NA,NA,9,9,"1,8,14,9,2,11,3,5,6,15,7,13,12,10,4"
14927,commdev-image-keyboard-response,601,2098564,learnblock2,null,img/planet4_left.png,4,Community 3,NA,FALSE,null,f,NA,NA,NA,9,9,"1,8,14,9,2,11,3,5,6,15,7,13,12,10,4"
14927,commdev-image-keyboard-response,602,2099817,learnblock2,1169.3999998569489,img/planet13_right.png,13,Community 3,NA,TRUE,j,j,NA,NA,NA,9,9,"1,8,14,9,2,11,3,5,6,15,7,13,12,10,4"
14927,commdev-image-keyboard-response,603,2101076,learnblock2,null,img/planet4_right.png,4,Community 3,NA,FALSE,null,j,NA,NA,NA,9,9,"1,8,14,9,2,11,3,5,6,15,7,13,12,10,4"
14927,commdev-image-keyboard-response,604,2102333,learnblock2,34.5,img/planet10_left.png,10,Community 3,NA,FALSE,j,f,NA,NA,NA,9,9,"1,8,14,9,2,11,3,5,6,15,7,13,12,10,4"
14927,commdev-image-keyboard-response,605,2103594,learnblock2,null,img/planet7_right.png,7,Community 3,NA,FALSE,null,j,NA,NA,NA,9,9,"1,8,14,9,2,11,3,5,6,15,7,13,12,10,4"
14927,commdev-image-keyboard-response,606,2104861,learnblock2,null,img/planet10_right.png,10,Community 3,NA,FALSE,null,j,NA,NA,NA,9,9,"1,8,14,9,2,11,3,5,6,15,7,13,12,10,4"
14927,commdev-image-keyboard-response,607,2106120,learnblock2,225.10000014305115,img/planet13_left.png,13,Community 3,NA,TRUE,f,f,NA,NA,NA,9,9,"1,8,14,9,2,11,3,5,6,15,7,13,12,10,4"
14927,commdev-image-keyboard-response,608,2107383,learnblock2,278.09999990463257,img/planet4_left.png,4,Community 3,NA,FALSE,j,f,NA,NA,NA,9,9,"1,8,14,9,2,11,3,5,6,15,7,13,12,10,4"
14927,commdev-image-keyboard-response,609,2108639,learnblock2,573.2000000476837,img/planet10_right.png,10,Community 3,NA,TRUE,j,j,NA,NA,NA,9,9,"1,8,14,9,2,11,3,5,6,15,7,13,12,10,4"
14927,commdev-image-keyboard-response,610,2109893,learnblock2,792.6000001430511,img/planet13_left.png,13,Community 3,NA,TRUE,f,f,NA,NA,NA,9,9,"1,8,14,9,2,11,3,5,6,15,7,13,12,10,4"
14927,commdev-image-keyboard-response,611,2111151,learnblock2,978.8000001907349,img/planet10_left.png,10,Community 3,NA,TRUE,f,f,NA,NA,NA,9,9,"1,8,14,9,2,11,3,5,6,15,7,13,12,10,4"
14927,commdev-image-keyboard-response,612,2112407,learnblock2,812.8000001907349,img/planet12_left.png,12,Community 3,NA,TRUE,f,f,NA,NA,NA,9,9,"1,8,14,9,2,11,3,5,6,15,7,13,12,10,4"
14927,commdev-image-keyboard-response,613,2113660,learnblock2,843,img/planet10_right.png,10,Community 3,NA,TRUE,j,j,NA,NA,NA,9,9,"1,8,14,9,2,11,3,5,6,15,7,13,12,10,4"
14927,commdev-image-keyboard-response,614,2114920,learnblock2,729.4000000953674,img/planet12_left.png,12,Community 3,NA,TRUE,f,f,NA,NA,NA,9,9,"1,8,14,9,2,11,3,5,6,15,7,13,12,10,4"
14927,commdev-image-keyboard-response,615,2116173,learnblock2,1055.6000001430511,img/planet10_left.png,10,Community 3,NA,TRUE,f,f,NA,NA,NA,9,9,"1,8,14,9,2,11,3,5,6,15,7,13,12,10,4"
14927,commdev-image-keyboard-response,616,2117426,learnblock2,1083.7000000476837,img/planet4_left.png,4,Community 3,NA,TRUE,f,f,NA,NA,NA,9,9,"1,8,14,9,2,11,3,5,6,15,7,13,12,10,4"
14927,commdev-image-keyboard-response,617,2118681,learnblock2,null,img/planet10_left.png,10,Community 3,NA,FALSE,null,f,NA,NA,NA,9,9,"1,8,14,9,2,11,3,5,6,15,7,13,12,10,4"
14927,commdev-image-keyboard-response,618,2119941,learnblock2,null,img/planet4_left.png,4,Community 3,NA,FALSE,null,f,NA,NA,NA,9,9,"1,8,14,9,2,11,3,5,6,15,7,13,12,10,4"
14927,commdev-image-keyboard-response,619,2121200,learnblock2,342.10000014305115,img/planet13_left.png,13,Community 3,NA,TRUE,f,f,NA,NA,NA,9,9,"1,8,14,9,2,11,3,5,6,15,7,13,12,10,4"
14927,commdev-image-keyboard-response,620,2122455,learnblock2,511.7000000476837,img/planet4_left.png,4,Community 3,NA,FALSE,j,f,NA,NA,NA,9,9,"1,8,14,9,2,11,3,5,6,15,7,13,12,10,4"
14927,commdev-image-keyboard-response,621,2123711,learnblock2,805.2999999523163,img/planet12_right.png,12,Community 3,NA,TRUE,j,j,NA,NA,NA,9,9,"1,8,14,9,2,11,3,5,6,15,7,13,12,10,4"
14927,commdev-image-keyboard-response,622,2124969,learnblock2,749.7000000476837,img/planet10_left.png,10,Community 3,NA,TRUE,f,f,NA,NA,NA,9,9,"1,8,14,9,2,11,3,5,6,15,7,13,12,10,4"
14927,commdev-image-keyboard-response,623,2126234,learnblock2,727.2999999523163,img/planet13_right.png,13,Community 3,NA,FALSE,f,j,NA,NA,NA,9,9,"1,8,14,9,2,11,3,5,6,15,7,13,12,10,4"
14927,commdev-image-keyboard-response,624,2127497,learnblock2,907.5,img/planet12_right.png,12,Community 3,NA,FALSE,f,j,NA,NA,NA,9,9,"1,8,14,9,2,11,3,5,6,15,7,13,12,10,4"
14927,commdev-image-keyboard-response,625,2128755,learnblock2,363,img/planet13_left.png,13,Community 3,NA,FALSE,j,f,NA,NA,NA,9,9,"1,8,14,9,2,11,3,5,6,15,7,13,12,10,4"
14927,commdev-image-keyboard-response,626,2130012,learnblock2,713.7000000476837,img/planet5_left.png,5,Community 2,NA,TRUE,f,f,NA,NA,NA,9,9,"1,8,14,9,2,11,3,5,6,15,7,13,12,10,4"
14927,commdev-image-keyboard-response,627,2131266,learnblock2,843.7000000476837,img/planet15_right.png,15,Community 2,NA,FALSE,f,j,NA,NA,NA,9,9,"1,8,14,9,2,11,3,5,6,15,7,13,12,10,4"
14927,commdev-image-keyboard-response,628,2132524,learnblock2,34.700000047683716,img/planet11_left.png,11,Community 2,NA,FALSE,j,f,NA,NA,NA,9,9,"1,8,14,9,2,11,3,5,6,15,7,13,12,10,4"
14927,commdev-image-keyboard-response,629,2133781,learnblock2,1057.7999999523163,img/planet3_right.png,3,Community 2,NA,TRUE,j,j,NA,NA,NA,9,9,"1,8,14,9,2,11,3,5,6,15,7,13,12,10,4"
14927,commdev-image-keyboard-response,630,2135039,learnblock2,713.6000001430511,img/planet6_right.png,6,Community 2,NA,TRUE,j,j,NA,NA,NA,9,9,"1,8,14,9,2,11,3,5,6,15,7,13,12,10,4"
14927,commdev-image-keyboard-response,631,2136299,learnblock2,null,img/planet11_right.png,11,Community 2,NA,FALSE,null,j,NA,NA,NA,9,9,"1,8,14,9,2,11,3,5,6,15,7,13,12,10,4"
14927,commdev-image-keyboard-response,632,2137558,learnblock2,165.60000014305115,img/planet6_left.png,6,Community 2,NA,FALSE,j,f,NA,NA,NA,9,9,"1,8,14,9,2,11,3,5,6,15,7,13,12,10,4"
14927,commdev-image-keyboard-response,633,2138817,learnblock2,329.7000000476837,img/planet11_right.png,11,Community 2,NA,FALSE,f,j,NA,NA,NA,9,9,"1,8,14,9,2,11,3,5,6,15,7,13,12,10,4"
14927,commdev-image-keyboard-response,634,2140073,learnblock2,605.6000001430511,img/planet15_left.png,15,Community 2,NA,TRUE,f,f,NA,NA,NA,9,9,"1,8,14,9,2,11,3,5,6,15,7,13,12,10,4"
14927,commdev-image-keyboard-response,635,2141328,learnblock2,615.4000000953674,img/planet5_left.png,5,Community 2,NA,TRUE,f,f,NA,NA,NA,9,9,"1,8,14,9,2,11,3,5,6,15,7,13,12,10,4"
14927,commdev-image-keyboard-response,636,2142580,learnblock2,null,img/planet15_right.png,15,Community 2,NA,FALSE,null,j,NA,NA,NA,9,9,"1,8,14,9,2,11,3,5,6,15,7,13,12,10,4"
14927,commdev-image-keyboard-response,637,2143832,learnblock2,553.8999998569489,img/planet11_left.png,11,Community 2,NA,FALSE,j,f,NA,NA,NA,9,9,"1,8,14,9,2,11,3,5,6,15,7,13,12,10,4"
14927,commdev-image-keyboard-response,638,2145086,learnblock2,575.7999999523163,img/planet9_right.png,9,Community 1,NA,TRUE,j,j,NA,NA,NA,9,9,"1,8,14,9,2,11,3,5,6,15,7,13,12,10,4"
14927,commdev-image-keyboard-response,639,2146345,learnblock2,797.2999999523163,img/planet11_left.png,11,Community 2,NA,TRUE,f,f,NA,NA,NA,9,9,"1,8,14,9,2,11,3,5,6,15,7,13,12,10,4"
14927,commdev-image-keyboard-response,640,2147603,learnblock2,902.2999999523163,img/planet3_right.png,3,Community 2,NA,TRUE,j,j,NA,NA,NA,9,9,"1,8,14,9,2,11,3,5,6,15,7,13,12,10,4"
14927,commdev-image-keyboard-response,641,2148860,learnblock2,703,img/planet6_left.png,6,Community 2,NA,TRUE,f,f,NA,NA,NA,9,9,"1,8,14,9,2,11,3,5,6,15,7,13,12,10,4"
14927,commdev-image-keyboard-response,642,2150124,learnblock2,null,img/planet11_left.png,11,Community 2,NA,FALSE,null,f,NA,NA,NA,9,9,"1,8,14,9,2,11,3,5,6,15,7,13,12,10,4"
14927,commdev-image-keyboard-response,643,2151389,learnblock2,110,img/planet6_right.png,6,Community 2,NA,FALSE,f,j,NA,NA,NA,9,9,"1,8,14,9,2,11,3,5,6,15,7,13,12,10,4"
14927,commdev-image-keyboard-response,644,2152649,learnblock2,88,img/planet5_left.png,5,Community 2,NA,FALSE,j,f,NA,NA,NA,9,9,"1,8,14,9,2,11,3,5,6,15,7,13,12,10,4"
14927,commdev-image-keyboard-response,645,2153908,learnblock2,992.8999998569489,img/planet15_left.png,15,Community 2,NA,TRUE,f,f,NA,NA,NA,9,9,"1,8,14,9,2,11,3,5,6,15,7,13,12,10,4"
14927,commdev-image-keyboard-response,646,2155166,learnblock2,697.2000000476837,img/planet6_right.png,6,Community 2,NA,TRUE,j,j,NA,NA,NA,9,9,"1,8,14,9,2,11,3,5,6,15,7,13,12,10,4"
14927,commdev-image-keyboard-response,647,2156423,learnblock2,863.3999998569489,img/planet5_left.png,5,Community 2,NA,TRUE,f,f,NA,NA,NA,9,9,"1,8,14,9,2,11,3,5,6,15,7,13,12,10,4"
14927,commdev-image-keyboard-response,648,2157679,learnblock2,795,img/planet6_right.png,6,Community 2,NA,TRUE,j,j,NA,NA,NA,9,9,"1,8,14,9,2,11,3,5,6,15,7,13,12,10,4"
14927,commdev-image-keyboard-response,649,2158933,learnblock2,932.2999999523163,img/planet5_left.png,5,Community 2,NA,TRUE,f,f,NA,NA,NA,9,9,"1,8,14,9,2,11,3,5,6,15,7,13,12,10,4"
14927,commdev-image-keyboard-response,650,2160190,learnblock2,887.2000000476837,img/planet15_right.png,15,Community 2,NA,FALSE,f,j,NA,NA,NA,9,9,"1,8,14,9,2,11,3,5,6,15,7,13,12,10,4"
14927,commdev-image-keyboard-response,651,2161445,learnblock2,749,img/planet5_left.png,5,Community 2,NA,TRUE,f,f,NA,NA,NA,9,9,"1,8,14,9,2,11,3,5,6,15,7,13,12,10,4"
14927,commdev-image-keyboard-response,652,2162699,learnblock2,755.4000000953674,img/planet13_left.png,13,Community 3,NA,TRUE,f,f,NA,NA,NA,9,9,"1,8,14,9,2,11,3,5,6,15,7,13,12,10,4"
14927,commdev-image-keyboard-response,653,2163957,learnblock2,543,img/planet5_right.png,5,Community 2,NA,TRUE,j,j,NA,NA,NA,9,9,"1,8,14,9,2,11,3,5,6,15,7,13,12,10,4"
14927,commdev-image-keyboard-response,654,2165215,learnblock2,796.5,img/planet6_left.png,6,Community 2,NA,TRUE,f,f,NA,NA,NA,9,9,"1,8,14,9,2,11,3,5,6,15,7,13,12,10,4"
14927,commdev-image-keyboard-response,655,2166470,learnblock2,877.6000001430511,img/planet3_left.png,3,Community 2,NA,TRUE,f,f,NA,NA,NA,9,9,"1,8,14,9,2,11,3,5,6,15,7,13,12,10,4"
14927,commdev-image-keyboard-response,656,2167727,learnblock2,810.1999998092651,img/planet11_right.png,11,Community 2,NA,TRUE,j,j,NA,NA,NA,9,9,"1,8,14,9,2,11,3,5,6,15,7,13,12,10,4"
14927,commdev-image-keyboard-response,657,2168979,learnblock2,null,img/planet9_left.png,9,Community 1,NA,FALSE,null,f,NA,NA,NA,9,9,"1,8,14,9,2,11,3,5,6,15,7,13,12,10,4"
14927,commdev-image-keyboard-response,658,2170236,learnblock2,415.59999990463257,img/planet1_right.png,1,Community 1,NA,FALSE,f,j,NA,NA,NA,9,9,"1,8,14,9,2,11,3,5,6,15,7,13,12,10,4"
14927,commdev-image-keyboard-response,659,2171492,learnblock2,825.6999998092651,img/planet9_left.png,9,Community 1,NA,FALSE,j,f,NA,NA,NA,9,9,"1,8,14,9,2,11,3,5,6,15,7,13,12,10,4"
14927,commdev-image-keyboard-response,660,2172753,learnblock2,568.7000000476837,img/planet11_right.png,11,Community 2,NA,TRUE,j,j,NA,NA,NA,9,9,"1,8,14,9,2,11,3,5,6,15,7,13,12,10,4"
14927,commdev-image-keyboard-response,661,2174008,learnblock2,289.2999999523163,img/planet3_left.png,3,Community 2,NA,FALSE,j,f,NA,NA,NA,9,9,"1,8,14,9,2,11,3,5,6,15,7,13,12,10,4"
14927,commdev-image-keyboard-response,662,2175264,learnblock2,119.5,img/planet5_right.png,5,Community 2,NA,FALSE,f,j,NA,NA,NA,9,9,"1,8,14,9,2,11,3,5,6,15,7,13,12,10,4"
14927,commdev-image-keyboard-response,663,2176519,learnblock2,34.5,img/planet15_left.png,15,Community 2,NA,FALSE,j,f,NA,NA,NA,9,9,"1,8,14,9,2,11,3,5,6,15,7,13,12,10,4"
14927,commdev-image-keyboard-response,664,2177777,learnblock2,596.2000000476837,img/planet3_right.png,3,Community 2,NA,TRUE,j,j,NA,NA,NA,9,9,"1,8,14,9,2,11,3,5,6,15,7,13,12,10,4"
14927,commdev-image-keyboard-response,665,2179035,learnblock2,400.69999980926514,img/planet5_left.png,5,Community 2,NA,FALSE,j,f,NA,NA,NA,9,9,"1,8,14,9,2,11,3,5,6,15,7,13,12,10,4"
14927,commdev-image-keyboard-response,666,2180287,learnblock2,754.7000000476837,img/planet6_right.png,6,Community 2,NA,TRUE,j,j,NA,NA,NA,9,9,"1,8,14,9,2,11,3,5,6,15,7,13,12,10,4"
14927,commdev-image-keyboard-response,667,2181543,learnblock2,798.7000000476837,img/planet11_left.png,11,Community 2,NA,TRUE,f,f,NA,NA,NA,9,9,"1,8,14,9,2,11,3,5,6,15,7,13,12,10,4"
14927,commdev-image-keyboard-response,668,2182801,learnblock2,730,img/planet3_left.png,3,Community 2,NA,TRUE,f,f,NA,NA,NA,9,9,"1,8,14,9,2,11,3,5,6,15,7,13,12,10,4"
14927,commdev-image-keyboard-response,669,2184057,learnblock2,880.9000000953674,img/planet6_left.png,6,Community 2,NA,TRUE,f,f,NA,NA,NA,9,9,"1,8,14,9,2,11,3,5,6,15,7,13,12,10,4"
14927,commdev-image-keyboard-response,670,2185316,learnblock2,968.6000001430511,img/planet15_left.png,15,Community 2,NA,TRUE,f,f,NA,NA,NA,9,9,"1,8,14,9,2,11,3,5,6,15,7,13,12,10,4"
14927,commdev-image-keyboard-response,671,2186575,learnblock2,794.2999999523163,img/planet3_right.png,3,Community 2,NA,TRUE,j,j,NA,NA,NA,9,9,"1,8,14,9,2,11,3,5,6,15,7,13,12,10,4"
14927,commdev-image-keyboard-response,672,2187828,learnblock2,840.5999999046326,img/planet11_right.png,11,Community 2,NA,TRUE,j,j,NA,NA,NA,9,9,"1,8,14,9,2,11,3,5,6,15,7,13,12,10,4"
14927,commdev-image-keyboard-response,673,2189088,learnblock2,726.7000000476837,img/planet6_right.png,6,Community 2,NA,TRUE,j,j,NA,NA,NA,9,9,"1,8,14,9,2,11,3,5,6,15,7,13,12,10,4"
14927,commdev-image-keyboard-response,674,2190346,learnblock2,354.59999990463257,img/planet15_left.png,15,Community 2,NA,TRUE,f,f,NA,NA,NA,9,9,"1,8,14,9,2,11,3,5,6,15,7,13,12,10,4"
14927,commdev-image-keyboard-response,675,2191599,learnblock2,621.2000000476837,img/planet3_right.png,3,Community 2,NA,TRUE,j,j,NA,NA,NA,9,9,"1,8,14,9,2,11,3,5,6,15,7,13,12,10,4"
14927,commdev-image-keyboard-response,676,2192852,learnblock2,678.3999998569489,img/planet15_right.png,15,Community 2,NA,FALSE,f,j,NA,NA,NA,9,9,"1,8,14,9,2,11,3,5,6,15,7,13,12,10,4"
14927,commdev-image-keyboard-response,677,2194110,learnblock2,819.0999999046326,img/planet6_left.png,6,Community 2,NA,TRUE,f,f,NA,NA,NA,9,9,"1,8,14,9,2,11,3,5,6,15,7,13,12,10,4"
14927,commdev-image-keyboard-response,678,2195368,learnblock2,926.2000000476837,img/planet5_left.png,5,Community 2,NA,TRUE,f,f,NA,NA,NA,9,9,"1,8,14,9,2,11,3,5,6,15,7,13,12,10,4"
14927,commdev-image-keyboard-response,679,2196627,learnblock2,933.6000001430511,img/planet13_right.png,13,Community 3,NA,TRUE,j,j,NA,NA,NA,9,9,"1,8,14,9,2,11,3,5,6,15,7,13,12,10,4"
14927,commdev-image-keyboard-response,680,2197882,learnblock2,804.4000000953674,img/planet5_left.png,5,Community 2,NA,TRUE,f,f,NA,NA,NA,9,9,"1,8,14,9,2,11,3,5,6,15,7,13,12,10,4"
14927,commdev-image-keyboard-response,681,2199148,learnblock2,884,img/planet6_left.png,6,Community 2,NA,TRUE,f,f,NA,NA,NA,9,9,"1,8,14,9,2,11,3,5,6,15,7,13,12,10,4"
14927,commdev-image-keyboard-response,682,2200405,learnblock2,614.2999999523163,img/planet3_right.png,3,Community 2,NA,TRUE,j,j,NA,NA,NA,9,9,"1,8,14,9,2,11,3,5,6,15,7,13,12,10,4"
14927,commdev-image-keyboard-response,683,2201661,learnblock2,604.0999999046326,img/planet15_right.png,15,Community 2,NA,TRUE,j,j,NA,NA,NA,9,9,"1,8,14,9,2,11,3,5,6,15,7,13,12,10,4"
14927,commdev-image-keyboard-response,684,2202920,learnblock2,603,img/planet6_left.png,6,Community 2,NA,TRUE,f,f,NA,NA,NA,9,9,"1,8,14,9,2,11,3,5,6,15,7,13,12,10,4"
14927,commdev-image-keyboard-response,685,2204175,learnblock2,911.7000000476837,img/planet11_left.png,11,Community 2,NA,TRUE,f,f,NA,NA,NA,9,9,"1,8,14,9,2,11,3,5,6,15,7,13,12,10,4"
14927,commdev-image-keyboard-response,686,2205427,learnblock2,798.2000000476837,img/planet9_right.png,9,Community 1,NA,TRUE,j,j,NA,NA,NA,9,9,"1,8,14,9,2,11,3,5,6,15,7,13,12,10,4"
14927,commdev-image-keyboard-response,687,2206686,learnblock2,824.4000000953674,img/planet1_right.png,1,Community 1,NA,TRUE,j,j,NA,NA,NA,9,9,"1,8,14,9,2,11,3,5,6,15,7,13,12,10,4"
14927,commdev-image-keyboard-response,688,2207940,learnblock2,909.5,img/planet14_right.png,14,Community 1,NA,TRUE,j,j,NA,NA,NA,9,9,"1,8,14,9,2,11,3,5,6,15,7,13,12,10,4"
14927,commdev-image-keyboard-response,689,2209194,learnblock2,670.9000000953674,img/planet9_right.png,9,Community 1,NA,FALSE,f,j,NA,NA,NA,9,9,"1,8,14,9,2,11,3,5,6,15,7,13,12,10,4"
14927,commdev-image-keyboard-response,690,2210452,learnblock2,104.10000014305115,img/planet14_right.png,14,Community 1,NA,TRUE,j,j,NA,NA,NA,9,9,"1,8,14,9,2,11,3,5,6,15,7,13,12,10,4"
14927,commdev-image-keyboard-response,691,2211711,learnblock2,1035.2999999523163,img/planet1_right.png,1,Community 1,NA,TRUE,j,j,NA,NA,NA,9,9,"1,8,14,9,2,11,3,5,6,15,7,13,12,10,4"
14927,commdev-image-keyboard-response,692,2212967,learnblock2,679.4000000953674,img/planet9_right.png,9,Community 1,NA,TRUE,j,j,NA,NA,NA,9,9,"1,8,14,9,2,11,3,5,6,15,7,13,12,10,4"
14927,commdev-image-keyboard-response,693,2214224,learnblock2,779.3999998569489,img/planet14_left.png,14,Community 1,NA,TRUE,f,f,NA,NA,NA,9,9,"1,8,14,9,2,11,3,5,6,15,7,13,12,10,4"
14927,commdev-image-keyboard-response,694,2215483,learnblock2,568.2999999523163,img/planet8_right.png,8,Community 1,NA,TRUE,j,j,NA,NA,NA,9,9,"1,8,14,9,2,11,3,5,6,15,7,13,12,10,4"
14927,commdev-image-keyboard-response,695,2216735,learnblock2,573.2000000476837,img/planet9_left.png,9,Community 1,NA,FALSE,j,f,NA,NA,NA,9,9,"1,8,14,9,2,11,3,5,6,15,7,13,12,10,4"
14927,commdev-image-keyboard-response,696,2217992,learnblock2,739.5999999046326,img/planet8_left.png,8,Community 1,NA,FALSE,j,f,NA,NA,NA,9,9,"1,8,14,9,2,11,3,5,6,15,7,13,12,10,4"
14927,commdev-image-keyboard-response,697,2219250,learnblock2,922.6000001430511,img/planet14_right.png,14,Community 1,NA,FALSE,f,j,NA,NA,NA,9,9,"1,8,14,9,2,11,3,5,6,15,7,13,12,10,4"
14927,commdev-image-keyboard-response,698,2220508,learnblock2,648.5999999046326,img/planet1_right.png,1,Community 1,NA,TRUE,j,j,NA,NA,NA,9,9,"1,8,14,9,2,11,3,5,6,15,7,13,12,10,4"
14927,commdev-image-keyboard-response,699,2221762,learnblock2,759.5,img/planet8_right.png,8,Community 1,NA,FALSE,f,j,NA,NA,NA,9,9,"1,8,14,9,2,11,3,5,6,15,7,13,12,10,4"
14927,commdev-image-keyboard-response,700,2223029,learnblock2,16.90000009536743,img/planet2_left.png,2,Community 1,NA,FALSE,j,f,NA,NA,NA,9,9,"1,8,14,9,2,11,3,5,6,15,7,13,12,10,4"
14927,commdev-image-keyboard-response,701,2224289,learnblock2,119.20000004768372,img/planet1_right.png,1,Community 1,NA,FALSE,f,j,NA,NA,NA,9,9,"1,8,14,9,2,11,3,5,6,15,7,13,12,10,4"
14927,commdev-image-keyboard-response,702,2225544,learnblock2,453.59999990463257,img/planet9_left.png,9,Community 1,NA,TRUE,f,f,NA,NA,NA,9,9,"1,8,14,9,2,11,3,5,6,15,7,13,12,10,4"
14927,commdev-image-keyboard-response,703,2226800,learnblock2,431.09999990463257,img/planet14_right.png,14,Community 1,NA,TRUE,j,j,NA,NA,NA,9,9,"1,8,14,9,2,11,3,5,6,15,7,13,12,10,4"
14927,commdev-image-keyboard-response,704,2228063,learnblock2,633.1000001430511,img/planet2_left.png,2,Community 1,NA,TRUE,f,f,NA,NA,NA,9,9,"1,8,14,9,2,11,3,5,6,15,7,13,12,10,4"
14927,commdev-image-keyboard-response,705,2229316,learnblock2,937.4000000953674,img/planet7_right.png,7,Community 3,NA,FALSE,f,j,NA,NA,NA,9,9,"1,8,14,9,2,11,3,5,6,15,7,13,12,10,4"
14927,commdev-image-keyboard-response,706,2230570,learnblock2,null,img/planet2_left.png,2,Community 1,NA,FALSE,null,f,NA,NA,NA,9,9,"1,8,14,9,2,11,3,5,6,15,7,13,12,10,4"
14927,commdev-image-keyboard-response,707,2231823,learnblock2,null,img/planet14_left.png,14,Community 1,NA,FALSE,null,f,NA,NA,NA,9,9,"1,8,14,9,2,11,3,5,6,15,7,13,12,10,4"
14927,commdev-image-keyboard-response,708,2233077,learnblock2,628.5,img/planet9_right.png,9,Community 1,NA,TRUE,j,j,NA,NA,NA,9,9,"1,8,14,9,2,11,3,5,6,15,7,13,12,10,4"
14927,commdev-image-keyboard-response,709,2234329,learnblock2,1031.3999998569489,img/planet8_right.png,8,Community 1,NA,TRUE,j,j,NA,NA,NA,9,9,"1,8,14,9,2,11,3,5,6,15,7,13,12,10,4"
14927,commdev-image-keyboard-response,710,2235586,learnblock2,743.4000000953674,img/planet2_right.png,2,Community 1,NA,FALSE,f,j,NA,NA,NA,9,9,"1,8,14,9,2,11,3,5,6,15,7,13,12,10,4"
14927,commdev-image-keyboard-response,711,2236842,learnblock2,923.6999998092651,img/planet8_left.png,8,Community 1,NA,TRUE,f,f,NA,NA,NA,9,9,"1,8,14,9,2,11,3,5,6,15,7,13,12,10,4"
14927,commdev-image-keyboard-response,712,2238100,learnblock2,110.79999995231628,img/planet1_left.png,1,Community 1,NA,TRUE,f,f,NA,NA,NA,9,9,"1,8,14,9,2,11,3,5,6,15,7,13,12,10,4"
14927,commdev-image-keyboard-response,713,2239360,learnblock2,616.7999999523163,img/planet9_left.png,9,Community 1,NA,TRUE,f,f,NA,NA,NA,9,9,"1,8,14,9,2,11,3,5,6,15,7,13,12,10,4"
14927,commdev-image-keyboard-response,714,2240618,learnblock2,1054.3000001907349,img/planet1_left.png,1,Community 1,NA,TRUE,f,f,NA,NA,NA,9,9,"1,8,14,9,2,11,3,5,6,15,7,13,12,10,4"
14927,commdev-image-keyboard-response,715,2241873,learnblock2,1034.4000000953674,img/planet14_left.png,14,Community 1,NA,TRUE,f,f,NA,NA,NA,9,9,"1,8,14,9,2,11,3,5,6,15,7,13,12,10,4"
14927,commdev-image-keyboard-response,716,2243128,learnblock2,758.6999998092651,img/planet1_left.png,1,Community 1,NA,TRUE,f,f,NA,NA,NA,9,9,"1,8,14,9,2,11,3,5,6,15,7,13,12,10,4"
14927,commdev-image-keyboard-response,717,2244383,learnblock2,538.4000000953674,img/planet2_left.png,2,Community 1,NA,TRUE,f,f,NA,NA,NA,9,9,"1,8,14,9,2,11,3,5,6,15,7,13,12,10,4"
14927,commdev-image-keyboard-response,718,2245643,learnblock2,500,img/planet7_right.png,7,Community 3,NA,FALSE,f,j,NA,NA,NA,9,9,"1,8,14,9,2,11,3,5,6,15,7,13,12,10,4"
14927,commdev-image-keyboard-response,719,2246902,learnblock2,671.5999999046326,img/planet2_right.png,2,Community 1,NA,TRUE,j,j,NA,NA,NA,9,9,"1,8,14,9,2,11,3,5,6,15,7,13,12,10,4"
14927,commdev-image-keyboard-response,720,2248159,learnblock2,347.2000000476837,img/planet7_right.png,7,Community 3,NA,TRUE,j,j,NA,NA,NA,9,9,"1,8,14,9,2,11,3,5,6,15,7,13,12,10,4"
14927,commdev-image-keyboard-response,721,2249424,learnblock2,405.89999985694885,img/planet4_right.png,4,Community 3,NA,TRUE,j,j,NA,NA,NA,9,9,"1,8,14,9,2,11,3,5,6,15,7,13,12,10,4"
14927,commdev-image-keyboard-response,722,2250683,learnblock2,477.5,img/planet12_right.png,12,Community 3,NA,TRUE,j,j,NA,NA,NA,9,9,"1,8,14,9,2,11,3,5,6,15,7,13,12,10,4"
14927,commdev-image-keyboard-response,723,2251939,learnblock2,662.7999999523163,img/planet13_left.png,13,Community 3,NA,TRUE,f,f,NA,NA,NA,9,9,"1,8,14,9,2,11,3,5,6,15,7,13,12,10,4"
14927,commdev-image-keyboard-response,724,2253206,learnblock2,768.5,img/planet10_left.png,10,Community 3,NA,TRUE,f,f,NA,NA,NA,9,9,"1,8,14,9,2,11,3,5,6,15,7,13,12,10,4"
14927,commdev-image-keyboard-response,725,2254459,learnblock2,848,img/planet7_left.png,7,Community 3,NA,TRUE,f,f,NA,NA,NA,9,9,"1,8,14,9,2,11,3,5,6,15,7,13,12,10,4"
14927,commdev-image-keyboard-response,726,2255714,learnblock2,540.2999999523163,img/planet10_right.png,10,Community 3,NA,TRUE,j,j,NA,NA,NA,9,9,"1,8,14,9,2,11,3,5,6,15,7,13,12,10,4"
14927,commdev-image-keyboard-response,727,2256969,learnblock2,1216.5,img/planet12_right.png,12,Community 3,NA,TRUE,j,j,NA,NA,NA,9,9,"1,8,14,9,2,11,3,5,6,15,7,13,12,10,4"
14927,commdev-image-keyboard-response,728,2258231,learnblock2,null,img/planet4_left.png,4,Community 3,NA,FALSE,null,f,NA,NA,NA,9,9,"1,8,14,9,2,11,3,5,6,15,7,13,12,10,4"
14927,commdev-image-keyboard-response,729,2259487,learnblock2,282.60000014305115,img/planet12_left.png,12,Community 3,NA,TRUE,f,f,NA,NA,NA,9,9,"1,8,14,9,2,11,3,5,6,15,7,13,12,10,4"
14927,commdev-image-keyboard-response,730,2260749,learnblock2,587.5999999046326,img/planet10_right.png,10,Community 3,NA,FALSE,f,j,NA,NA,NA,9,9,"1,8,14,9,2,11,3,5,6,15,7,13,12,10,4"
14927,commdev-image-keyboard-response,731,2262017,learnblock2,634.9000000953674,img/planet13_left.png,13,Community 3,NA,TRUE,f,f,NA,NA,NA,9,9,"1,8,14,9,2,11,3,5,6,15,7,13,12,10,4"
14927,commdev-image-keyboard-response,732,2263276,learnblock2,648.7999999523163,img/planet10_right.png,10,Community 3,NA,TRUE,j,j,NA,NA,NA,9,9,"1,8,14,9,2,11,3,5,6,15,7,13,12,10,4"
14927,commdev-image-keyboard-response,733,2264535,learnblock2,698.2000000476837,img/planet12_left.png,12,Community 3,NA,TRUE,f,f,NA,NA,NA,9,9,"1,8,14,9,2,11,3,5,6,15,7,13,12,10,4"
14927,commdev-image-keyboard-response,734,2265791,learnblock2,576.5999999046326,img/planet7_right.png,7,Community 3,NA,TRUE,j,j,NA,NA,NA,9,9,"1,8,14,9,2,11,3,5,6,15,7,13,12,10,4"
14927,commdev-image-keyboard-response,735,2267050,learnblock2,643.2999999523163,img/planet10_left.png,10,Community 3,NA,TRUE,f,f,NA,NA,NA,9,9,"1,8,14,9,2,11,3,5,6,15,7,13,12,10,4"
14927,commdev-image-keyboard-response,736,2268305,learnblock2,933.8999998569489,img/planet13_left.png,13,Community 3,NA,TRUE,f,f,NA,NA,NA,9,9,"1,8,14,9,2,11,3,5,6,15,7,13,12,10,4"
14927,commdev-image-keyboard-response,737,2269565,learnblock2,868.5,img/planet12_right.png,12,Community 3,NA,TRUE,j,j,NA,NA,NA,9,9,"1,8,14,9,2,11,3,5,6,15,7,13,12,10,4"
14927,commdev-image-keyboard-response,738,2270829,learnblock2,636.9000000953674,img/planet10_left.png,10,Community 3,NA,TRUE,f,f,NA,NA,NA,9,9,"1,8,14,9,2,11,3,5,6,15,7,13,12,10,4"
14927,commdev-image-keyboard-response,739,2272083,learnblock2,683.7000000476837,img/planet7_right.png,7,Community 3,NA,TRUE,j,j,NA,NA,NA,9,9,"1,8,14,9,2,11,3,5,6,15,7,13,12,10,4"
14927,commdev-image-keyboard-response,740,2273342,learnblock2,862.2000000476837,img/planet10_left.png,10,Community 3,NA,TRUE,f,f,NA,NA,NA,9,9,"1,8,14,9,2,11,3,5,6,15,7,13,12,10,4"
14927,commdev-image-keyboard-response,741,2274596,learnblock2,827.2999999523163,img/planet12_right.png,12,Community 3,NA,TRUE,j,j,NA,NA,NA,9,9,"1,8,14,9,2,11,3,5,6,15,7,13,12,10,4"
14927,commdev-image-keyboard-response,742,2275852,learnblock2,849.8000001907349,img/planet7_left.png,7,Community 3,NA,TRUE,f,f,NA,NA,NA,9,9,"1,8,14,9,2,11,3,5,6,15,7,13,12,10,4"
14927,commdev-image-keyboard-response,743,2277108,learnblock2,969.8000001907349,img/planet12_left.png,12,Community 3,NA,TRUE,f,f,NA,NA,NA,9,9,"1,8,14,9,2,11,3,5,6,15,7,13,12,10,4"
14927,commdev-image-keyboard-response,744,2278363,learnblock2,645.2999999523163,img/planet7_right.png,7,Community 3,NA,TRUE,j,j,NA,NA,NA,9,9,"1,8,14,9,2,11,3,5,6,15,7,13,12,10,4"
14927,commdev-image-keyboard-response,745,2279618,learnblock2,585.5,img/planet12_right.png,12,Community 3,NA,FALSE,f,j,NA,NA,NA,9,9,"1,8,14,9,2,11,3,5,6,15,7,13,12,10,4"
14927,commdev-image-keyboard-response,746,2280887,learnblock2,787.8999998569489,img/planet10_left.png,10,Community 3,NA,TRUE,f,f,NA,NA,NA,9,9,"1,8,14,9,2,11,3,5,6,15,7,13,12,10,4"
14927,commdev-image-keyboard-response,747,2282141,learnblock2,null,img/planet4_left.png,4,Community 3,NA,FALSE,null,f,NA,NA,NA,9,9,"1,8,14,9,2,11,3,5,6,15,7,13,12,10,4"
14927,commdev-image-keyboard-response,748,2283395,learnblock2,125.5,img/planet13_left.png,13,Community 3,NA,TRUE,f,f,NA,NA,NA,9,9,"1,8,14,9,2,11,3,5,6,15,7,13,12,10,4"
14927,commdev-image-keyboard-response,749,2284647,learnblock2,416,img/planet10_right.png,10,Community 3,NA,FALSE,f,j,NA,NA,NA,9,9,"1,8,14,9,2,11,3,5,6,15,7,13,12,10,4"
14927,commdev-image-keyboard-response,750,2285902,learnblock2,908,img/planet4_left.png,4,Community 3,NA,TRUE,f,f,NA,NA,NA,9,9,"1,8,14,9,2,11,3,5,6,15,7,13,12,10,4"
14927,commdev-image-keyboard-response,751,2287154,learnblock2,979,img/planet12_right.png,12,Community 3,NA,TRUE,j,j,NA,NA,NA,9,9,"1,8,14,9,2,11,3,5,6,15,7,13,12,10,4"
14927,commdev-image-keyboard-response,752,2288413,learnblock2,880.5999999046326,img/planet4_left.png,4,Community 3,NA,TRUE,f,f,NA,NA,NA,9,9,"1,8,14,9,2,11,3,5,6,15,7,13,12,10,4"
14927,commdev-image-keyboard-response,753,2289665,learnblock2,911.7000000476837,img/planet12_left.png,12,Community 3,NA,TRUE,f,f,NA,NA,NA,9,9,"1,8,14,9,2,11,3,5,6,15,7,13,12,10,4"
14927,commdev-image-keyboard-response,754,2290928,learnblock2,940.0999999046326,img/planet4_left.png,4,Community 3,NA,TRUE,f,f,NA,NA,NA,9,9,"1,8,14,9,2,11,3,5,6,15,7,13,12,10,4"
14927,commdev-image-keyboard-response,755,2292186,learnblock2,929.5,img/planet12_left.png,12,Community 3,NA,TRUE,f,f,NA,NA,NA,9,9,"1,8,14,9,2,11,3,5,6,15,7,13,12,10,4"
14927,commdev-image-keyboard-response,756,2293440,learnblock2,830.5,img/planet4_right.png,4,Community 3,NA,TRUE,j,j,NA,NA,NA,9,9,"1,8,14,9,2,11,3,5,6,15,7,13,12,10,4"
14927,commdev-image-keyboard-response,757,2294699,learnblock2,748.9000000953674,img/planet12_left.png,12,Community 3,NA,TRUE,f,f,NA,NA,NA,9,9,"1,8,14,9,2,11,3,5,6,15,7,13,12,10,4"
