subject_id,trial_type,trial_index,time_elapsed,block,rt,stimulus,planet,community,response,correct,key_press,learning_correct_response,parse,init_locations,final_locations,browser_interactions,num_comp,planet_map
14999,commdev-instructions,7,31306,NA,967.9999999999964,"<p>In this game, you will be shown a 3x3 grid of patterns.</p> <p>The last one in the bottom right-hand corner, <strong>will be missing:</strong></p> <div style='width: 700px;'><div style='float: top;'><img style='width: 200px;' src='practice/p1_M1.png'></img><p class='small'>You need to select<strong> which of the four possible patterns </strong>along the bottom<strong> fits into the gap:</strong></p></div><div style='float: top;'><img style='width: 300px;' src='practice/p1_T1.png'></img></div><br>",NA,NA,NA,NA,NA,NA,NA,NA,NA,3,6,"7,5,6,1,13,15,2,4,14,12,10,11,8,9,3"
14999,commdev-instructions,8,50307,NA,762,"<p>Try to be as fast and as accurate as you can be.</p> <p>If you cannot solve the puzzle then you should guess - you will not be penalised for an incorrect answer.</p> <p>The task contains a shuffled mix of easy, medium and hard puzzles.</p> <p>You will have <strong>30 seconds</strong> to complete each puzzle.</p><br>",NA,NA,NA,NA,NA,NA,NA,NA,NA,3,6,"7,5,6,1,13,15,2,4,14,12,10,11,8,9,3"
14999,commdev-instructions,17,81457,NA,1037,<p><strong>Success!</strong></p> <p>You seem to be getting the hang of this...</p> <p>Let's move on to the real trials.</p><br>,NA,NA,NA,NA,NA,NA,NA,NA,NA,3,6,"7,5,6,1,13,15,2,4,14,12,10,11,8,9,3"
14999,commdev-instructions,93,575508,NA,2168,"<p>In this game, you are a scientist on board a space shuttle. </p><p> On each mission, you will visit planets all across the universe.</p><img src=""img/controlroom.jpg"" width=300vw>",NA,NA,NA,NA,NA,NA,NA,NA,NA,3,6,"7,5,6,1,13,15,2,4,14,12,10,11,8,9,3"
14999,commdev-instructions,94,578642,NA,1065,"<p>Here are a few planets you might see:</p><img src=""img/practice1.png"" width=200vw><img src=""img/practice2.png"" width=200vw><img src=""img/practice3.png"" width=200vw>",NA,NA,NA,NA,NA,NA,NA,NA,NA,3,6,"7,5,6,1,13,15,2,4,14,12,10,11,8,9,3"
14999,commdev-instructions,95,586760,NA,718,"<p>Your job as a scientist is to record which direction the winds are moving on each planet.</p><p>There are two types of wind directions:</p><img src=""img/practice1_left.png"" width=200vw><img src=""img/practice1_right.png"" width=200vw>",NA,NA,NA,NA,NA,NA,NA,NA,NA,3,6,"7,5,6,1,13,15,2,4,14,12,10,11,8,9,3"
14999,commdev-instructions,96,593025,NA,1389,"<p>If the winds are moving this way, press the letter <strong>F</strong> on the keyboard as fast as you can.</p><img src=""img/leftwind.png"" width=250vw>",NA,NA,NA,NA,NA,NA,NA,NA,NA,3,6,"7,5,6,1,13,15,2,4,14,12,10,11,8,9,3"
14999,commdev-instructions,97,598047,NA,529,"<p>If the winds are moving this way, press the letter <strong>J</strong> on the keyboard as fast as you can.</p><img src=""img/rightwind.png"" width=350vw>",NA,NA,NA,NA,NA,NA,NA,NA,NA,3,6,"7,5,6,1,13,15,2,4,14,12,10,11,8,9,3"
14999,commdev-instructions,98,604659,NA,2191,<p>You will have 1 second to respond. Try to respond before the time runs out!,NA,NA,NA,NA,NA,NA,NA,NA,NA,3,6,"7,5,6,1,13,15,2,4,14,12,10,11,8,9,3"
14999,commdev-instructions,99,610876,NA,786,<p>The planets you will visit will look different from each other.</p><p>You should respond <strong>only</strong> based on wind direction.,NA,NA,NA,NA,NA,NA,NA,NA,NA,3,6,"7,5,6,1,13,15,2,4,14,12,10,11,8,9,3"
14999,commdev-instructions,100,617125,NA,1084,"<p> Ready to start the practice round? </p><p> Remember, press <strong>F</strong> or <strong>J</strong> depending on the wind direction.<br><img src=""img/categorize_planet_example.png""",NA,NA,NA,NA,NA,NA,NA,NA,NA,3,6,"7,5,6,1,13,15,2,4,14,12,10,11,8,9,3"
14999,commdev-instructions,112,671143,NA,925,"<p>Great, now try a short practice mission. </p><p> This time, you will have 1 second to respond and you won't know whether you pressed the right or wrong key for each planet.</p>",NA,NA,NA,NA,NA,NA,NA,NA,NA,3,6,"7,5,6,1,13,15,2,4,14,12,10,11,8,9,3"
14999,commdev-image-keyboard-response,113,672497,practice,804,img/practice1_left.png,NA,Number not found in mappings,NA,TRUE,f,f,NA,NA,NA,3,6,"7,5,6,1,13,15,2,4,14,12,10,11,8,9,3"
14999,commdev-image-keyboard-response,114,673750,practice,1095.9999999998836,img/practice3_left.png,NA,Number not found in mappings,NA,TRUE,f,f,NA,NA,NA,3,6,"7,5,6,1,13,15,2,4,14,12,10,11,8,9,3"
14999,commdev-image-keyboard-response,115,675003,practice,762,img/practice2_right.png,NA,Number not found in mappings,NA,TRUE,j,j,NA,NA,NA,3,6,"7,5,6,1,13,15,2,4,14,12,10,11,8,9,3"
14999,commdev-image-keyboard-response,116,676256,practice,671,img/practice4_right.png,NA,Number not found in mappings,NA,FALSE,f,j,NA,NA,NA,3,6,"7,5,6,1,13,15,2,4,14,12,10,11,8,9,3"
14999,commdev-image-keyboard-response,117,677508,practice,941,img/practice3_left.png,NA,Number not found in mappings,NA,FALSE,j,f,NA,NA,NA,3,6,"7,5,6,1,13,15,2,4,14,12,10,11,8,9,3"
14999,commdev-image-keyboard-response,118,678761,practice,677.9999999998836,img/practice1_left.png,NA,Number not found in mappings,NA,TRUE,f,f,NA,NA,NA,3,6,"7,5,6,1,13,15,2,4,14,12,10,11,8,9,3"
14999,commdev-image-keyboard-response,119,680013,practice,null,img/practice2_left.png,NA,Number not found in mappings,NA,FALSE,null,f,NA,NA,NA,3,6,"7,5,6,1,13,15,2,4,14,12,10,11,8,9,3"
14999,commdev-image-keyboard-response,120,681266,practice,221,img/practice1_right.png,NA,Number not found in mappings,NA,FALSE,f,j,NA,NA,NA,3,6,"7,5,6,1,13,15,2,4,14,12,10,11,8,9,3"
14999,commdev-instructions,121,692575,NA,1753.9999999998836,"<p>Great job with the practice round.</p><p>During real missions, you won't know whether you pressed the right or wrong key for each planet.</p><p>But between missions, we will tell you how you did overall.</p>",NA,NA,NA,NA,NA,NA,NA,NA,NA,3,6,"7,5,6,1,13,15,2,4,14,12,10,11,8,9,3"
14999,commdev-instructions,122,701342,NA,532,<p>Try your best! You will be paid a bonus based on how many correct responses you make!</p><p>Responses that are too slow will not count toward your bonus.</p>,NA,NA,NA,NA,NA,NA,NA,NA,NA,3,6,"7,5,6,1,13,15,2,4,14,12,10,11,8,9,3"
14999,commdev-instructions,123,707975,NA,435,"<p>You are almost ready to start the real game.</p><p> First, we are going to ask you some questions about how the game works.</p>",NA,NA,NA,NA,NA,NA,NA,NA,NA,3,6,"7,5,6,1,13,15,2,4,14,12,10,11,8,9,3"
14999,commdev-instructions,132,781409,NA,747,"<p> Nice work! It is now time to start the real game.<p></p>You will go on two missions to record wind directions of different planets.<p></p>Each one will take about 5 minutes. You will get to take a break between missions.<p><p> Remember, press <strong>F</strong> or <strong>J</strong> depending on the wind direction. Good luck!<br><img src=""img/categorize_planet_example.png""",NA,NA,NA,NA,NA,NA,NA,NA,NA,3,6,"7,5,6,1,13,15,2,4,14,12,10,11,8,9,3"
14999,commdev-image-keyboard-response,134,784136,learnblock1,966.0000000001164,img/planet7_left.png,7,Community 1,NA,TRUE,f,f,NA,NA,NA,3,6,"7,5,6,1,13,15,2,4,14,12,10,11,8,9,3"
14999,commdev-image-keyboard-response,135,785389,learnblock1,763,img/planet1_right.png,1,Community 1,NA,TRUE,j,j,NA,NA,NA,3,6,"7,5,6,1,13,15,2,4,14,12,10,11,8,9,3"
14999,commdev-image-keyboard-response,136,786642,learnblock1,815,img/planet15_right.png,15,Community 2,NA,TRUE,j,j,NA,NA,NA,3,6,"7,5,6,1,13,15,2,4,14,12,10,11,8,9,3"
14999,commdev-image-keyboard-response,137,787895,learnblock1,1133.9999999998836,img/planet14_right.png,14,Community 2,NA,TRUE,j,j,NA,NA,NA,3,6,"7,5,6,1,13,15,2,4,14,12,10,11,8,9,3"
14999,commdev-image-keyboard-response,138,789147,learnblock1,754,img/planet2_left.png,2,Community 2,NA,TRUE,f,f,NA,NA,NA,3,6,"7,5,6,1,13,15,2,4,14,12,10,11,8,9,3"
14999,commdev-image-keyboard-response,139,790400,learnblock1,658.9999999998836,img/planet14_right.png,14,Community 2,NA,TRUE,j,j,NA,NA,NA,3,6,"7,5,6,1,13,15,2,4,14,12,10,11,8,9,3"
14999,commdev-image-keyboard-response,140,791652,learnblock1,739,img/planet15_right.png,15,Community 2,NA,TRUE,j,j,NA,NA,NA,3,6,"7,5,6,1,13,15,2,4,14,12,10,11,8,9,3"
14999,commdev-image-keyboard-response,141,792905,learnblock1,755.9999999998836,img/planet2_right.png,2,Community 2,NA,TRUE,j,j,NA,NA,NA,3,6,"7,5,6,1,13,15,2,4,14,12,10,11,8,9,3"
14999,commdev-image-keyboard-response,142,794158,learnblock1,772,img/planet15_right.png,15,Community 2,NA,TRUE,j,j,NA,NA,NA,3,6,"7,5,6,1,13,15,2,4,14,12,10,11,8,9,3"
14999,commdev-image-keyboard-response,143,795410,learnblock1,695,img/planet12_right.png,12,Community 2,NA,TRUE,j,j,NA,NA,NA,3,6,"7,5,6,1,13,15,2,4,14,12,10,11,8,9,3"
14999,commdev-image-keyboard-response,144,796666,learnblock1,610,img/planet2_left.png,2,Community 2,NA,TRUE,f,f,NA,NA,NA,3,6,"7,5,6,1,13,15,2,4,14,12,10,11,8,9,3"
14999,commdev-image-keyboard-response,145,797926,learnblock1,574.9999999998836,img/planet15_right.png,15,Community 2,NA,TRUE,j,j,NA,NA,NA,3,6,"7,5,6,1,13,15,2,4,14,12,10,11,8,9,3"
14999,commdev-image-keyboard-response,146,799186,learnblock1,692.9999999998836,img/planet12_left.png,12,Community 2,NA,TRUE,f,f,NA,NA,NA,3,6,"7,5,6,1,13,15,2,4,14,12,10,11,8,9,3"
14999,commdev-image-keyboard-response,147,800446,learnblock1,580,img/planet15_right.png,15,Community 2,NA,TRUE,j,j,NA,NA,NA,3,6,"7,5,6,1,13,15,2,4,14,12,10,11,8,9,3"
14999,commdev-image-keyboard-response,148,801706,learnblock1,810,img/planet12_left.png,12,Community 2,NA,TRUE,f,f,NA,NA,NA,3,6,"7,5,6,1,13,15,2,4,14,12,10,11,8,9,3"
14999,commdev-image-keyboard-response,149,802966,learnblock1,629,img/planet2_right.png,2,Community 2,NA,TRUE,j,j,NA,NA,NA,3,6,"7,5,6,1,13,15,2,4,14,12,10,11,8,9,3"
14999,commdev-image-keyboard-response,150,804226,learnblock1,525,img/planet4_left.png,4,Community 2,NA,TRUE,f,f,NA,NA,NA,3,6,"7,5,6,1,13,15,2,4,14,12,10,11,8,9,3"
14999,commdev-image-keyboard-response,151,805486,learnblock1,772.0000000001164,img/planet12_left.png,12,Community 2,NA,TRUE,f,f,NA,NA,NA,3,6,"7,5,6,1,13,15,2,4,14,12,10,11,8,9,3"
14999,commdev-image-keyboard-response,152,806746,learnblock1,689,img/planet14_left.png,14,Community 2,NA,TRUE,f,f,NA,NA,NA,3,6,"7,5,6,1,13,15,2,4,14,12,10,11,8,9,3"
14999,commdev-image-keyboard-response,153,808006,learnblock1,842,img/planet12_left.png,12,Community 2,NA,TRUE,f,f,NA,NA,NA,3,6,"7,5,6,1,13,15,2,4,14,12,10,11,8,9,3"
14999,commdev-image-keyboard-response,154,809266,learnblock1,629,img/planet15_left.png,15,Community 2,NA,TRUE,f,f,NA,NA,NA,3,6,"7,5,6,1,13,15,2,4,14,12,10,11,8,9,3"
14999,commdev-image-keyboard-response,155,810526,learnblock1,686.9999999998836,img/planet1_left.png,1,Community 1,NA,TRUE,f,f,NA,NA,NA,3,6,"7,5,6,1,13,15,2,4,14,12,10,11,8,9,3"
14999,commdev-image-keyboard-response,156,811786,learnblock1,632.9999999998836,img/planet7_right.png,7,Community 1,NA,TRUE,j,j,NA,NA,NA,3,6,"7,5,6,1,13,15,2,4,14,12,10,11,8,9,3"
14999,commdev-image-keyboard-response,157,813046,learnblock1,965,img/planet13_right.png,13,Community 1,NA,TRUE,j,j,NA,NA,NA,3,6,"7,5,6,1,13,15,2,4,14,12,10,11,8,9,3"
14999,commdev-image-keyboard-response,158,814306,learnblock1,721,img/planet7_right.png,7,Community 1,NA,TRUE,j,j,NA,NA,NA,3,6,"7,5,6,1,13,15,2,4,14,12,10,11,8,9,3"
14999,commdev-image-keyboard-response,159,815566,learnblock1,685,img/planet13_right.png,13,Community 1,NA,TRUE,j,j,NA,NA,NA,3,6,"7,5,6,1,13,15,2,4,14,12,10,11,8,9,3"
14999,commdev-image-keyboard-response,160,816826,learnblock1,746,img/planet7_right.png,7,Community 1,NA,TRUE,j,j,NA,NA,NA,3,6,"7,5,6,1,13,15,2,4,14,12,10,11,8,9,3"
14999,commdev-image-keyboard-response,161,818085,learnblock1,661.0000000001164,img/planet13_right.png,13,Community 1,NA,TRUE,j,j,NA,NA,NA,3,6,"7,5,6,1,13,15,2,4,14,12,10,11,8,9,3"
14999,commdev-image-keyboard-response,162,819346,learnblock1,619,img/planet5_right.png,5,Community 1,NA,TRUE,j,j,NA,NA,NA,3,6,"7,5,6,1,13,15,2,4,14,12,10,11,8,9,3"
14999,commdev-image-keyboard-response,163,820605,learnblock1,609,img/planet7_left.png,7,Community 1,NA,TRUE,f,f,NA,NA,NA,3,6,"7,5,6,1,13,15,2,4,14,12,10,11,8,9,3"
14999,commdev-image-keyboard-response,164,821865,learnblock1,705,img/planet5_left.png,5,Community 1,NA,TRUE,f,f,NA,NA,NA,3,6,"7,5,6,1,13,15,2,4,14,12,10,11,8,9,3"
14999,commdev-image-keyboard-response,165,823125,learnblock1,684,img/planet1_right.png,1,Community 1,NA,TRUE,j,j,NA,NA,NA,3,6,"7,5,6,1,13,15,2,4,14,12,10,11,8,9,3"
14999,commdev-image-keyboard-response,166,824385,learnblock1,737.0000000001164,img/planet7_left.png,7,Community 1,NA,TRUE,f,f,NA,NA,NA,3,6,"7,5,6,1,13,15,2,4,14,12,10,11,8,9,3"
14999,commdev-image-keyboard-response,167,825645,learnblock1,515,img/planet1_right.png,1,Community 1,NA,TRUE,j,j,NA,NA,NA,3,6,"7,5,6,1,13,15,2,4,14,12,10,11,8,9,3"
14999,commdev-image-keyboard-response,168,826905,learnblock1,500,img/planet7_left.png,7,Community 1,NA,TRUE,f,f,NA,NA,NA,3,6,"7,5,6,1,13,15,2,4,14,12,10,11,8,9,3"
14999,commdev-image-keyboard-response,169,828165,learnblock1,387,img/planet1_right.png,1,Community 1,NA,TRUE,j,j,NA,NA,NA,3,6,"7,5,6,1,13,15,2,4,14,12,10,11,8,9,3"
14999,commdev-image-keyboard-response,170,829425,learnblock1,734,img/planet6_left.png,6,Community 1,NA,FALSE,j,f,NA,NA,NA,3,6,"7,5,6,1,13,15,2,4,14,12,10,11,8,9,3"
14999,commdev-image-keyboard-response,171,830685,learnblock1,942,img/planet7_left.png,7,Community 1,NA,TRUE,f,f,NA,NA,NA,3,6,"7,5,6,1,13,15,2,4,14,12,10,11,8,9,3"
14999,commdev-image-keyboard-response,172,831945,learnblock1,966.0000000001164,img/planet6_left.png,6,Community 1,NA,TRUE,f,f,NA,NA,NA,3,6,"7,5,6,1,13,15,2,4,14,12,10,11,8,9,3"
14999,commdev-image-keyboard-response,173,833205,learnblock1,803,img/planet1_left.png,1,Community 1,NA,TRUE,f,f,NA,NA,NA,3,6,"7,5,6,1,13,15,2,4,14,12,10,11,8,9,3"
14999,commdev-image-keyboard-response,174,834464,learnblock1,643.0000000001164,img/planet15_left.png,15,Community 2,NA,TRUE,f,f,NA,NA,NA,3,6,"7,5,6,1,13,15,2,4,14,12,10,11,8,9,3"
14999,commdev-image-keyboard-response,175,835725,learnblock1,634,img/planet12_left.png,12,Community 2,NA,TRUE,f,f,NA,NA,NA,3,6,"7,5,6,1,13,15,2,4,14,12,10,11,8,9,3"
14999,commdev-image-keyboard-response,176,836985,learnblock1,545,img/planet4_right.png,4,Community 2,NA,TRUE,j,j,NA,NA,NA,3,6,"7,5,6,1,13,15,2,4,14,12,10,11,8,9,3"
14999,commdev-image-keyboard-response,177,838245,learnblock1,501,img/planet2_right.png,2,Community 2,NA,TRUE,j,j,NA,NA,NA,3,6,"7,5,6,1,13,15,2,4,14,12,10,11,8,9,3"
14999,commdev-image-keyboard-response,178,839505,learnblock1,645,img/planet4_left.png,4,Community 2,NA,TRUE,f,f,NA,NA,NA,3,6,"7,5,6,1,13,15,2,4,14,12,10,11,8,9,3"
14999,commdev-image-keyboard-response,179,840765,learnblock1,788,img/planet14_left.png,14,Community 2,NA,TRUE,f,f,NA,NA,NA,3,6,"7,5,6,1,13,15,2,4,14,12,10,11,8,9,3"
14999,commdev-image-keyboard-response,180,842025,learnblock1,685.9999999998836,img/planet12_right.png,12,Community 2,NA,TRUE,j,j,NA,NA,NA,3,6,"7,5,6,1,13,15,2,4,14,12,10,11,8,9,3"
14999,commdev-image-keyboard-response,181,843285,learnblock1,930.9999999998836,img/planet14_right.png,14,Community 2,NA,TRUE,j,j,NA,NA,NA,3,6,"7,5,6,1,13,15,2,4,14,12,10,11,8,9,3"
14999,commdev-image-keyboard-response,182,844545,learnblock1,1164,img/planet2_left.png,2,Community 2,NA,TRUE,f,f,NA,NA,NA,3,6,"7,5,6,1,13,15,2,4,14,12,10,11,8,9,3"
14999,commdev-image-keyboard-response,183,845805,learnblock1,962,img/planet4_left.png,4,Community 2,NA,TRUE,f,f,NA,NA,NA,3,6,"7,5,6,1,13,15,2,4,14,12,10,11,8,9,3"
14999,commdev-image-keyboard-response,184,847065,learnblock1,651,img/planet14_right.png,14,Community 2,NA,TRUE,j,j,NA,NA,NA,3,6,"7,5,6,1,13,15,2,4,14,12,10,11,8,9,3"
14999,commdev-image-keyboard-response,185,848325,learnblock1,661,img/planet12_left.png,12,Community 2,NA,TRUE,f,f,NA,NA,NA,3,6,"7,5,6,1,13,15,2,4,14,12,10,11,8,9,3"
14999,commdev-image-keyboard-response,186,849584,learnblock1,868.0000000001164,img/planet15_left.png,15,Community 2,NA,TRUE,f,f,NA,NA,NA,3,6,"7,5,6,1,13,15,2,4,14,12,10,11,8,9,3"
14999,commdev-image-keyboard-response,187,850844,learnblock1,655,img/planet12_right.png,12,Community 2,NA,TRUE,j,j,NA,NA,NA,3,6,"7,5,6,1,13,15,2,4,14,12,10,11,8,9,3"
14999,commdev-image-keyboard-response,188,852105,learnblock1,646.0000000001164,img/planet14_right.png,14,Community 2,NA,TRUE,j,j,NA,NA,NA,3,6,"7,5,6,1,13,15,2,4,14,12,10,11,8,9,3"
14999,commdev-image-keyboard-response,189,853364,learnblock1,599,img/planet2_right.png,2,Community 2,NA,TRUE,j,j,NA,NA,NA,3,6,"7,5,6,1,13,15,2,4,14,12,10,11,8,9,3"
14999,commdev-image-keyboard-response,190,854624,learnblock1,733.0000000001164,img/planet15_right.png,15,Community 2,NA,TRUE,j,j,NA,NA,NA,3,6,"7,5,6,1,13,15,2,4,14,12,10,11,8,9,3"
14999,commdev-image-keyboard-response,191,855884,learnblock1,577,img/planet1_right.png,1,Community 1,NA,TRUE,j,j,NA,NA,NA,3,6,"7,5,6,1,13,15,2,4,14,12,10,11,8,9,3"
14999,commdev-image-keyboard-response,192,857144,learnblock1,563.9999999998836,img/planet7_right.png,7,Community 1,NA,TRUE,j,j,NA,NA,NA,3,6,"7,5,6,1,13,15,2,4,14,12,10,11,8,9,3"
14999,commdev-image-keyboard-response,193,858404,learnblock1,555,img/planet1_right.png,1,Community 1,NA,TRUE,j,j,NA,NA,NA,3,6,"7,5,6,1,13,15,2,4,14,12,10,11,8,9,3"
14999,commdev-image-keyboard-response,194,859664,learnblock1,614,img/planet5_left.png,5,Community 1,NA,TRUE,f,f,NA,NA,NA,3,6,"7,5,6,1,13,15,2,4,14,12,10,11,8,9,3"
14999,commdev-image-keyboard-response,195,860924,learnblock1,479.9999999998836,img/planet1_right.png,1,Community 1,NA,TRUE,j,j,NA,NA,NA,3,6,"7,5,6,1,13,15,2,4,14,12,10,11,8,9,3"
14999,commdev-image-keyboard-response,196,862184,learnblock1,528.9999999998836,img/planet15_right.png,15,Community 2,NA,FALSE,f,j,NA,NA,NA,3,6,"7,5,6,1,13,15,2,4,14,12,10,11,8,9,3"
14999,commdev-image-keyboard-response,197,863444,learnblock1,634.0000000001164,img/planet2_right.png,2,Community 2,NA,TRUE,j,j,NA,NA,NA,3,6,"7,5,6,1,13,15,2,4,14,12,10,11,8,9,3"
14999,commdev-image-keyboard-response,198,864704,learnblock1,594,img/planet15_left.png,15,Community 2,NA,TRUE,f,f,NA,NA,NA,3,6,"7,5,6,1,13,15,2,4,14,12,10,11,8,9,3"
14999,commdev-image-keyboard-response,199,865964,learnblock1,643.0000000001164,img/planet2_left.png,2,Community 2,NA,TRUE,f,f,NA,NA,NA,3,6,"7,5,6,1,13,15,2,4,14,12,10,11,8,9,3"
14999,commdev-image-keyboard-response,200,867224,learnblock1,748.0000000001164,img/planet4_left.png,4,Community 2,NA,TRUE,f,f,NA,NA,NA,3,6,"7,5,6,1,13,15,2,4,14,12,10,11,8,9,3"
14999,commdev-image-keyboard-response,201,868484,learnblock1,628,img/planet14_right.png,14,Community 2,NA,TRUE,j,j,NA,NA,NA,3,6,"7,5,6,1,13,15,2,4,14,12,10,11,8,9,3"
14999,commdev-image-keyboard-response,202,869743,learnblock1,496,img/planet12_right.png,12,Community 2,NA,TRUE,j,j,NA,NA,NA,3,6,"7,5,6,1,13,15,2,4,14,12,10,11,8,9,3"
14999,commdev-image-keyboard-response,203,871004,learnblock1,609,img/planet14_right.png,14,Community 2,NA,TRUE,j,j,NA,NA,NA,3,6,"7,5,6,1,13,15,2,4,14,12,10,11,8,9,3"
14999,commdev-image-keyboard-response,204,872264,learnblock1,569,img/planet15_left.png,15,Community 2,NA,TRUE,f,f,NA,NA,NA,3,6,"7,5,6,1,13,15,2,4,14,12,10,11,8,9,3"
14999,commdev-image-keyboard-response,205,873523,learnblock1,null,img/planet1_right.png,1,Community 1,NA,FALSE,null,j,NA,NA,NA,3,6,"7,5,6,1,13,15,2,4,14,12,10,11,8,9,3"
14999,commdev-image-keyboard-response,206,874783,learnblock1,19.999999999883585,img/planet15_right.png,15,Community 2,NA,TRUE,j,j,NA,NA,NA,3,6,"7,5,6,1,13,15,2,4,14,12,10,11,8,9,3"
14999,commdev-image-keyboard-response,207,876043,learnblock1,519.9999999998836,img/planet1_right.png,1,Community 1,NA,TRUE,j,j,NA,NA,NA,3,6,"7,5,6,1,13,15,2,4,14,12,10,11,8,9,3"
14999,commdev-image-keyboard-response,208,877304,learnblock1,537,img/planet5_right.png,5,Community 1,NA,TRUE,j,j,NA,NA,NA,3,6,"7,5,6,1,13,15,2,4,14,12,10,11,8,9,3"
14999,commdev-image-keyboard-response,209,878563,learnblock1,792.0000000001164,img/planet13_right.png,13,Community 1,NA,TRUE,j,j,NA,NA,NA,3,6,"7,5,6,1,13,15,2,4,14,12,10,11,8,9,3"
14999,commdev-image-keyboard-response,210,879823,learnblock1,559,img/planet6_left.png,6,Community 1,NA,TRUE,f,f,NA,NA,NA,3,6,"7,5,6,1,13,15,2,4,14,12,10,11,8,9,3"
14999,commdev-image-keyboard-response,211,881083,learnblock1,536.0000000001164,img/planet1_right.png,1,Community 1,NA,TRUE,j,j,NA,NA,NA,3,6,"7,5,6,1,13,15,2,4,14,12,10,11,8,9,3"
14999,commdev-image-keyboard-response,212,882343,learnblock1,467,img/planet15_left.png,15,Community 2,NA,TRUE,f,f,NA,NA,NA,3,6,"7,5,6,1,13,15,2,4,14,12,10,11,8,9,3"
14999,commdev-image-keyboard-response,213,883603,learnblock1,386,img/planet1_right.png,1,Community 1,NA,TRUE,j,j,NA,NA,NA,3,6,"7,5,6,1,13,15,2,4,14,12,10,11,8,9,3"
14999,commdev-image-keyboard-response,214,884863,learnblock1,358.0000000001164,img/planet15_left.png,15,Community 2,NA,TRUE,f,f,NA,NA,NA,3,6,"7,5,6,1,13,15,2,4,14,12,10,11,8,9,3"
14999,commdev-image-keyboard-response,215,886123,learnblock1,311,img/planet2_left.png,2,Community 2,NA,FALSE,j,f,NA,NA,NA,3,6,"7,5,6,1,13,15,2,4,14,12,10,11,8,9,3"
14999,commdev-image-keyboard-response,216,887383,learnblock1,342,img/planet14_left.png,14,Community 2,NA,TRUE,f,f,NA,NA,NA,3,6,"7,5,6,1,13,15,2,4,14,12,10,11,8,9,3"
14999,commdev-image-keyboard-response,217,888643,learnblock1,571,img/planet15_left.png,15,Community 2,NA,TRUE,f,f,NA,NA,NA,3,6,"7,5,6,1,13,15,2,4,14,12,10,11,8,9,3"
14999,commdev-image-keyboard-response,218,889903,learnblock1,589,img/planet1_right.png,1,Community 1,NA,TRUE,j,j,NA,NA,NA,3,6,"7,5,6,1,13,15,2,4,14,12,10,11,8,9,3"
14999,commdev-image-keyboard-response,219,891163,learnblock1,530,img/planet6_left.png,6,Community 1,NA,TRUE,f,f,NA,NA,NA,3,6,"7,5,6,1,13,15,2,4,14,12,10,11,8,9,3"
14999,commdev-image-keyboard-response,220,892423,learnblock1,430.9999999998836,img/planet7_right.png,7,Community 1,NA,TRUE,j,j,NA,NA,NA,3,6,"7,5,6,1,13,15,2,4,14,12,10,11,8,9,3"
14999,commdev-image-keyboard-response,221,893683,learnblock1,328.9999999998836,img/planet6_right.png,6,Community 1,NA,FALSE,f,j,NA,NA,NA,3,6,"7,5,6,1,13,15,2,4,14,12,10,11,8,9,3"
14999,commdev-image-keyboard-response,222,894943,learnblock1,432.0000000001164,img/planet5_left.png,5,Community 1,NA,FALSE,j,f,NA,NA,NA,3,6,"7,5,6,1,13,15,2,4,14,12,10,11,8,9,3"
14999,commdev-image-keyboard-response,223,896203,learnblock1,679,img/planet1_left.png,1,Community 1,NA,TRUE,f,f,NA,NA,NA,3,6,"7,5,6,1,13,15,2,4,14,12,10,11,8,9,3"
14999,commdev-image-keyboard-response,224,897462,learnblock1,655,img/planet6_right.png,6,Community 1,NA,TRUE,j,j,NA,NA,NA,3,6,"7,5,6,1,13,15,2,4,14,12,10,11,8,9,3"
14999,commdev-image-keyboard-response,225,898722,learnblock1,663,img/planet1_right.png,1,Community 1,NA,TRUE,j,j,NA,NA,NA,3,6,"7,5,6,1,13,15,2,4,14,12,10,11,8,9,3"
14999,commdev-image-keyboard-response,226,899982,learnblock1,628,img/planet15_right.png,15,Community 2,NA,TRUE,j,j,NA,NA,NA,3,6,"7,5,6,1,13,15,2,4,14,12,10,11,8,9,3"
14999,commdev-image-keyboard-response,227,901242,learnblock1,699.0000000001164,img/planet12_left.png,12,Community 2,NA,TRUE,f,f,NA,NA,NA,3,6,"7,5,6,1,13,15,2,4,14,12,10,11,8,9,3"
14999,commdev-image-keyboard-response,228,902503,learnblock1,644,img/planet2_left.png,2,Community 2,NA,TRUE,f,f,NA,NA,NA,3,6,"7,5,6,1,13,15,2,4,14,12,10,11,8,9,3"
14999,commdev-image-keyboard-response,229,903762,learnblock1,561,img/planet12_left.png,12,Community 2,NA,TRUE,f,f,NA,NA,NA,3,6,"7,5,6,1,13,15,2,4,14,12,10,11,8,9,3"
14999,commdev-image-keyboard-response,230,905022,learnblock1,746.0000000001164,img/planet4_right.png,4,Community 2,NA,TRUE,j,j,NA,NA,NA,3,6,"7,5,6,1,13,15,2,4,14,12,10,11,8,9,3"
14999,commdev-image-keyboard-response,231,906282,learnblock1,613.9999999998836,img/planet12_left.png,12,Community 2,NA,FALSE,j,f,NA,NA,NA,3,6,"7,5,6,1,13,15,2,4,14,12,10,11,8,9,3"
14999,commdev-image-keyboard-response,232,907542,learnblock1,942.9999999998836,img/planet14_right.png,14,Community 2,NA,TRUE,j,j,NA,NA,NA,3,6,"7,5,6,1,13,15,2,4,14,12,10,11,8,9,3"
14999,commdev-image-keyboard-response,233,908802,learnblock1,591.9999999998836,img/planet2_left.png,2,Community 2,NA,TRUE,f,f,NA,NA,NA,3,6,"7,5,6,1,13,15,2,4,14,12,10,11,8,9,3"
14999,commdev-image-keyboard-response,234,910062,learnblock1,825,img/planet12_left.png,12,Community 2,NA,TRUE,f,f,NA,NA,NA,3,6,"7,5,6,1,13,15,2,4,14,12,10,11,8,9,3"
14999,commdev-image-keyboard-response,235,911322,learnblock1,671,img/planet14_left.png,14,Community 2,NA,TRUE,f,f,NA,NA,NA,3,6,"7,5,6,1,13,15,2,4,14,12,10,11,8,9,3"
14999,commdev-image-keyboard-response,236,912582,learnblock1,610,img/planet4_left.png,4,Community 2,NA,TRUE,f,f,NA,NA,NA,3,6,"7,5,6,1,13,15,2,4,14,12,10,11,8,9,3"
14999,commdev-image-keyboard-response,237,913842,learnblock1,488,img/planet2_right.png,2,Community 2,NA,TRUE,j,j,NA,NA,NA,3,6,"7,5,6,1,13,15,2,4,14,12,10,11,8,9,3"
14999,commdev-image-keyboard-response,238,915102,learnblock1,661,img/planet15_right.png,15,Community 2,NA,TRUE,j,j,NA,NA,NA,3,6,"7,5,6,1,13,15,2,4,14,12,10,11,8,9,3"
14999,commdev-image-keyboard-response,239,916362,learnblock1,485,img/planet2_right.png,2,Community 2,NA,TRUE,j,j,NA,NA,NA,3,6,"7,5,6,1,13,15,2,4,14,12,10,11,8,9,3"
14999,commdev-image-keyboard-response,240,917622,learnblock1,794,img/planet15_right.png,15,Community 2,NA,TRUE,j,j,NA,NA,NA,3,6,"7,5,6,1,13,15,2,4,14,12,10,11,8,9,3"
14999,commdev-image-keyboard-response,241,918882,learnblock1,551,img/planet14_right.png,14,Community 2,NA,TRUE,j,j,NA,NA,NA,3,6,"7,5,6,1,13,15,2,4,14,12,10,11,8,9,3"
14999,commdev-image-keyboard-response,242,920142,learnblock1,455,img/planet15_right.png,15,Community 2,NA,TRUE,j,j,NA,NA,NA,3,6,"7,5,6,1,13,15,2,4,14,12,10,11,8,9,3"
14999,commdev-image-keyboard-response,243,921402,learnblock1,522,img/planet14_right.png,14,Community 2,NA,TRUE,j,j,NA,NA,NA,3,6,"7,5,6,1,13,15,2,4,14,12,10,11,8,9,3"
14999,commdev-image-keyboard-response,244,922662,learnblock1,571,img/planet4_right.png,4,Community 2,NA,TRUE,j,j,NA,NA,NA,3,6,"7,5,6,1,13,15,2,4,14,12,10,11,8,9,3"
14999,commdev-image-keyboard-response,245,923922,learnblock1,560.9999999998836,img/planet11_left.png,11,Community 3,NA,TRUE,f,f,NA,NA,NA,3,6,"7,5,6,1,13,15,2,4,14,12,10,11,8,9,3"
14999,commdev-image-keyboard-response,246,925182,learnblock1,526.9999999998836,img/planet8_right.png,8,Community 3,NA,TRUE,j,j,NA,NA,NA,3,6,"7,5,6,1,13,15,2,4,14,12,10,11,8,9,3"
14999,commdev-image-keyboard-response,247,926441,learnblock1,739,img/planet3_left.png,3,Community 3,NA,TRUE,f,f,NA,NA,NA,3,6,"7,5,6,1,13,15,2,4,14,12,10,11,8,9,3"
14999,commdev-image-keyboard-response,248,927701,learnblock1,611,img/planet8_right.png,8,Community 3,NA,TRUE,j,j,NA,NA,NA,3,6,"7,5,6,1,13,15,2,4,14,12,10,11,8,9,3"
14999,commdev-image-keyboard-response,249,928961,learnblock1,728,img/planet11_right.png,11,Community 3,NA,TRUE,j,j,NA,NA,NA,3,6,"7,5,6,1,13,15,2,4,14,12,10,11,8,9,3"
14999,commdev-image-keyboard-response,250,930221,learnblock1,606,img/planet9_left.png,9,Community 3,NA,TRUE,f,f,NA,NA,NA,3,6,"7,5,6,1,13,15,2,4,14,12,10,11,8,9,3"
14999,commdev-image-keyboard-response,251,931482,learnblock1,null,img/planet8_left.png,8,Community 3,NA,FALSE,null,f,NA,NA,NA,3,6,"7,5,6,1,13,15,2,4,14,12,10,11,8,9,3"
14999,commdev-image-keyboard-response,252,932741,learnblock1,6.000000000116415,img/planet9_left.png,9,Community 3,NA,FALSE,j,f,NA,NA,NA,3,6,"7,5,6,1,13,15,2,4,14,12,10,11,8,9,3"
14999,commdev-image-keyboard-response,253,934000,learnblock1,646,img/planet11_right.png,11,Community 3,NA,TRUE,j,j,NA,NA,NA,3,6,"7,5,6,1,13,15,2,4,14,12,10,11,8,9,3"
14999,commdev-image-keyboard-response,254,935261,learnblock1,658,img/planet3_left.png,3,Community 3,NA,TRUE,f,f,NA,NA,NA,3,6,"7,5,6,1,13,15,2,4,14,12,10,11,8,9,3"
14999,commdev-image-keyboard-response,255,936521,learnblock1,810.9999999998836,img/planet9_left.png,9,Community 3,NA,TRUE,f,f,NA,NA,NA,3,6,"7,5,6,1,13,15,2,4,14,12,10,11,8,9,3"
14999,commdev-image-keyboard-response,256,937781,learnblock1,860,img/planet8_left.png,8,Community 3,NA,TRUE,f,f,NA,NA,NA,3,6,"7,5,6,1,13,15,2,4,14,12,10,11,8,9,3"
14999,commdev-image-keyboard-response,257,939041,learnblock1,715.9999999998836,img/planet3_right.png,3,Community 3,NA,TRUE,j,j,NA,NA,NA,3,6,"7,5,6,1,13,15,2,4,14,12,10,11,8,9,3"
14999,commdev-image-keyboard-response,258,940301,learnblock1,535,img/planet10_left.png,10,Community 3,NA,TRUE,f,f,NA,NA,NA,3,6,"7,5,6,1,13,15,2,4,14,12,10,11,8,9,3"
14999,commdev-image-keyboard-response,259,941561,learnblock1,976,img/planet8_right.png,8,Community 3,NA,TRUE,j,j,NA,NA,NA,3,6,"7,5,6,1,13,15,2,4,14,12,10,11,8,9,3"
14999,commdev-image-keyboard-response,260,942821,learnblock1,830,img/planet9_right.png,9,Community 3,NA,TRUE,j,j,NA,NA,NA,3,6,"7,5,6,1,13,15,2,4,14,12,10,11,8,9,3"
14999,commdev-image-keyboard-response,261,944081,learnblock1,696,img/planet8_right.png,8,Community 3,NA,TRUE,j,j,NA,NA,NA,3,6,"7,5,6,1,13,15,2,4,14,12,10,11,8,9,3"
14999,commdev-image-keyboard-response,262,945341,learnblock1,555,img/planet9_left.png,9,Community 3,NA,TRUE,f,f,NA,NA,NA,3,6,"7,5,6,1,13,15,2,4,14,12,10,11,8,9,3"
14999,commdev-image-keyboard-response,263,946601,learnblock1,748.0000000001164,img/planet10_left.png,10,Community 3,NA,TRUE,f,f,NA,NA,NA,3,6,"7,5,6,1,13,15,2,4,14,12,10,11,8,9,3"
14999,commdev-image-keyboard-response,264,947861,learnblock1,862.0000000001164,img/planet13_right.png,13,Community 1,NA,TRUE,j,j,NA,NA,NA,3,6,"7,5,6,1,13,15,2,4,14,12,10,11,8,9,3"
14999,commdev-image-keyboard-response,265,949121,learnblock1,726,img/planet7_left.png,7,Community 1,NA,TRUE,f,f,NA,NA,NA,3,6,"7,5,6,1,13,15,2,4,14,12,10,11,8,9,3"
14999,commdev-image-keyboard-response,266,950381,learnblock1,727,img/planet5_left.png,5,Community 1,NA,TRUE,f,f,NA,NA,NA,3,6,"7,5,6,1,13,15,2,4,14,12,10,11,8,9,3"
14999,commdev-image-keyboard-response,267,951640,learnblock1,637,img/planet13_right.png,13,Community 1,NA,TRUE,j,j,NA,NA,NA,3,6,"7,5,6,1,13,15,2,4,14,12,10,11,8,9,3"
14999,commdev-image-keyboard-response,268,952900,learnblock1,537,img/planet6_left.png,6,Community 1,NA,TRUE,f,f,NA,NA,NA,3,6,"7,5,6,1,13,15,2,4,14,12,10,11,8,9,3"
14999,commdev-image-keyboard-response,269,954160,learnblock1,561,img/planet5_right.png,5,Community 1,NA,TRUE,j,j,NA,NA,NA,3,6,"7,5,6,1,13,15,2,4,14,12,10,11,8,9,3"
14999,commdev-image-keyboard-response,270,955420,learnblock1,543,img/planet13_left.png,13,Community 1,NA,TRUE,f,f,NA,NA,NA,3,6,"7,5,6,1,13,15,2,4,14,12,10,11,8,9,3"
14999,commdev-image-keyboard-response,271,956680,learnblock1,545.9999999998836,img/planet10_right.png,10,Community 3,NA,TRUE,j,j,NA,NA,NA,3,6,"7,5,6,1,13,15,2,4,14,12,10,11,8,9,3"
14999,commdev-image-keyboard-response,272,957940,learnblock1,646,img/planet13_left.png,13,Community 1,NA,TRUE,f,f,NA,NA,NA,3,6,"7,5,6,1,13,15,2,4,14,12,10,11,8,9,3"
14999,commdev-image-keyboard-response,273,959200,learnblock1,542.0000000001164,img/planet6_right.png,6,Community 1,NA,TRUE,j,j,NA,NA,NA,3,6,"7,5,6,1,13,15,2,4,14,12,10,11,8,9,3"
14999,commdev-image-keyboard-response,274,960460,learnblock1,714,img/planet13_left.png,13,Community 1,NA,TRUE,f,f,NA,NA,NA,3,6,"7,5,6,1,13,15,2,4,14,12,10,11,8,9,3"
14999,commdev-image-keyboard-response,275,961719,learnblock1,540,img/planet6_left.png,6,Community 1,NA,TRUE,f,f,NA,NA,NA,3,6,"7,5,6,1,13,15,2,4,14,12,10,11,8,9,3"
14999,commdev-image-keyboard-response,276,962980,learnblock1,623.0000000001164,img/planet7_right.png,7,Community 1,NA,TRUE,j,j,NA,NA,NA,3,6,"7,5,6,1,13,15,2,4,14,12,10,11,8,9,3"
14999,commdev-image-keyboard-response,277,964240,learnblock1,716,img/planet1_left.png,1,Community 1,NA,FALSE,j,f,NA,NA,NA,3,6,"7,5,6,1,13,15,2,4,14,12,10,11,8,9,3"
14999,commdev-image-keyboard-response,278,965500,learnblock1,577.9999999998836,img/planet5_left.png,5,Community 1,NA,TRUE,f,f,NA,NA,NA,3,6,"7,5,6,1,13,15,2,4,14,12,10,11,8,9,3"
14999,commdev-image-keyboard-response,279,966759,learnblock1,559.0000000001164,img/planet1_right.png,1,Community 1,NA,TRUE,j,j,NA,NA,NA,3,6,"7,5,6,1,13,15,2,4,14,12,10,11,8,9,3"
14999,commdev-image-keyboard-response,280,968020,learnblock1,417,img/planet6_right.png,6,Community 1,NA,FALSE,f,j,NA,NA,NA,3,6,"7,5,6,1,13,15,2,4,14,12,10,11,8,9,3"
14999,commdev-image-keyboard-response,281,969280,learnblock1,539.9999999998836,img/planet1_right.png,1,Community 1,NA,TRUE,j,j,NA,NA,NA,3,6,"7,5,6,1,13,15,2,4,14,12,10,11,8,9,3"
14999,commdev-image-keyboard-response,282,970540,learnblock1,612,img/planet6_right.png,6,Community 1,NA,TRUE,j,j,NA,NA,NA,3,6,"7,5,6,1,13,15,2,4,14,12,10,11,8,9,3"
14999,commdev-image-keyboard-response,283,971800,learnblock1,572,img/planet7_right.png,7,Community 1,NA,TRUE,j,j,NA,NA,NA,3,6,"7,5,6,1,13,15,2,4,14,12,10,11,8,9,3"
14999,commdev-image-keyboard-response,284,973060,learnblock1,578,img/planet1_left.png,1,Community 1,NA,TRUE,f,f,NA,NA,NA,3,6,"7,5,6,1,13,15,2,4,14,12,10,11,8,9,3"
14999,commdev-image-keyboard-response,285,974320,learnblock1,601,img/planet7_right.png,7,Community 1,NA,TRUE,j,j,NA,NA,NA,3,6,"7,5,6,1,13,15,2,4,14,12,10,11,8,9,3"
14999,commdev-image-keyboard-response,286,975580,learnblock1,625,img/planet13_left.png,13,Community 1,NA,TRUE,f,f,NA,NA,NA,3,6,"7,5,6,1,13,15,2,4,14,12,10,11,8,9,3"
14999,commdev-image-keyboard-response,287,976840,learnblock1,549,img/planet6_left.png,6,Community 1,NA,TRUE,f,f,NA,NA,NA,3,6,"7,5,6,1,13,15,2,4,14,12,10,11,8,9,3"
14999,commdev-image-keyboard-response,288,978100,learnblock1,551.0000000001164,img/planet13_right.png,13,Community 1,NA,TRUE,j,j,NA,NA,NA,3,6,"7,5,6,1,13,15,2,4,14,12,10,11,8,9,3"
14999,commdev-image-keyboard-response,289,979360,learnblock1,959.0000000001164,img/planet7_right.png,7,Community 1,NA,TRUE,j,j,NA,NA,NA,3,6,"7,5,6,1,13,15,2,4,14,12,10,11,8,9,3"
14999,commdev-image-keyboard-response,290,980620,learnblock1,592.0000000001164,img/planet6_right.png,6,Community 1,NA,TRUE,j,j,NA,NA,NA,3,6,"7,5,6,1,13,15,2,4,14,12,10,11,8,9,3"
14999,commdev-image-keyboard-response,291,981880,learnblock1,659.0000000001164,img/planet13_left.png,13,Community 1,NA,TRUE,f,f,NA,NA,NA,3,6,"7,5,6,1,13,15,2,4,14,12,10,11,8,9,3"
14999,commdev-image-keyboard-response,292,983139,learnblock1,537.9999999998836,img/planet10_right.png,10,Community 3,NA,TRUE,j,j,NA,NA,NA,3,6,"7,5,6,1,13,15,2,4,14,12,10,11,8,9,3"
14999,commdev-image-keyboard-response,293,984399,learnblock1,653,img/planet8_right.png,8,Community 3,NA,TRUE,j,j,NA,NA,NA,3,6,"7,5,6,1,13,15,2,4,14,12,10,11,8,9,3"
14999,commdev-image-keyboard-response,294,985659,learnblock1,534.0000000001164,img/planet9_right.png,9,Community 3,NA,TRUE,j,j,NA,NA,NA,3,6,"7,5,6,1,13,15,2,4,14,12,10,11,8,9,3"
14999,commdev-image-keyboard-response,295,986919,learnblock1,539.9999999998836,img/planet8_right.png,8,Community 3,NA,TRUE,j,j,NA,NA,NA,3,6,"7,5,6,1,13,15,2,4,14,12,10,11,8,9,3"
14999,commdev-image-keyboard-response,296,988179,learnblock1,490.9999999998836,img/planet3_right.png,3,Community 3,NA,TRUE,j,j,NA,NA,NA,3,6,"7,5,6,1,13,15,2,4,14,12,10,11,8,9,3"
14999,commdev-image-keyboard-response,297,989439,learnblock1,413.0000000001164,img/planet9_right.png,9,Community 3,NA,TRUE,j,j,NA,NA,NA,3,6,"7,5,6,1,13,15,2,4,14,12,10,11,8,9,3"
14999,commdev-image-keyboard-response,298,990699,learnblock1,360,img/planet8_left.png,8,Community 3,NA,FALSE,j,f,NA,NA,NA,3,6,"7,5,6,1,13,15,2,4,14,12,10,11,8,9,3"
14999,commdev-image-keyboard-response,299,991959,learnblock1,435.0000000001164,img/planet3_right.png,3,Community 3,NA,FALSE,f,j,NA,NA,NA,3,6,"7,5,6,1,13,15,2,4,14,12,10,11,8,9,3"
14999,commdev-image-keyboard-response,300,993219,learnblock1,679,img/planet8_left.png,8,Community 3,NA,TRUE,f,f,NA,NA,NA,3,6,"7,5,6,1,13,15,2,4,14,12,10,11,8,9,3"
14999,commdev-image-keyboard-response,301,994479,learnblock1,690.0000000001164,img/planet11_left.png,11,Community 3,NA,TRUE,f,f,NA,NA,NA,3,6,"7,5,6,1,13,15,2,4,14,12,10,11,8,9,3"
14999,commdev-image-keyboard-response,302,995739,learnblock1,701,img/planet3_left.png,3,Community 3,NA,TRUE,f,f,NA,NA,NA,3,6,"7,5,6,1,13,15,2,4,14,12,10,11,8,9,3"
14999,commdev-image-keyboard-response,303,996999,learnblock1,579.0000000001164,img/planet11_right.png,11,Community 3,NA,TRUE,j,j,NA,NA,NA,3,6,"7,5,6,1,13,15,2,4,14,12,10,11,8,9,3"
14999,commdev-image-keyboard-response,304,998259,learnblock1,564.0000000001164,img/planet9_left.png,9,Community 3,NA,FALSE,j,f,NA,NA,NA,3,6,"7,5,6,1,13,15,2,4,14,12,10,11,8,9,3"
14999,commdev-image-keyboard-response,305,999519,learnblock1,534,img/planet8_right.png,8,Community 3,NA,TRUE,j,j,NA,NA,NA,3,6,"7,5,6,1,13,15,2,4,14,12,10,11,8,9,3"
14999,commdev-image-keyboard-response,306,1000779,learnblock1,482,img/planet9_right.png,9,Community 3,NA,TRUE,j,j,NA,NA,NA,3,6,"7,5,6,1,13,15,2,4,14,12,10,11,8,9,3"
14999,commdev-image-keyboard-response,307,1002039,learnblock1,678,img/planet3_right.png,3,Community 3,NA,TRUE,j,j,NA,NA,NA,3,6,"7,5,6,1,13,15,2,4,14,12,10,11,8,9,3"
14999,commdev-image-keyboard-response,308,1003299,learnblock1,995,img/planet11_left.png,11,Community 3,NA,TRUE,f,f,NA,NA,NA,3,6,"7,5,6,1,13,15,2,4,14,12,10,11,8,9,3"
14999,commdev-image-keyboard-response,309,1004558,learnblock1,688,img/planet4_right.png,4,Community 2,NA,TRUE,j,j,NA,NA,NA,3,6,"7,5,6,1,13,15,2,4,14,12,10,11,8,9,3"
14999,commdev-image-keyboard-response,310,1005818,learnblock1,488,img/planet2_left.png,2,Community 2,NA,TRUE,f,f,NA,NA,NA,3,6,"7,5,6,1,13,15,2,4,14,12,10,11,8,9,3"
14999,commdev-image-keyboard-response,311,1007078,learnblock1,707,img/planet15_left.png,15,Community 2,NA,TRUE,f,f,NA,NA,NA,3,6,"7,5,6,1,13,15,2,4,14,12,10,11,8,9,3"
14999,commdev-image-keyboard-response,312,1008339,learnblock1,591.9999999998836,img/planet2_left.png,2,Community 2,NA,TRUE,f,f,NA,NA,NA,3,6,"7,5,6,1,13,15,2,4,14,12,10,11,8,9,3"
14999,commdev-image-keyboard-response,313,1009599,learnblock1,591,img/planet15_left.png,15,Community 2,NA,TRUE,f,f,NA,NA,NA,3,6,"7,5,6,1,13,15,2,4,14,12,10,11,8,9,3"
14999,commdev-image-keyboard-response,314,1010858,learnblock1,573,img/planet12_left.png,12,Community 2,NA,TRUE,f,f,NA,NA,NA,3,6,"7,5,6,1,13,15,2,4,14,12,10,11,8,9,3"
14999,commdev-image-keyboard-response,315,1012118,learnblock1,544.9999999998836,img/planet4_right.png,4,Community 2,NA,TRUE,j,j,NA,NA,NA,3,6,"7,5,6,1,13,15,2,4,14,12,10,11,8,9,3"
14999,commdev-image-keyboard-response,316,1013378,learnblock1,434.0000000001164,img/planet2_right.png,2,Community 2,NA,TRUE,j,j,NA,NA,NA,3,6,"7,5,6,1,13,15,2,4,14,12,10,11,8,9,3"
14999,commdev-image-keyboard-response,317,1014638,learnblock1,292.9999999998836,img/planet12_right.png,12,Community 2,NA,TRUE,j,j,NA,NA,NA,3,6,"7,5,6,1,13,15,2,4,14,12,10,11,8,9,3"
14999,commdev-image-keyboard-response,318,1015898,learnblock1,406.9999999998836,img/planet4_right.png,4,Community 2,NA,TRUE,j,j,NA,NA,NA,3,6,"7,5,6,1,13,15,2,4,14,12,10,11,8,9,3"
14999,commdev-image-keyboard-response,319,1017158,learnblock1,630,img/planet14_left.png,14,Community 2,NA,TRUE,f,f,NA,NA,NA,3,6,"7,5,6,1,13,15,2,4,14,12,10,11,8,9,3"
14999,commdev-image-keyboard-response,320,1018418,learnblock1,585.9999999998836,img/planet4_right.png,4,Community 2,NA,TRUE,j,j,NA,NA,NA,3,6,"7,5,6,1,13,15,2,4,14,12,10,11,8,9,3"
14999,commdev-image-keyboard-response,321,1019678,learnblock1,632.9999999998836,img/planet2_right.png,2,Community 2,NA,TRUE,j,j,NA,NA,NA,3,6,"7,5,6,1,13,15,2,4,14,12,10,11,8,9,3"
14999,commdev-image-keyboard-response,322,1020938,learnblock1,612,img/planet15_left.png,15,Community 2,NA,TRUE,f,f,NA,NA,NA,3,6,"7,5,6,1,13,15,2,4,14,12,10,11,8,9,3"
14999,commdev-image-keyboard-response,323,1022198,learnblock1,625,img/planet2_right.png,2,Community 2,NA,TRUE,j,j,NA,NA,NA,3,6,"7,5,6,1,13,15,2,4,14,12,10,11,8,9,3"
14999,commdev-image-keyboard-response,324,1023458,learnblock1,648,img/planet14_left.png,14,Community 2,NA,TRUE,f,f,NA,NA,NA,3,6,"7,5,6,1,13,15,2,4,14,12,10,11,8,9,3"
14999,commdev-image-keyboard-response,325,1024718,learnblock1,571.9999999998836,img/planet4_left.png,4,Community 2,NA,FALSE,j,f,NA,NA,NA,3,6,"7,5,6,1,13,15,2,4,14,12,10,11,8,9,3"
14999,commdev-image-keyboard-response,326,1025978,learnblock1,681.9999999997672,img/planet12_right.png,12,Community 2,NA,TRUE,j,j,NA,NA,NA,3,6,"7,5,6,1,13,15,2,4,14,12,10,11,8,9,3"
14999,commdev-image-keyboard-response,327,1027238,learnblock1,654,img/planet14_right.png,14,Community 2,NA,FALSE,f,j,NA,NA,NA,3,6,"7,5,6,1,13,15,2,4,14,12,10,11,8,9,3"
14999,commdev-image-keyboard-response,328,1028498,learnblock1,658.9999999998836,img/planet15_left.png,15,Community 2,NA,FALSE,j,f,NA,NA,NA,3,6,"7,5,6,1,13,15,2,4,14,12,10,11,8,9,3"
14999,commdev-image-keyboard-response,329,1029758,learnblock1,791.9999999998836,img/planet14_right.png,14,Community 2,NA,TRUE,j,j,NA,NA,NA,3,6,"7,5,6,1,13,15,2,4,14,12,10,11,8,9,3"
14999,commdev-image-keyboard-response,330,1031018,learnblock1,534.9999999998836,img/planet15_left.png,15,Community 2,NA,TRUE,f,f,NA,NA,NA,3,6,"7,5,6,1,13,15,2,4,14,12,10,11,8,9,3"
14999,commdev-image-keyboard-response,331,1032277,learnblock1,548,img/planet2_right.png,2,Community 2,NA,TRUE,j,j,NA,NA,NA,3,6,"7,5,6,1,13,15,2,4,14,12,10,11,8,9,3"
14999,commdev-image-keyboard-response,332,1033537,learnblock1,642,img/planet15_right.png,15,Community 2,NA,FALSE,f,j,NA,NA,NA,3,6,"7,5,6,1,13,15,2,4,14,12,10,11,8,9,3"
14999,commdev-image-keyboard-response,333,1034797,learnblock1,617,img/planet1_left.png,1,Community 1,NA,TRUE,f,f,NA,NA,NA,3,6,"7,5,6,1,13,15,2,4,14,12,10,11,8,9,3"
14999,commdev-image-keyboard-response,334,1036057,learnblock1,860,img/planet5_left.png,5,Community 1,NA,TRUE,f,f,NA,NA,NA,3,6,"7,5,6,1,13,15,2,4,14,12,10,11,8,9,3"
14999,commdev-image-keyboard-response,335,1037317,learnblock1,535.0000000001164,img/planet6_right.png,6,Community 1,NA,TRUE,j,j,NA,NA,NA,3,6,"7,5,6,1,13,15,2,4,14,12,10,11,8,9,3"
14999,commdev-image-keyboard-response,336,1038577,learnblock1,702,img/planet13_left.png,13,Community 1,NA,TRUE,f,f,NA,NA,NA,3,6,"7,5,6,1,13,15,2,4,14,12,10,11,8,9,3"
14999,commdev-image-keyboard-response,337,1039838,learnblock1,823.0000000001164,img/planet5_right.png,5,Community 1,NA,TRUE,j,j,NA,NA,NA,3,6,"7,5,6,1,13,15,2,4,14,12,10,11,8,9,3"
14999,commdev-image-keyboard-response,338,1041097,learnblock1,775.0000000001164,img/planet1_right.png,1,Community 1,NA,TRUE,j,j,NA,NA,NA,3,6,"7,5,6,1,13,15,2,4,14,12,10,11,8,9,3"
14999,commdev-image-keyboard-response,339,1042357,learnblock1,704.9999999998836,img/planet7_left.png,7,Community 1,NA,TRUE,f,f,NA,NA,NA,3,6,"7,5,6,1,13,15,2,4,14,12,10,11,8,9,3"
14999,commdev-image-keyboard-response,340,1043617,learnblock1,955.0000000001164,img/planet5_left.png,5,Community 1,NA,FALSE,j,f,NA,NA,NA,3,6,"7,5,6,1,13,15,2,4,14,12,10,11,8,9,3"
14999,commdev-image-keyboard-response,341,1044877,learnblock1,774.0000000001164,img/planet6_right.png,6,Community 1,NA,TRUE,j,j,NA,NA,NA,3,6,"7,5,6,1,13,15,2,4,14,12,10,11,8,9,3"
14999,commdev-image-keyboard-response,342,1046137,learnblock1,556,img/planet5_left.png,5,Community 1,NA,TRUE,f,f,NA,NA,NA,3,6,"7,5,6,1,13,15,2,4,14,12,10,11,8,9,3"
14999,commdev-image-keyboard-response,343,1047396,learnblock1,595,img/planet7_right.png,7,Community 1,NA,TRUE,j,j,NA,NA,NA,3,6,"7,5,6,1,13,15,2,4,14,12,10,11,8,9,3"
14999,commdev-image-keyboard-response,344,1048657,learnblock1,601,img/planet5_left.png,5,Community 1,NA,TRUE,f,f,NA,NA,NA,3,6,"7,5,6,1,13,15,2,4,14,12,10,11,8,9,3"
14999,commdev-image-keyboard-response,345,1049916,learnblock1,516,img/planet1_right.png,1,Community 1,NA,TRUE,j,j,NA,NA,NA,3,6,"7,5,6,1,13,15,2,4,14,12,10,11,8,9,3"
14999,commdev-image-keyboard-response,346,1051177,learnblock1,590,img/planet6_left.png,6,Community 1,NA,TRUE,f,f,NA,NA,NA,3,6,"7,5,6,1,13,15,2,4,14,12,10,11,8,9,3"
14999,commdev-image-keyboard-response,347,1052437,learnblock1,681,img/planet1_left.png,1,Community 1,NA,TRUE,f,f,NA,NA,NA,3,6,"7,5,6,1,13,15,2,4,14,12,10,11,8,9,3"
14999,commdev-image-keyboard-response,348,1053697,learnblock1,540.0000000002328,img/planet15_left.png,15,Community 2,NA,TRUE,f,f,NA,NA,NA,3,6,"7,5,6,1,13,15,2,4,14,12,10,11,8,9,3"
14999,commdev-image-keyboard-response,349,1054957,learnblock1,548,img/planet1_left.png,1,Community 1,NA,TRUE,f,f,NA,NA,NA,3,6,"7,5,6,1,13,15,2,4,14,12,10,11,8,9,3"
14999,commdev-image-keyboard-response,350,1056217,learnblock1,930,img/planet5_left.png,5,Community 1,NA,TRUE,f,f,NA,NA,NA,3,6,"7,5,6,1,13,15,2,4,14,12,10,11,8,9,3"
14999,commdev-image-keyboard-response,351,1057476,learnblock1,517.9999999997672,img/planet1_right.png,1,Community 1,NA,FALSE,f,j,NA,NA,NA,3,6,"7,5,6,1,13,15,2,4,14,12,10,11,8,9,3"
14999,commdev-image-keyboard-response,352,1058737,learnblock1,432.99999999976717,img/planet15_left.png,15,Community 2,NA,TRUE,f,f,NA,NA,NA,3,6,"7,5,6,1,13,15,2,4,14,12,10,11,8,9,3"
14999,commdev-image-keyboard-response,353,1059996,learnblock1,588,img/planet2_left.png,2,Community 2,NA,TRUE,f,f,NA,NA,NA,3,6,"7,5,6,1,13,15,2,4,14,12,10,11,8,9,3"
14999,commdev-image-keyboard-response,354,1061256,learnblock1,523,img/planet14_right.png,14,Community 2,NA,TRUE,j,j,NA,NA,NA,3,6,"7,5,6,1,13,15,2,4,14,12,10,11,8,9,3"
14999,commdev-image-keyboard-response,355,1062516,learnblock1,596,img/planet4_right.png,4,Community 2,NA,TRUE,j,j,NA,NA,NA,3,6,"7,5,6,1,13,15,2,4,14,12,10,11,8,9,3"
14999,commdev-image-keyboard-response,356,1063775,learnblock1,655,img/planet14_left.png,14,Community 2,NA,TRUE,f,f,NA,NA,NA,3,6,"7,5,6,1,13,15,2,4,14,12,10,11,8,9,3"
14999,commdev-image-keyboard-response,357,1065036,learnblock1,526,img/planet2_left.png,2,Community 2,NA,TRUE,f,f,NA,NA,NA,3,6,"7,5,6,1,13,15,2,4,14,12,10,11,8,9,3"
14999,commdev-image-keyboard-response,358,1066296,learnblock1,637,img/planet4_right.png,4,Community 2,NA,TRUE,j,j,NA,NA,NA,3,6,"7,5,6,1,13,15,2,4,14,12,10,11,8,9,3"
14999,commdev-image-keyboard-response,359,1067556,learnblock1,528,img/planet14_left.png,14,Community 2,NA,TRUE,f,f,NA,NA,NA,3,6,"7,5,6,1,13,15,2,4,14,12,10,11,8,9,3"
14999,commdev-image-keyboard-response,360,1068816,learnblock1,549,img/planet4_right.png,4,Community 2,NA,TRUE,j,j,NA,NA,NA,3,6,"7,5,6,1,13,15,2,4,14,12,10,11,8,9,3"
14999,commdev-image-keyboard-response,361,1070076,learnblock1,697,img/planet12_left.png,12,Community 2,NA,TRUE,f,f,NA,NA,NA,3,6,"7,5,6,1,13,15,2,4,14,12,10,11,8,9,3"
14999,commdev-image-keyboard-response,362,1071336,learnblock1,573.0000000002328,img/planet2_right.png,2,Community 2,NA,TRUE,j,j,NA,NA,NA,3,6,"7,5,6,1,13,15,2,4,14,12,10,11,8,9,3"
14999,commdev-image-keyboard-response,363,1072596,learnblock1,494,img/planet4_left.png,4,Community 2,NA,TRUE,f,f,NA,NA,NA,3,6,"7,5,6,1,13,15,2,4,14,12,10,11,8,9,3"
14999,commdev-image-keyboard-response,364,1073856,learnblock1,612,img/planet14_right.png,14,Community 2,NA,TRUE,j,j,NA,NA,NA,3,6,"7,5,6,1,13,15,2,4,14,12,10,11,8,9,3"
14999,commdev-image-keyboard-response,365,1075115,learnblock1,499,img/planet4_left.png,4,Community 2,NA,TRUE,f,f,NA,NA,NA,3,6,"7,5,6,1,13,15,2,4,14,12,10,11,8,9,3"
14999,commdev-image-keyboard-response,366,1076376,learnblock1,464,img/planet14_left.png,14,Community 2,NA,FALSE,j,f,NA,NA,NA,3,6,"7,5,6,1,13,15,2,4,14,12,10,11,8,9,3"
14999,commdev-image-keyboard-response,367,1077636,learnblock1,351,img/planet12_right.png,12,Community 2,NA,FALSE,f,j,NA,NA,NA,3,6,"7,5,6,1,13,15,2,4,14,12,10,11,8,9,3"
14999,commdev-image-keyboard-response,368,1078896,learnblock1,481,img/planet15_left.png,15,Community 2,NA,TRUE,f,f,NA,NA,NA,3,6,"7,5,6,1,13,15,2,4,14,12,10,11,8,9,3"
14999,commdev-image-keyboard-response,369,1080156,learnblock1,629,img/planet14_left.png,14,Community 2,NA,TRUE,f,f,NA,NA,NA,3,6,"7,5,6,1,13,15,2,4,14,12,10,11,8,9,3"
14999,commdev-image-keyboard-response,370,1081416,learnblock1,539,img/planet2_right.png,2,Community 2,NA,TRUE,j,j,NA,NA,NA,3,6,"7,5,6,1,13,15,2,4,14,12,10,11,8,9,3"
14999,commdev-image-keyboard-response,371,1082676,learnblock1,994,img/planet12_right.png,12,Community 2,NA,TRUE,j,j,NA,NA,NA,3,6,"7,5,6,1,13,15,2,4,14,12,10,11,8,9,3"
14999,commdev-image-keyboard-response,372,1083936,learnblock1,480,img/planet2_right.png,2,Community 2,NA,TRUE,j,j,NA,NA,NA,3,6,"7,5,6,1,13,15,2,4,14,12,10,11,8,9,3"
14999,commdev-image-keyboard-response,373,1085196,learnblock1,688.9999999997672,img/planet12_left.png,12,Community 2,NA,TRUE,f,f,NA,NA,NA,3,6,"7,5,6,1,13,15,2,4,14,12,10,11,8,9,3"
14999,commdev-image-keyboard-response,374,1086455,learnblock1,630.9999999997672,img/planet14_right.png,14,Community 2,NA,TRUE,j,j,NA,NA,NA,3,6,"7,5,6,1,13,15,2,4,14,12,10,11,8,9,3"
14999,commdev-image-keyboard-response,375,1087715,learnblock1,657,img/planet4_right.png,4,Community 2,NA,TRUE,j,j,NA,NA,NA,3,6,"7,5,6,1,13,15,2,4,14,12,10,11,8,9,3"
14999,commdev-image-keyboard-response,376,1088975,learnblock1,571.9999999997672,img/planet12_left.png,12,Community 2,NA,TRUE,f,f,NA,NA,NA,3,6,"7,5,6,1,13,15,2,4,14,12,10,11,8,9,3"
14999,commdev-image-keyboard-response,377,1090235,learnblock1,521.9999999997672,img/planet14_right.png,14,Community 2,NA,TRUE,j,j,NA,NA,NA,3,6,"7,5,6,1,13,15,2,4,14,12,10,11,8,9,3"
14999,commdev-image-keyboard-response,378,1091495,learnblock1,720,img/planet2_right.png,2,Community 2,NA,TRUE,j,j,NA,NA,NA,3,6,"7,5,6,1,13,15,2,4,14,12,10,11,8,9,3"
14999,commdev-image-keyboard-response,379,1092756,learnblock1,633,img/planet15_left.png,15,Community 2,NA,TRUE,f,f,NA,NA,NA,3,6,"7,5,6,1,13,15,2,4,14,12,10,11,8,9,3"
14999,commdev-image-keyboard-response,380,1094015,learnblock1,null,img/planet14_right.png,14,Community 2,NA,FALSE,null,j,NA,NA,NA,3,6,"7,5,6,1,13,15,2,4,14,12,10,11,8,9,3"
14999,commdev-image-keyboard-response,381,1095274,learnblock1,42,img/planet4_right.png,4,Community 2,NA,TRUE,j,j,NA,NA,NA,3,6,"7,5,6,1,13,15,2,4,14,12,10,11,8,9,3"
14999,commdev-image-keyboard-response,382,1096535,learnblock1,646,img/planet12_left.png,12,Community 2,NA,TRUE,f,f,NA,NA,NA,3,6,"7,5,6,1,13,15,2,4,14,12,10,11,8,9,3"
14999,commdev-image-keyboard-response,383,1097795,learnblock1,632,img/planet15_left.png,15,Community 2,NA,TRUE,f,f,NA,NA,NA,3,6,"7,5,6,1,13,15,2,4,14,12,10,11,8,9,3"
14999,commdev-image-keyboard-response,384,1099055,learnblock1,817,img/planet12_right.png,12,Community 2,NA,FALSE,f,j,NA,NA,NA,3,6,"7,5,6,1,13,15,2,4,14,12,10,11,8,9,3"
14999,commdev-image-keyboard-response,385,1100315,learnblock1,671,img/planet2_right.png,2,Community 2,NA,FALSE,f,j,NA,NA,NA,3,6,"7,5,6,1,13,15,2,4,14,12,10,11,8,9,3"
14999,commdev-image-keyboard-response,386,1101575,learnblock1,643,img/planet12_right.png,12,Community 2,NA,FALSE,f,j,NA,NA,NA,3,6,"7,5,6,1,13,15,2,4,14,12,10,11,8,9,3"
14999,commdev-image-keyboard-response,387,1102835,learnblock1,773,img/planet14_left.png,14,Community 2,NA,FALSE,j,f,NA,NA,NA,3,6,"7,5,6,1,13,15,2,4,14,12,10,11,8,9,3"
14999,commdev-image-keyboard-response,388,1104095,learnblock1,725,img/planet4_right.png,4,Community 2,NA,TRUE,j,j,NA,NA,NA,3,6,"7,5,6,1,13,15,2,4,14,12,10,11,8,9,3"
14999,commdev-image-keyboard-response,389,1105355,learnblock1,663,img/planet2_right.png,2,Community 2,NA,TRUE,j,j,NA,NA,NA,3,6,"7,5,6,1,13,15,2,4,14,12,10,11,8,9,3"
14999,commdev-image-keyboard-response,390,1106615,learnblock1,598,img/planet4_left.png,4,Community 2,NA,TRUE,f,f,NA,NA,NA,3,6,"7,5,6,1,13,15,2,4,14,12,10,11,8,9,3"
14999,commdev-image-keyboard-response,391,1107875,learnblock1,650,img/planet12_right.png,12,Community 2,NA,TRUE,j,j,NA,NA,NA,3,6,"7,5,6,1,13,15,2,4,14,12,10,11,8,9,3"
14999,commdev-image-keyboard-response,392,1109135,learnblock1,563,img/planet2_right.png,2,Community 2,NA,TRUE,j,j,NA,NA,NA,3,6,"7,5,6,1,13,15,2,4,14,12,10,11,8,9,3"
14999,commdev-image-keyboard-response,393,1110395,learnblock1,695,img/planet15_left.png,15,Community 2,NA,TRUE,f,f,NA,NA,NA,3,6,"7,5,6,1,13,15,2,4,14,12,10,11,8,9,3"
14999,commdev-image-keyboard-response,394,1111655,learnblock1,734,img/planet14_left.png,14,Community 2,NA,TRUE,f,f,NA,NA,NA,3,6,"7,5,6,1,13,15,2,4,14,12,10,11,8,9,3"
14999,commdev-image-keyboard-response,395,1112915,learnblock1,618,img/planet4_right.png,4,Community 2,NA,TRUE,j,j,NA,NA,NA,3,6,"7,5,6,1,13,15,2,4,14,12,10,11,8,9,3"
14999,commdev-image-keyboard-response,396,1114175,learnblock1,800,img/planet12_left.png,12,Community 2,NA,TRUE,f,f,NA,NA,NA,3,6,"7,5,6,1,13,15,2,4,14,12,10,11,8,9,3"
14999,commdev-image-keyboard-response,397,1115435,learnblock1,624,img/planet4_left.png,4,Community 2,NA,TRUE,f,f,NA,NA,NA,3,6,"7,5,6,1,13,15,2,4,14,12,10,11,8,9,3"
14999,commdev-image-keyboard-response,398,1116694,learnblock1,517.9999999997672,img/planet2_left.png,2,Community 2,NA,TRUE,f,f,NA,NA,NA,3,6,"7,5,6,1,13,15,2,4,14,12,10,11,8,9,3"
14999,commdev-image-keyboard-response,399,1117954,learnblock1,491.99999999976717,img/planet12_left.png,12,Community 2,NA,TRUE,f,f,NA,NA,NA,3,6,"7,5,6,1,13,15,2,4,14,12,10,11,8,9,3"
14999,commdev-image-keyboard-response,400,1119214,learnblock1,420,img/planet4_left.png,4,Community 2,NA,TRUE,f,f,NA,NA,NA,3,6,"7,5,6,1,13,15,2,4,14,12,10,11,8,9,3"
14999,commdev-image-keyboard-response,401,1120474,learnblock1,328,img/planet12_left.png,12,Community 2,NA,TRUE,f,f,NA,NA,NA,3,6,"7,5,6,1,13,15,2,4,14,12,10,11,8,9,3"
14999,commdev-image-keyboard-response,402,1121734,learnblock1,443.99999999976717,img/planet14_left.png,14,Community 2,NA,TRUE,f,f,NA,NA,NA,3,6,"7,5,6,1,13,15,2,4,14,12,10,11,8,9,3"
14999,commdev-image-keyboard-response,403,1122994,learnblock1,321,img/planet2_left.png,2,Community 2,NA,TRUE,f,f,NA,NA,NA,3,6,"7,5,6,1,13,15,2,4,14,12,10,11,8,9,3"
14999,commdev-image-keyboard-response,404,1124254,learnblock1,377,img/planet15_right.png,15,Community 2,NA,FALSE,f,j,NA,NA,NA,3,6,"7,5,6,1,13,15,2,4,14,12,10,11,8,9,3"
14999,commdev-image-keyboard-response,405,1125514,learnblock1,587,img/planet1_left.png,1,Community 1,NA,TRUE,f,f,NA,NA,NA,3,6,"7,5,6,1,13,15,2,4,14,12,10,11,8,9,3"
14999,commdev-image-keyboard-response,406,1126774,learnblock1,515,img/planet15_right.png,15,Community 2,NA,TRUE,j,j,NA,NA,NA,3,6,"7,5,6,1,13,15,2,4,14,12,10,11,8,9,3"
14999,commdev-image-keyboard-response,407,1128034,learnblock1,534,img/planet1_right.png,1,Community 1,NA,TRUE,j,j,NA,NA,NA,3,6,"7,5,6,1,13,15,2,4,14,12,10,11,8,9,3"
14999,commdev-image-keyboard-response,408,1129294,learnblock1,255,img/planet6_left.png,6,Community 1,NA,TRUE,f,f,NA,NA,NA,3,6,"7,5,6,1,13,15,2,4,14,12,10,11,8,9,3"
14999,commdev-image-keyboard-response,409,1130554,learnblock1,545.0000000002328,img/planet1_left.png,1,Community 1,NA,TRUE,f,f,NA,NA,NA,3,6,"7,5,6,1,13,15,2,4,14,12,10,11,8,9,3"
14999,commdev-image-keyboard-response,410,1131814,learnblock1,496,img/planet15_right.png,15,Community 2,NA,TRUE,j,j,NA,NA,NA,3,6,"7,5,6,1,13,15,2,4,14,12,10,11,8,9,3"
14999,commdev-image-keyboard-response,411,1133074,learnblock1,587,img/planet14_left.png,14,Community 2,NA,TRUE,f,f,NA,NA,NA,3,6,"7,5,6,1,13,15,2,4,14,12,10,11,8,9,3"
14999,commdev-image-keyboard-response,412,1134334,learnblock1,634,img/planet4_left.png,4,Community 2,NA,TRUE,f,f,NA,NA,NA,3,6,"7,5,6,1,13,15,2,4,14,12,10,11,8,9,3"
14999,commdev-image-keyboard-response,413,1135594,learnblock1,475,img/planet14_left.png,14,Community 2,NA,TRUE,f,f,NA,NA,NA,3,6,"7,5,6,1,13,15,2,4,14,12,10,11,8,9,3"
14999,commdev-image-keyboard-response,414,1136853,learnblock1,388,img/planet15_right.png,15,Community 2,NA,FALSE,f,j,NA,NA,NA,3,6,"7,5,6,1,13,15,2,4,14,12,10,11,8,9,3"
14999,commdev-image-keyboard-response,415,1138113,learnblock1,581.0000000002328,img/planet2_right.png,2,Community 2,NA,TRUE,j,j,NA,NA,NA,3,6,"7,5,6,1,13,15,2,4,14,12,10,11,8,9,3"
14999,commdev-image-keyboard-response,416,1139373,learnblock1,400,img/planet4_left.png,4,Community 2,NA,FALSE,j,f,NA,NA,NA,3,6,"7,5,6,1,13,15,2,4,14,12,10,11,8,9,3"
14999,commdev-image-keyboard-response,417,1140633,learnblock1,563,img/planet11_right.png,11,Community 3,NA,TRUE,j,j,NA,NA,NA,3,6,"7,5,6,1,13,15,2,4,14,12,10,11,8,9,3"
14999,commdev-image-keyboard-response,418,1141893,learnblock1,775,img/planet3_left.png,3,Community 3,NA,TRUE,f,f,NA,NA,NA,3,6,"7,5,6,1,13,15,2,4,14,12,10,11,8,9,3"
14999,commdev-image-keyboard-response,419,1143153,learnblock1,622,img/planet8_left.png,8,Community 3,NA,TRUE,f,f,NA,NA,NA,3,6,"7,5,6,1,13,15,2,4,14,12,10,11,8,9,3"
14999,commdev-image-keyboard-response,420,1144413,learnblock1,613,img/planet3_right.png,3,Community 3,NA,TRUE,j,j,NA,NA,NA,3,6,"7,5,6,1,13,15,2,4,14,12,10,11,8,9,3"
14999,commdev-image-keyboard-response,421,1145673,learnblock1,663,img/planet9_right.png,9,Community 3,NA,TRUE,j,j,NA,NA,NA,3,6,"7,5,6,1,13,15,2,4,14,12,10,11,8,9,3"
14999,commdev-image-keyboard-response,422,1146933,learnblock1,522,img/planet10_right.png,10,Community 3,NA,TRUE,j,j,NA,NA,NA,3,6,"7,5,6,1,13,15,2,4,14,12,10,11,8,9,3"
14999,commdev-image-keyboard-response,423,1148193,learnblock1,658,img/planet13_left.png,13,Community 1,NA,TRUE,f,f,NA,NA,NA,3,6,"7,5,6,1,13,15,2,4,14,12,10,11,8,9,3"
14999,commdev-image-keyboard-response,424,1149453,learnblock1,530.0000000002328,img/planet6_right.png,6,Community 1,NA,TRUE,j,j,NA,NA,NA,3,6,"7,5,6,1,13,15,2,4,14,12,10,11,8,9,3"
14999,commdev-image-keyboard-response,425,1150713,learnblock1,541,img/planet5_right.png,5,Community 1,NA,TRUE,j,j,NA,NA,NA,3,6,"7,5,6,1,13,15,2,4,14,12,10,11,8,9,3"
14999,commdev-image-keyboard-response,426,1151973,learnblock1,585.9999999997672,img/planet6_left.png,6,Community 1,NA,TRUE,f,f,NA,NA,NA,3,6,"7,5,6,1,13,15,2,4,14,12,10,11,8,9,3"
14999,commdev-image-keyboard-response,427,1153232,learnblock1,862.9999999997672,img/planet5_left.png,5,Community 1,NA,TRUE,f,f,NA,NA,NA,3,6,"7,5,6,1,13,15,2,4,14,12,10,11,8,9,3"
14999,commdev-image-keyboard-response,428,1154492,learnblock1,683,img/planet13_left.png,13,Community 1,NA,TRUE,f,f,NA,NA,NA,3,6,"7,5,6,1,13,15,2,4,14,12,10,11,8,9,3"
14999,commdev-image-keyboard-response,429,1155753,learnblock1,507,img/planet5_right.png,5,Community 1,NA,TRUE,j,j,NA,NA,NA,3,6,"7,5,6,1,13,15,2,4,14,12,10,11,8,9,3"
14999,commdev-image-keyboard-response,430,1157013,learnblock1,null,img/planet7_right.png,7,Community 1,NA,FALSE,null,j,NA,NA,NA,3,6,"7,5,6,1,13,15,2,4,14,12,10,11,8,9,3"
14999,commdev-image-keyboard-response,431,1158273,learnblock1,null,img/planet5_right.png,5,Community 1,NA,FALSE,null,j,NA,NA,NA,3,6,"7,5,6,1,13,15,2,4,14,12,10,11,8,9,3"
14999,commdev-image-keyboard-response,432,1159533,learnblock1,758,img/planet1_right.png,1,Community 1,NA,TRUE,j,j,NA,NA,NA,3,6,"7,5,6,1,13,15,2,4,14,12,10,11,8,9,3"
14999,commdev-image-keyboard-response,433,1160793,learnblock1,716,img/planet5_left.png,5,Community 1,NA,TRUE,f,f,NA,NA,NA,3,6,"7,5,6,1,13,15,2,4,14,12,10,11,8,9,3"
14999,commdev-image-keyboard-response,437,1180001,learnblock2,687,img/planet3_left.png,3,Community 3,NA,TRUE,f,f,NA,NA,NA,3,6,"7,5,6,1,13,15,2,4,14,12,10,11,8,9,3"
14999,commdev-image-keyboard-response,438,1181254,learnblock2,591,img/planet8_left.png,8,Community 3,NA,TRUE,f,f,NA,NA,NA,3,6,"7,5,6,1,13,15,2,4,14,12,10,11,8,9,3"
14999,commdev-image-keyboard-response,439,1182507,learnblock2,514,img/planet9_left.png,9,Community 3,NA,TRUE,f,f,NA,NA,NA,3,6,"7,5,6,1,13,15,2,4,14,12,10,11,8,9,3"
14999,commdev-image-keyboard-response,440,1183760,learnblock2,531.0000000002328,img/planet10_left.png,10,Community 3,NA,TRUE,f,f,NA,NA,NA,3,6,"7,5,6,1,13,15,2,4,14,12,10,11,8,9,3"
14999,commdev-image-keyboard-response,441,1185013,learnblock2,383,img/planet9_left.png,9,Community 3,NA,TRUE,f,f,NA,NA,NA,3,6,"7,5,6,1,13,15,2,4,14,12,10,11,8,9,3"
14999,commdev-image-keyboard-response,442,1186266,learnblock2,874,img/planet8_left.png,8,Community 3,NA,TRUE,f,f,NA,NA,NA,3,6,"7,5,6,1,13,15,2,4,14,12,10,11,8,9,3"
14999,commdev-image-keyboard-response,443,1187519,learnblock2,850,img/planet11_right.png,11,Community 3,NA,TRUE,j,j,NA,NA,NA,3,6,"7,5,6,1,13,15,2,4,14,12,10,11,8,9,3"
14999,commdev-image-keyboard-response,444,1188772,learnblock2,831.9999999997672,img/planet4_left.png,4,Community 2,NA,TRUE,f,f,NA,NA,NA,3,6,"7,5,6,1,13,15,2,4,14,12,10,11,8,9,3"
14999,commdev-image-keyboard-response,445,1190025,learnblock2,602,img/planet14_left.png,14,Community 2,NA,TRUE,f,f,NA,NA,NA,3,6,"7,5,6,1,13,15,2,4,14,12,10,11,8,9,3"
14999,commdev-image-keyboard-response,446,1191277,learnblock2,565,img/planet4_left.png,4,Community 2,NA,TRUE,f,f,NA,NA,NA,3,6,"7,5,6,1,13,15,2,4,14,12,10,11,8,9,3"
14999,commdev-image-keyboard-response,447,1192531,learnblock2,552,img/planet11_left.png,11,Community 3,NA,TRUE,f,f,NA,NA,NA,3,6,"7,5,6,1,13,15,2,4,14,12,10,11,8,9,3"
14999,commdev-image-keyboard-response,448,1193791,learnblock2,708,img/planet9_left.png,9,Community 3,NA,TRUE,f,f,NA,NA,NA,3,6,"7,5,6,1,13,15,2,4,14,12,10,11,8,9,3"
14999,commdev-image-keyboard-response,449,1195052,learnblock2,478,img/planet11_right.png,11,Community 3,NA,TRUE,j,j,NA,NA,NA,3,6,"7,5,6,1,13,15,2,4,14,12,10,11,8,9,3"
14999,commdev-image-keyboard-response,450,1196311,learnblock2,537,img/planet9_right.png,9,Community 3,NA,TRUE,j,j,NA,NA,NA,3,6,"7,5,6,1,13,15,2,4,14,12,10,11,8,9,3"
14999,commdev-image-keyboard-response,451,1197571,learnblock2,463,img/planet10_right.png,10,Community 3,NA,TRUE,j,j,NA,NA,NA,3,6,"7,5,6,1,13,15,2,4,14,12,10,11,8,9,3"
14999,commdev-image-keyboard-response,452,1198831,learnblock2,622,img/planet9_left.png,9,Community 3,NA,TRUE,f,f,NA,NA,NA,3,6,"7,5,6,1,13,15,2,4,14,12,10,11,8,9,3"
14999,commdev-image-keyboard-response,453,1200092,learnblock2,601,img/planet3_right.png,3,Community 3,NA,TRUE,j,j,NA,NA,NA,3,6,"7,5,6,1,13,15,2,4,14,12,10,11,8,9,3"
14999,commdev-image-keyboard-response,454,1201351,learnblock2,581.0000000002328,img/planet9_left.png,9,Community 3,NA,TRUE,f,f,NA,NA,NA,3,6,"7,5,6,1,13,15,2,4,14,12,10,11,8,9,3"
14999,commdev-image-keyboard-response,455,1202611,learnblock2,544,img/planet11_right.png,11,Community 3,NA,TRUE,j,j,NA,NA,NA,3,6,"7,5,6,1,13,15,2,4,14,12,10,11,8,9,3"
14999,commdev-image-keyboard-response,456,1203871,learnblock2,495,img/planet4_right.png,4,Community 2,NA,TRUE,j,j,NA,NA,NA,3,6,"7,5,6,1,13,15,2,4,14,12,10,11,8,9,3"
14999,commdev-image-keyboard-response,457,1205131,learnblock2,593,img/planet12_left.png,12,Community 2,NA,TRUE,f,f,NA,NA,NA,3,6,"7,5,6,1,13,15,2,4,14,12,10,11,8,9,3"
14999,commdev-image-keyboard-response,458,1206391,learnblock2,623,img/planet15_left.png,15,Community 2,NA,TRUE,f,f,NA,NA,NA,3,6,"7,5,6,1,13,15,2,4,14,12,10,11,8,9,3"
14999,commdev-image-keyboard-response,459,1207651,learnblock2,586,img/planet14_left.png,14,Community 2,NA,TRUE,f,f,NA,NA,NA,3,6,"7,5,6,1,13,15,2,4,14,12,10,11,8,9,3"
14999,commdev-image-keyboard-response,460,1208911,learnblock2,711,img/planet15_right.png,15,Community 2,NA,TRUE,j,j,NA,NA,NA,3,6,"7,5,6,1,13,15,2,4,14,12,10,11,8,9,3"
14999,commdev-image-keyboard-response,461,1210171,learnblock2,612,img/planet14_left.png,14,Community 2,NA,TRUE,f,f,NA,NA,NA,3,6,"7,5,6,1,13,15,2,4,14,12,10,11,8,9,3"
14999,commdev-image-keyboard-response,462,1211431,learnblock2,704,img/planet12_left.png,12,Community 2,NA,TRUE,f,f,NA,NA,NA,3,6,"7,5,6,1,13,15,2,4,14,12,10,11,8,9,3"
14999,commdev-image-keyboard-response,463,1212691,learnblock2,563.9999999997672,img/planet2_right.png,2,Community 2,NA,TRUE,j,j,NA,NA,NA,3,6,"7,5,6,1,13,15,2,4,14,12,10,11,8,9,3"
14999,commdev-image-keyboard-response,464,1213951,learnblock2,887,img/planet15_right.png,15,Community 2,NA,FALSE,f,j,NA,NA,NA,3,6,"7,5,6,1,13,15,2,4,14,12,10,11,8,9,3"
14999,commdev-image-keyboard-response,465,1215210,learnblock2,643.9999999997672,img/planet14_left.png,14,Community 2,NA,TRUE,f,f,NA,NA,NA,3,6,"7,5,6,1,13,15,2,4,14,12,10,11,8,9,3"
14999,commdev-image-keyboard-response,466,1216471,learnblock2,794.9999999997672,img/planet12_left.png,12,Community 2,NA,TRUE,f,f,NA,NA,NA,3,6,"7,5,6,1,13,15,2,4,14,12,10,11,8,9,3"
14999,commdev-image-keyboard-response,467,1217730,learnblock2,645.9999999997672,img/planet15_left.png,15,Community 2,NA,TRUE,f,f,NA,NA,NA,3,6,"7,5,6,1,13,15,2,4,14,12,10,11,8,9,3"
14999,commdev-image-keyboard-response,468,1218990,learnblock2,690,img/planet1_left.png,1,Community 1,NA,TRUE,f,f,NA,NA,NA,3,6,"7,5,6,1,13,15,2,4,14,12,10,11,8,9,3"
14999,commdev-image-keyboard-response,469,1220250,learnblock2,543,img/planet6_right.png,6,Community 1,NA,TRUE,j,j,NA,NA,NA,3,6,"7,5,6,1,13,15,2,4,14,12,10,11,8,9,3"
14999,commdev-image-keyboard-response,470,1221510,learnblock2,601,img/planet1_right.png,1,Community 1,NA,TRUE,j,j,NA,NA,NA,3,6,"7,5,6,1,13,15,2,4,14,12,10,11,8,9,3"
14999,commdev-image-keyboard-response,471,1222770,learnblock2,704,img/planet5_right.png,5,Community 1,NA,TRUE,j,j,NA,NA,NA,3,6,"7,5,6,1,13,15,2,4,14,12,10,11,8,9,3"
14999,commdev-image-keyboard-response,472,1224029,learnblock2,552,img/planet6_right.png,6,Community 1,NA,TRUE,j,j,NA,NA,NA,3,6,"7,5,6,1,13,15,2,4,14,12,10,11,8,9,3"
14999,commdev-image-keyboard-response,473,1225290,learnblock2,592,img/planet13_left.png,13,Community 1,NA,TRUE,f,f,NA,NA,NA,3,6,"7,5,6,1,13,15,2,4,14,12,10,11,8,9,3"
14999,commdev-image-keyboard-response,474,1226550,learnblock2,576,img/planet7_right.png,7,Community 1,NA,TRUE,j,j,NA,NA,NA,3,6,"7,5,6,1,13,15,2,4,14,12,10,11,8,9,3"
14999,commdev-image-keyboard-response,475,1227810,learnblock2,557,img/planet13_left.png,13,Community 1,NA,TRUE,f,f,NA,NA,NA,3,6,"7,5,6,1,13,15,2,4,14,12,10,11,8,9,3"
14999,commdev-image-keyboard-response,476,1229070,learnblock2,539,img/planet5_right.png,5,Community 1,NA,TRUE,j,j,NA,NA,NA,3,6,"7,5,6,1,13,15,2,4,14,12,10,11,8,9,3"
14999,commdev-image-keyboard-response,477,1230330,learnblock2,674,img/planet6_left.png,6,Community 1,NA,FALSE,j,f,NA,NA,NA,3,6,"7,5,6,1,13,15,2,4,14,12,10,11,8,9,3"
14999,commdev-image-keyboard-response,478,1231590,learnblock2,585,img/planet13_left.png,13,Community 1,NA,FALSE,j,f,NA,NA,NA,3,6,"7,5,6,1,13,15,2,4,14,12,10,11,8,9,3"
14999,commdev-image-keyboard-response,479,1232850,learnblock2,1017,img/planet6_right.png,6,Community 1,NA,TRUE,j,j,NA,NA,NA,3,6,"7,5,6,1,13,15,2,4,14,12,10,11,8,9,3"
14999,commdev-image-keyboard-response,480,1234110,learnblock2,660,img/planet1_right.png,1,Community 1,NA,TRUE,j,j,NA,NA,NA,3,6,"7,5,6,1,13,15,2,4,14,12,10,11,8,9,3"
14999,commdev-image-keyboard-response,481,1235370,learnblock2,582,img/planet5_left.png,5,Community 1,NA,TRUE,f,f,NA,NA,NA,3,6,"7,5,6,1,13,15,2,4,14,12,10,11,8,9,3"
14999,commdev-image-keyboard-response,482,1236630,learnblock2,659,img/planet7_left.png,7,Community 1,NA,TRUE,f,f,NA,NA,NA,3,6,"7,5,6,1,13,15,2,4,14,12,10,11,8,9,3"
14999,commdev-image-keyboard-response,483,1237890,learnblock2,523,img/planet6_right.png,6,Community 1,NA,FALSE,f,j,NA,NA,NA,3,6,"7,5,6,1,13,15,2,4,14,12,10,11,8,9,3"
14999,commdev-image-keyboard-response,484,1239150,learnblock2,898,img/planet7_left.png,7,Community 1,NA,TRUE,f,f,NA,NA,NA,3,6,"7,5,6,1,13,15,2,4,14,12,10,11,8,9,3"
14999,commdev-image-keyboard-response,485,1240410,learnblock2,668,img/planet13_left.png,13,Community 1,NA,TRUE,f,f,NA,NA,NA,3,6,"7,5,6,1,13,15,2,4,14,12,10,11,8,9,3"
14999,commdev-image-keyboard-response,486,1241670,learnblock2,570,img/planet10_left.png,10,Community 3,NA,TRUE,f,f,NA,NA,NA,3,6,"7,5,6,1,13,15,2,4,14,12,10,11,8,9,3"
14999,commdev-image-keyboard-response,487,1242930,learnblock2,519,img/planet9_right.png,9,Community 3,NA,TRUE,j,j,NA,NA,NA,3,6,"7,5,6,1,13,15,2,4,14,12,10,11,8,9,3"
14999,commdev-image-keyboard-response,488,1244190,learnblock2,853,img/planet10_right.png,10,Community 3,NA,TRUE,j,j,NA,NA,NA,3,6,"7,5,6,1,13,15,2,4,14,12,10,11,8,9,3"
14999,commdev-image-keyboard-response,489,1245449,learnblock2,476.99999999976717,img/planet3_right.png,3,Community 3,NA,TRUE,j,j,NA,NA,NA,3,6,"7,5,6,1,13,15,2,4,14,12,10,11,8,9,3"
14999,commdev-image-keyboard-response,490,1246709,learnblock2,502.99999999976717,img/planet10_left.png,10,Community 3,NA,TRUE,f,f,NA,NA,NA,3,6,"7,5,6,1,13,15,2,4,14,12,10,11,8,9,3"
14999,commdev-image-keyboard-response,491,1247969,learnblock2,457,img/planet8_right.png,8,Community 3,NA,TRUE,j,j,NA,NA,NA,3,6,"7,5,6,1,13,15,2,4,14,12,10,11,8,9,3"
14999,commdev-image-keyboard-response,492,1249229,learnblock2,540.9999999997672,img/planet10_right.png,10,Community 3,NA,TRUE,j,j,NA,NA,NA,3,6,"7,5,6,1,13,15,2,4,14,12,10,11,8,9,3"
14999,commdev-image-keyboard-response,493,1250489,learnblock2,645,img/planet3_left.png,3,Community 3,NA,TRUE,f,f,NA,NA,NA,3,6,"7,5,6,1,13,15,2,4,14,12,10,11,8,9,3"
14999,commdev-image-keyboard-response,494,1251749,learnblock2,737,img/planet9_left.png,9,Community 3,NA,TRUE,f,f,NA,NA,NA,3,6,"7,5,6,1,13,15,2,4,14,12,10,11,8,9,3"
14999,commdev-image-keyboard-response,495,1253009,learnblock2,549,img/planet3_left.png,3,Community 3,NA,TRUE,f,f,NA,NA,NA,3,6,"7,5,6,1,13,15,2,4,14,12,10,11,8,9,3"
14999,commdev-image-keyboard-response,496,1254269,learnblock2,752,img/planet10_right.png,10,Community 3,NA,TRUE,j,j,NA,NA,NA,3,6,"7,5,6,1,13,15,2,4,14,12,10,11,8,9,3"
14999,commdev-image-keyboard-response,497,1255529,learnblock2,835,img/planet9_left.png,9,Community 3,NA,TRUE,f,f,NA,NA,NA,3,6,"7,5,6,1,13,15,2,4,14,12,10,11,8,9,3"
14999,commdev-image-keyboard-response,498,1256789,learnblock2,1016,img/planet10_left.png,10,Community 3,NA,TRUE,f,f,NA,NA,NA,3,6,"7,5,6,1,13,15,2,4,14,12,10,11,8,9,3"
14999,commdev-image-keyboard-response,499,1258049,learnblock2,694,img/planet3_right.png,3,Community 3,NA,TRUE,j,j,NA,NA,NA,3,6,"7,5,6,1,13,15,2,4,14,12,10,11,8,9,3"
14999,commdev-image-keyboard-response,500,1259309,learnblock2,492,img/planet9_right.png,9,Community 3,NA,TRUE,j,j,NA,NA,NA,3,6,"7,5,6,1,13,15,2,4,14,12,10,11,8,9,3"
14999,commdev-image-keyboard-response,501,1260569,learnblock2,587,img/planet3_left.png,3,Community 3,NA,TRUE,f,f,NA,NA,NA,3,6,"7,5,6,1,13,15,2,4,14,12,10,11,8,9,3"
14999,commdev-image-keyboard-response,502,1261829,learnblock2,451,img/planet9_right.png,9,Community 3,NA,TRUE,j,j,NA,NA,NA,3,6,"7,5,6,1,13,15,2,4,14,12,10,11,8,9,3"
14999,commdev-image-keyboard-response,503,1263089,learnblock2,593,img/planet11_right.png,11,Community 3,NA,TRUE,j,j,NA,NA,NA,3,6,"7,5,6,1,13,15,2,4,14,12,10,11,8,9,3"
14999,commdev-image-keyboard-response,504,1264349,learnblock2,699,img/planet8_left.png,8,Community 3,NA,TRUE,f,f,NA,NA,NA,3,6,"7,5,6,1,13,15,2,4,14,12,10,11,8,9,3"
14999,commdev-image-keyboard-response,505,1265609,learnblock2,516,img/planet9_right.png,9,Community 3,NA,FALSE,f,j,NA,NA,NA,3,6,"7,5,6,1,13,15,2,4,14,12,10,11,8,9,3"
14999,commdev-image-keyboard-response,506,1266869,learnblock2,512.0000000002328,img/planet10_right.png,10,Community 3,NA,TRUE,j,j,NA,NA,NA,3,6,"7,5,6,1,13,15,2,4,14,12,10,11,8,9,3"
14999,commdev-image-keyboard-response,507,1268129,learnblock2,444,img/planet9_right.png,9,Community 3,NA,TRUE,j,j,NA,NA,NA,3,6,"7,5,6,1,13,15,2,4,14,12,10,11,8,9,3"
14999,commdev-image-keyboard-response,508,1269388,learnblock2,687,img/planet11_left.png,11,Community 3,NA,TRUE,f,f,NA,NA,NA,3,6,"7,5,6,1,13,15,2,4,14,12,10,11,8,9,3"
14999,commdev-image-keyboard-response,509,1270648,learnblock2,636,img/planet4_left.png,4,Community 2,NA,TRUE,f,f,NA,NA,NA,3,6,"7,5,6,1,13,15,2,4,14,12,10,11,8,9,3"
14999,commdev-image-keyboard-response,510,1271909,learnblock2,572,img/planet14_right.png,14,Community 2,NA,TRUE,j,j,NA,NA,NA,3,6,"7,5,6,1,13,15,2,4,14,12,10,11,8,9,3"
14999,commdev-image-keyboard-response,511,1273168,learnblock2,502.00000000023283,img/planet12_right.png,12,Community 2,NA,TRUE,j,j,NA,NA,NA,3,6,"7,5,6,1,13,15,2,4,14,12,10,11,8,9,3"
14999,commdev-image-keyboard-response,512,1274428,learnblock2,604,img/planet14_right.png,14,Community 2,NA,TRUE,j,j,NA,NA,NA,3,6,"7,5,6,1,13,15,2,4,14,12,10,11,8,9,3"
14999,commdev-image-keyboard-response,513,1275689,learnblock2,654.9999999997672,img/planet15_left.png,15,Community 2,NA,TRUE,f,f,NA,NA,NA,3,6,"7,5,6,1,13,15,2,4,14,12,10,11,8,9,3"
14999,commdev-image-keyboard-response,514,1276948,learnblock2,714.9999999997672,img/planet1_left.png,1,Community 1,NA,TRUE,f,f,NA,NA,NA,3,6,"7,5,6,1,13,15,2,4,14,12,10,11,8,9,3"
14999,commdev-image-keyboard-response,515,1278208,learnblock2,627.9999999997672,img/planet7_left.png,7,Community 1,NA,TRUE,f,f,NA,NA,NA,3,6,"7,5,6,1,13,15,2,4,14,12,10,11,8,9,3"
14999,commdev-image-keyboard-response,516,1279468,learnblock2,607.9999999997672,img/planet13_left.png,13,Community 1,NA,TRUE,f,f,NA,NA,NA,3,6,"7,5,6,1,13,15,2,4,14,12,10,11,8,9,3"
14999,commdev-image-keyboard-response,517,1280728,learnblock2,727.9999999997672,img/planet7_left.png,7,Community 1,NA,TRUE,f,f,NA,NA,NA,3,6,"7,5,6,1,13,15,2,4,14,12,10,11,8,9,3"
14999,commdev-image-keyboard-response,518,1281988,learnblock2,613,img/planet1_right.png,1,Community 1,NA,TRUE,j,j,NA,NA,NA,3,6,"7,5,6,1,13,15,2,4,14,12,10,11,8,9,3"
14999,commdev-image-keyboard-response,519,1283248,learnblock2,495,img/planet5_right.png,5,Community 1,NA,TRUE,j,j,NA,NA,NA,3,6,"7,5,6,1,13,15,2,4,14,12,10,11,8,9,3"
14999,commdev-image-keyboard-response,520,1284508,learnblock2,684,img/planet13_right.png,13,Community 1,NA,TRUE,j,j,NA,NA,NA,3,6,"7,5,6,1,13,15,2,4,14,12,10,11,8,9,3"
14999,commdev-image-keyboard-response,521,1285768,learnblock2,470,img/planet5_left.png,5,Community 1,NA,FALSE,j,f,NA,NA,NA,3,6,"7,5,6,1,13,15,2,4,14,12,10,11,8,9,3"
14999,commdev-image-keyboard-response,522,1287028,learnblock2,504,img/planet1_right.png,1,Community 1,NA,TRUE,j,j,NA,NA,NA,3,6,"7,5,6,1,13,15,2,4,14,12,10,11,8,9,3"
14999,commdev-image-keyboard-response,523,1288288,learnblock2,654,img/planet7_right.png,7,Community 1,NA,TRUE,j,j,NA,NA,NA,3,6,"7,5,6,1,13,15,2,4,14,12,10,11,8,9,3"
14999,commdev-image-keyboard-response,524,1289548,learnblock2,633,img/planet13_right.png,13,Community 1,NA,TRUE,j,j,NA,NA,NA,3,6,"7,5,6,1,13,15,2,4,14,12,10,11,8,9,3"
14999,commdev-image-keyboard-response,525,1290808,learnblock2,515,img/planet7_left.png,7,Community 1,NA,FALSE,j,f,NA,NA,NA,3,6,"7,5,6,1,13,15,2,4,14,12,10,11,8,9,3"
14999,commdev-image-keyboard-response,526,1292068,learnblock2,505.00000000023283,img/planet6_right.png,6,Community 1,NA,TRUE,j,j,NA,NA,NA,3,6,"7,5,6,1,13,15,2,4,14,12,10,11,8,9,3"
14999,commdev-image-keyboard-response,527,1293328,learnblock2,526,img/planet5_left.png,5,Community 1,NA,TRUE,f,f,NA,NA,NA,3,6,"7,5,6,1,13,15,2,4,14,12,10,11,8,9,3"
14999,commdev-image-keyboard-response,528,1294588,learnblock2,875,img/planet7_left.png,7,Community 1,NA,TRUE,f,f,NA,NA,NA,3,6,"7,5,6,1,13,15,2,4,14,12,10,11,8,9,3"
14999,commdev-image-keyboard-response,529,1295848,learnblock2,637,img/planet1_right.png,1,Community 1,NA,TRUE,j,j,NA,NA,NA,3,6,"7,5,6,1,13,15,2,4,14,12,10,11,8,9,3"
14999,commdev-image-keyboard-response,530,1297108,learnblock2,597,img/planet6_left.png,6,Community 1,NA,TRUE,f,f,NA,NA,NA,3,6,"7,5,6,1,13,15,2,4,14,12,10,11,8,9,3"
14999,commdev-image-keyboard-response,531,1298367,learnblock2,591,img/planet13_left.png,13,Community 1,NA,TRUE,f,f,NA,NA,NA,3,6,"7,5,6,1,13,15,2,4,14,12,10,11,8,9,3"
14999,commdev-image-keyboard-response,532,1299628,learnblock2,560.0000000002328,img/planet7_right.png,7,Community 1,NA,TRUE,j,j,NA,NA,NA,3,6,"7,5,6,1,13,15,2,4,14,12,10,11,8,9,3"
14999,commdev-image-keyboard-response,533,1300887,learnblock2,523,img/planet6_left.png,6,Community 1,NA,FALSE,j,f,NA,NA,NA,3,6,"7,5,6,1,13,15,2,4,14,12,10,11,8,9,3"
14999,commdev-image-keyboard-response,534,1302147,learnblock2,514,img/planet13_left.png,13,Community 1,NA,TRUE,f,f,NA,NA,NA,3,6,"7,5,6,1,13,15,2,4,14,12,10,11,8,9,3"
14999,commdev-image-keyboard-response,535,1303407,learnblock2,463,img/planet10_left.png,10,Community 3,NA,TRUE,f,f,NA,NA,NA,3,6,"7,5,6,1,13,15,2,4,14,12,10,11,8,9,3"
14999,commdev-image-keyboard-response,536,1304667,learnblock2,649,img/planet3_left.png,3,Community 3,NA,TRUE,f,f,NA,NA,NA,3,6,"7,5,6,1,13,15,2,4,14,12,10,11,8,9,3"
14999,commdev-image-keyboard-response,537,1305927,learnblock2,476,img/planet10_left.png,10,Community 3,NA,TRUE,f,f,NA,NA,NA,3,6,"7,5,6,1,13,15,2,4,14,12,10,11,8,9,3"
14999,commdev-image-keyboard-response,538,1307187,learnblock2,415.99999999976717,img/planet9_right.png,9,Community 3,NA,FALSE,f,j,NA,NA,NA,3,6,"7,5,6,1,13,15,2,4,14,12,10,11,8,9,3"
14999,commdev-image-keyboard-response,539,1308447,learnblock2,600,img/planet11_left.png,11,Community 3,NA,TRUE,f,f,NA,NA,NA,3,6,"7,5,6,1,13,15,2,4,14,12,10,11,8,9,3"
14999,commdev-image-keyboard-response,540,1309707,learnblock2,473.99999999976717,img/planet4_right.png,4,Community 2,NA,FALSE,f,j,NA,NA,NA,3,6,"7,5,6,1,13,15,2,4,14,12,10,11,8,9,3"
14999,commdev-image-keyboard-response,541,1310967,learnblock2,560,img/planet11_left.png,11,Community 3,NA,TRUE,f,f,NA,NA,NA,3,6,"7,5,6,1,13,15,2,4,14,12,10,11,8,9,3"
14999,commdev-image-keyboard-response,542,1312227,learnblock2,577.9999999997672,img/planet3_left.png,3,Community 3,NA,FALSE,j,f,NA,NA,NA,3,6,"7,5,6,1,13,15,2,4,14,12,10,11,8,9,3"
14999,commdev-image-keyboard-response,543,1313487,learnblock2,455,img/planet9_right.png,9,Community 3,NA,FALSE,f,j,NA,NA,NA,3,6,"7,5,6,1,13,15,2,4,14,12,10,11,8,9,3"
14999,commdev-image-keyboard-response,544,1314747,learnblock2,631,img/planet11_left.png,11,Community 3,NA,TRUE,f,f,NA,NA,NA,3,6,"7,5,6,1,13,15,2,4,14,12,10,11,8,9,3"
14999,commdev-image-keyboard-response,545,1316007,learnblock2,553,img/planet3_right.png,3,Community 3,NA,FALSE,f,j,NA,NA,NA,3,6,"7,5,6,1,13,15,2,4,14,12,10,11,8,9,3"
14999,commdev-image-keyboard-response,546,1317266,learnblock2,695,img/planet9_left.png,9,Community 3,NA,TRUE,f,f,NA,NA,NA,3,6,"7,5,6,1,13,15,2,4,14,12,10,11,8,9,3"
14999,commdev-image-keyboard-response,547,1318527,learnblock2,479,img/planet11_right.png,11,Community 3,NA,TRUE,j,j,NA,NA,NA,3,6,"7,5,6,1,13,15,2,4,14,12,10,11,8,9,3"
14999,commdev-image-keyboard-response,548,1319787,learnblock2,524,img/planet4_right.png,4,Community 2,NA,TRUE,j,j,NA,NA,NA,3,6,"7,5,6,1,13,15,2,4,14,12,10,11,8,9,3"
14999,commdev-image-keyboard-response,549,1321047,learnblock2,739,img/planet14_left.png,14,Community 2,NA,TRUE,f,f,NA,NA,NA,3,6,"7,5,6,1,13,15,2,4,14,12,10,11,8,9,3"
14999,commdev-image-keyboard-response,550,1322307,learnblock2,555,img/planet4_right.png,4,Community 2,NA,TRUE,j,j,NA,NA,NA,3,6,"7,5,6,1,13,15,2,4,14,12,10,11,8,9,3"
14999,commdev-image-keyboard-response,551,1323567,learnblock2,872,img/planet11_right.png,11,Community 3,NA,TRUE,j,j,NA,NA,NA,3,6,"7,5,6,1,13,15,2,4,14,12,10,11,8,9,3"
14999,commdev-image-keyboard-response,552,1324826,learnblock2,845,img/planet4_right.png,4,Community 2,NA,TRUE,j,j,NA,NA,NA,3,6,"7,5,6,1,13,15,2,4,14,12,10,11,8,9,3"
14999,commdev-image-keyboard-response,553,1326086,learnblock2,609.0000000002328,img/planet2_right.png,2,Community 2,NA,TRUE,j,j,NA,NA,NA,3,6,"7,5,6,1,13,15,2,4,14,12,10,11,8,9,3"
14999,commdev-image-keyboard-response,554,1327346,learnblock2,572.0000000002328,img/planet14_left.png,14,Community 2,NA,TRUE,f,f,NA,NA,NA,3,6,"7,5,6,1,13,15,2,4,14,12,10,11,8,9,3"
14999,commdev-image-keyboard-response,555,1328606,learnblock2,586,img/planet12_left.png,12,Community 2,NA,TRUE,f,f,NA,NA,NA,3,6,"7,5,6,1,13,15,2,4,14,12,10,11,8,9,3"
14999,commdev-image-keyboard-response,556,1329866,learnblock2,711,img/planet15_right.png,15,Community 2,NA,TRUE,j,j,NA,NA,NA,3,6,"7,5,6,1,13,15,2,4,14,12,10,11,8,9,3"
14999,commdev-image-keyboard-response,557,1331127,learnblock2,603,img/planet2_right.png,2,Community 2,NA,TRUE,j,j,NA,NA,NA,3,6,"7,5,6,1,13,15,2,4,14,12,10,11,8,9,3"
14999,commdev-image-keyboard-response,558,1332387,learnblock2,662,img/planet15_right.png,15,Community 2,NA,TRUE,j,j,NA,NA,NA,3,6,"7,5,6,1,13,15,2,4,14,12,10,11,8,9,3"
14999,commdev-image-keyboard-response,559,1333646,learnblock2,629,img/planet1_left.png,1,Community 1,NA,TRUE,f,f,NA,NA,NA,3,6,"7,5,6,1,13,15,2,4,14,12,10,11,8,9,3"
14999,commdev-image-keyboard-response,560,1334906,learnblock2,567,img/planet6_left.png,6,Community 1,NA,FALSE,j,f,NA,NA,NA,3,6,"7,5,6,1,13,15,2,4,14,12,10,11,8,9,3"
14999,commdev-image-keyboard-response,561,1336166,learnblock2,507,img/planet13_right.png,13,Community 1,NA,TRUE,j,j,NA,NA,NA,3,6,"7,5,6,1,13,15,2,4,14,12,10,11,8,9,3"
14999,commdev-image-keyboard-response,562,1337426,learnblock2,643,img/planet7_left.png,7,Community 1,NA,TRUE,f,f,NA,NA,NA,3,6,"7,5,6,1,13,15,2,4,14,12,10,11,8,9,3"
14999,commdev-image-keyboard-response,563,1338686,learnblock2,563,img/planet1_right.png,1,Community 1,NA,TRUE,j,j,NA,NA,NA,3,6,"7,5,6,1,13,15,2,4,14,12,10,11,8,9,3"
14999,commdev-image-keyboard-response,564,1339946,learnblock2,661.9999999997672,img/planet15_right.png,15,Community 2,NA,TRUE,j,j,NA,NA,NA,3,6,"7,5,6,1,13,15,2,4,14,12,10,11,8,9,3"
14999,commdev-image-keyboard-response,565,1341206,learnblock2,489,img/planet2_right.png,2,Community 2,NA,TRUE,j,j,NA,NA,NA,3,6,"7,5,6,1,13,15,2,4,14,12,10,11,8,9,3"
14999,commdev-image-keyboard-response,566,1342466,learnblock2,627.9999999997672,img/planet14_right.png,14,Community 2,NA,TRUE,j,j,NA,NA,NA,3,6,"7,5,6,1,13,15,2,4,14,12,10,11,8,9,3"
14999,commdev-image-keyboard-response,567,1343726,learnblock2,490,img/planet4_right.png,4,Community 2,NA,TRUE,j,j,NA,NA,NA,3,6,"7,5,6,1,13,15,2,4,14,12,10,11,8,9,3"
14999,commdev-image-keyboard-response,568,1344986,learnblock2,420,img/planet11_right.png,11,Community 3,NA,TRUE,j,j,NA,NA,NA,3,6,"7,5,6,1,13,15,2,4,14,12,10,11,8,9,3"
14999,commdev-image-keyboard-response,569,1346246,learnblock2,446,img/planet3_right.png,3,Community 3,NA,TRUE,j,j,NA,NA,NA,3,6,"7,5,6,1,13,15,2,4,14,12,10,11,8,9,3"
14999,commdev-image-keyboard-response,570,1347506,learnblock2,437,img/planet9_right.png,9,Community 3,NA,TRUE,j,j,NA,NA,NA,3,6,"7,5,6,1,13,15,2,4,14,12,10,11,8,9,3"
14999,commdev-image-keyboard-response,571,1348766,learnblock2,399,img/planet11_left.png,11,Community 3,NA,FALSE,j,f,NA,NA,NA,3,6,"7,5,6,1,13,15,2,4,14,12,10,11,8,9,3"
14999,commdev-image-keyboard-response,572,1350026,learnblock2,587,img/planet4_right.png,4,Community 2,NA,TRUE,j,j,NA,NA,NA,3,6,"7,5,6,1,13,15,2,4,14,12,10,11,8,9,3"
14999,commdev-image-keyboard-response,573,1351285,learnblock2,630,img/planet11_right.png,11,Community 3,NA,TRUE,j,j,NA,NA,NA,3,6,"7,5,6,1,13,15,2,4,14,12,10,11,8,9,3"
14999,commdev-image-keyboard-response,574,1352545,learnblock2,441,img/planet9_right.png,9,Community 3,NA,TRUE,j,j,NA,NA,NA,3,6,"7,5,6,1,13,15,2,4,14,12,10,11,8,9,3"
14999,commdev-image-keyboard-response,575,1353805,learnblock2,513,img/planet11_left.png,11,Community 3,NA,TRUE,f,f,NA,NA,NA,3,6,"7,5,6,1,13,15,2,4,14,12,10,11,8,9,3"
14999,commdev-image-keyboard-response,576,1355065,learnblock2,499,img/planet8_right.png,8,Community 3,NA,TRUE,j,j,NA,NA,NA,3,6,"7,5,6,1,13,15,2,4,14,12,10,11,8,9,3"
14999,commdev-image-keyboard-response,577,1356325,learnblock2,617,img/planet10_left.png,10,Community 3,NA,TRUE,f,f,NA,NA,NA,3,6,"7,5,6,1,13,15,2,4,14,12,10,11,8,9,3"
14999,commdev-image-keyboard-response,578,1357585,learnblock2,559,img/planet8_right.png,8,Community 3,NA,TRUE,j,j,NA,NA,NA,3,6,"7,5,6,1,13,15,2,4,14,12,10,11,8,9,3"
14999,commdev-image-keyboard-response,579,1358845,learnblock2,567,img/planet3_left.png,3,Community 3,NA,FALSE,j,f,NA,NA,NA,3,6,"7,5,6,1,13,15,2,4,14,12,10,11,8,9,3"
14999,commdev-image-keyboard-response,580,1360105,learnblock2,581.0000000002328,img/planet11_right.png,11,Community 3,NA,TRUE,j,j,NA,NA,NA,3,6,"7,5,6,1,13,15,2,4,14,12,10,11,8,9,3"
14999,commdev-image-keyboard-response,581,1361365,learnblock2,681,img/planet4_right.png,4,Community 2,NA,TRUE,j,j,NA,NA,NA,3,6,"7,5,6,1,13,15,2,4,14,12,10,11,8,9,3"
14999,commdev-image-keyboard-response,582,1362625,learnblock2,495,img/planet11_left.png,11,Community 3,NA,TRUE,f,f,NA,NA,NA,3,6,"7,5,6,1,13,15,2,4,14,12,10,11,8,9,3"
14999,commdev-image-keyboard-response,583,1363885,learnblock2,639,img/planet4_left.png,4,Community 2,NA,TRUE,f,f,NA,NA,NA,3,6,"7,5,6,1,13,15,2,4,14,12,10,11,8,9,3"
14999,commdev-image-keyboard-response,584,1365145,learnblock2,605,img/planet12_right.png,12,Community 2,NA,FALSE,f,j,NA,NA,NA,3,6,"7,5,6,1,13,15,2,4,14,12,10,11,8,9,3"
14999,commdev-image-keyboard-response,585,1366405,learnblock2,645,img/planet14_right.png,14,Community 2,NA,TRUE,j,j,NA,NA,NA,3,6,"7,5,6,1,13,15,2,4,14,12,10,11,8,9,3"
14999,commdev-image-keyboard-response,586,1367665,learnblock2,487,img/planet2_left.png,2,Community 2,NA,TRUE,f,f,NA,NA,NA,3,6,"7,5,6,1,13,15,2,4,14,12,10,11,8,9,3"
14999,commdev-image-keyboard-response,587,1368925,learnblock2,786.9999999997672,img/planet12_left.png,12,Community 2,NA,TRUE,f,f,NA,NA,NA,3,6,"7,5,6,1,13,15,2,4,14,12,10,11,8,9,3"
14999,commdev-image-keyboard-response,588,1370185,learnblock2,460.99999999976717,img/planet15_right.png,15,Community 2,NA,TRUE,j,j,NA,NA,NA,3,6,"7,5,6,1,13,15,2,4,14,12,10,11,8,9,3"
14999,commdev-image-keyboard-response,589,1371445,learnblock2,615,img/planet2_left.png,2,Community 2,NA,TRUE,f,f,NA,NA,NA,3,6,"7,5,6,1,13,15,2,4,14,12,10,11,8,9,3"
14999,commdev-image-keyboard-response,590,1372705,learnblock2,524,img/planet14_left.png,14,Community 2,NA,TRUE,f,f,NA,NA,NA,3,6,"7,5,6,1,13,15,2,4,14,12,10,11,8,9,3"
14999,commdev-image-keyboard-response,591,1373965,learnblock2,445,img/planet4_right.png,4,Community 2,NA,TRUE,j,j,NA,NA,NA,3,6,"7,5,6,1,13,15,2,4,14,12,10,11,8,9,3"
14999,commdev-image-keyboard-response,592,1375225,learnblock2,561,img/planet2_left.png,2,Community 2,NA,TRUE,f,f,NA,NA,NA,3,6,"7,5,6,1,13,15,2,4,14,12,10,11,8,9,3"
14999,commdev-image-keyboard-response,593,1376485,learnblock2,590,img/planet14_left.png,14,Community 2,NA,TRUE,f,f,NA,NA,NA,3,6,"7,5,6,1,13,15,2,4,14,12,10,11,8,9,3"
14999,commdev-image-keyboard-response,594,1377744,learnblock2,685,img/planet15_left.png,15,Community 2,NA,TRUE,f,f,NA,NA,NA,3,6,"7,5,6,1,13,15,2,4,14,12,10,11,8,9,3"
14999,commdev-image-keyboard-response,595,1379005,learnblock2,520,img/planet1_right.png,1,Community 1,NA,TRUE,j,j,NA,NA,NA,3,6,"7,5,6,1,13,15,2,4,14,12,10,11,8,9,3"
14999,commdev-image-keyboard-response,596,1380264,learnblock2,697,img/planet6_right.png,6,Community 1,NA,TRUE,j,j,NA,NA,NA,3,6,"7,5,6,1,13,15,2,4,14,12,10,11,8,9,3"
14999,commdev-image-keyboard-response,597,1381524,learnblock2,658,img/planet1_left.png,1,Community 1,NA,TRUE,f,f,NA,NA,NA,3,6,"7,5,6,1,13,15,2,4,14,12,10,11,8,9,3"
14999,commdev-image-keyboard-response,598,1382784,learnblock2,558,img/planet15_left.png,15,Community 2,NA,TRUE,f,f,NA,NA,NA,3,6,"7,5,6,1,13,15,2,4,14,12,10,11,8,9,3"
14999,commdev-image-keyboard-response,599,1384044,learnblock2,640.0000000002328,img/planet14_left.png,14,Community 2,NA,TRUE,f,f,NA,NA,NA,3,6,"7,5,6,1,13,15,2,4,14,12,10,11,8,9,3"
14999,commdev-image-keyboard-response,600,1385304,learnblock2,587,img/planet2_right.png,2,Community 2,NA,TRUE,j,j,NA,NA,NA,3,6,"7,5,6,1,13,15,2,4,14,12,10,11,8,9,3"
14999,commdev-image-keyboard-response,601,1386563,learnblock2,602.0000000002328,img/planet14_left.png,14,Community 2,NA,TRUE,f,f,NA,NA,NA,3,6,"7,5,6,1,13,15,2,4,14,12,10,11,8,9,3"
14999,commdev-image-keyboard-response,602,1387824,learnblock2,627,img/planet4_left.png,4,Community 2,NA,TRUE,f,f,NA,NA,NA,3,6,"7,5,6,1,13,15,2,4,14,12,10,11,8,9,3"
14999,commdev-image-keyboard-response,603,1389084,learnblock2,635,img/planet14_right.png,14,Community 2,NA,TRUE,j,j,NA,NA,NA,3,6,"7,5,6,1,13,15,2,4,14,12,10,11,8,9,3"
14999,commdev-image-keyboard-response,604,1390343,learnblock2,623,img/planet15_left.png,15,Community 2,NA,FALSE,j,f,NA,NA,NA,3,6,"7,5,6,1,13,15,2,4,14,12,10,11,8,9,3"
14999,commdev-image-keyboard-response,605,1391604,learnblock2,952,img/planet12_left.png,12,Community 2,NA,FALSE,j,f,NA,NA,NA,3,6,"7,5,6,1,13,15,2,4,14,12,10,11,8,9,3"
14999,commdev-image-keyboard-response,606,1392864,learnblock2,844,img/planet2_left.png,2,Community 2,NA,FALSE,j,f,NA,NA,NA,3,6,"7,5,6,1,13,15,2,4,14,12,10,11,8,9,3"
14999,commdev-image-keyboard-response,607,1394124,learnblock2,1036,img/planet4_left.png,4,Community 2,NA,FALSE,j,f,NA,NA,NA,3,6,"7,5,6,1,13,15,2,4,14,12,10,11,8,9,3"
14999,commdev-image-keyboard-response,608,1395384,learnblock2,782,img/planet12_right.png,12,Community 2,NA,FALSE,f,j,NA,NA,NA,3,6,"7,5,6,1,13,15,2,4,14,12,10,11,8,9,3"
14999,commdev-image-keyboard-response,609,1396643,learnblock2,708,img/planet14_left.png,14,Community 2,NA,TRUE,f,f,NA,NA,NA,3,6,"7,5,6,1,13,15,2,4,14,12,10,11,8,9,3"
14999,commdev-image-keyboard-response,610,1397904,learnblock2,703,img/planet15_left.png,15,Community 2,NA,TRUE,f,f,NA,NA,NA,3,6,"7,5,6,1,13,15,2,4,14,12,10,11,8,9,3"
14999,commdev-image-keyboard-response,611,1399163,learnblock2,1131,img/planet12_left.png,12,Community 2,NA,TRUE,f,f,NA,NA,NA,3,6,"7,5,6,1,13,15,2,4,14,12,10,11,8,9,3"
14999,commdev-image-keyboard-response,612,1400424,learnblock2,627.0000000002328,img/planet15_right.png,15,Community 2,NA,TRUE,j,j,NA,NA,NA,3,6,"7,5,6,1,13,15,2,4,14,12,10,11,8,9,3"
14999,commdev-image-keyboard-response,613,1401684,learnblock2,791.9999999997672,img/planet12_left.png,12,Community 2,NA,TRUE,f,f,NA,NA,NA,3,6,"7,5,6,1,13,15,2,4,14,12,10,11,8,9,3"
14999,commdev-image-keyboard-response,614,1402943,learnblock2,602,img/planet15_left.png,15,Community 2,NA,TRUE,f,f,NA,NA,NA,3,6,"7,5,6,1,13,15,2,4,14,12,10,11,8,9,3"
14999,commdev-image-keyboard-response,615,1404204,learnblock2,573,img/planet2_left.png,2,Community 2,NA,TRUE,f,f,NA,NA,NA,3,6,"7,5,6,1,13,15,2,4,14,12,10,11,8,9,3"
14999,commdev-image-keyboard-response,616,1405464,learnblock2,464,img/planet15_left.png,15,Community 2,NA,TRUE,f,f,NA,NA,NA,3,6,"7,5,6,1,13,15,2,4,14,12,10,11,8,9,3"
14999,commdev-image-keyboard-response,617,1406724,learnblock2,472,img/planet14_right.png,14,Community 2,NA,TRUE,j,j,NA,NA,NA,3,6,"7,5,6,1,13,15,2,4,14,12,10,11,8,9,3"
14999,commdev-image-keyboard-response,618,1407983,learnblock2,449,img/planet2_right.png,2,Community 2,NA,TRUE,j,j,NA,NA,NA,3,6,"7,5,6,1,13,15,2,4,14,12,10,11,8,9,3"
14999,commdev-image-keyboard-response,619,1409243,learnblock2,985,img/planet4_right.png,4,Community 2,NA,TRUE,j,j,NA,NA,NA,3,6,"7,5,6,1,13,15,2,4,14,12,10,11,8,9,3"
14999,commdev-image-keyboard-response,620,1410503,learnblock2,662,img/planet2_right.png,2,Community 2,NA,TRUE,j,j,NA,NA,NA,3,6,"7,5,6,1,13,15,2,4,14,12,10,11,8,9,3"
14999,commdev-image-keyboard-response,621,1411763,learnblock2,1225,img/planet15_right.png,15,Community 2,NA,TRUE,j,j,NA,NA,NA,3,6,"7,5,6,1,13,15,2,4,14,12,10,11,8,9,3"
14999,commdev-image-keyboard-response,622,1413023,learnblock2,1027.0000000002328,img/planet12_right.png,12,Community 2,NA,TRUE,j,j,NA,NA,NA,3,6,"7,5,6,1,13,15,2,4,14,12,10,11,8,9,3"
14999,commdev-image-keyboard-response,623,1414283,learnblock2,798,img/planet4_left.png,4,Community 2,NA,TRUE,f,f,NA,NA,NA,3,6,"7,5,6,1,13,15,2,4,14,12,10,11,8,9,3"
14999,commdev-image-keyboard-response,624,1415543,learnblock2,837,img/planet11_left.png,11,Community 3,NA,TRUE,f,f,NA,NA,NA,3,6,"7,5,6,1,13,15,2,4,14,12,10,11,8,9,3"
14999,commdev-image-keyboard-response,625,1416803,learnblock2,729,img/planet3_right.png,3,Community 3,NA,TRUE,j,j,NA,NA,NA,3,6,"7,5,6,1,13,15,2,4,14,12,10,11,8,9,3"
14999,commdev-image-keyboard-response,626,1418063,learnblock2,558,img/planet11_right.png,11,Community 3,NA,TRUE,j,j,NA,NA,NA,3,6,"7,5,6,1,13,15,2,4,14,12,10,11,8,9,3"
14999,commdev-image-keyboard-response,627,1419323,learnblock2,536,img/planet3_right.png,3,Community 3,NA,TRUE,j,j,NA,NA,NA,3,6,"7,5,6,1,13,15,2,4,14,12,10,11,8,9,3"
14999,commdev-image-keyboard-response,628,1420583,learnblock2,568,img/planet8_right.png,8,Community 3,NA,TRUE,j,j,NA,NA,NA,3,6,"7,5,6,1,13,15,2,4,14,12,10,11,8,9,3"
14999,commdev-image-keyboard-response,629,1421842,learnblock2,464,img/planet10_left.png,10,Community 3,NA,FALSE,j,f,NA,NA,NA,3,6,"7,5,6,1,13,15,2,4,14,12,10,11,8,9,3"
14999,commdev-image-keyboard-response,630,1423103,learnblock2,622,img/planet8_left.png,8,Community 3,NA,TRUE,f,f,NA,NA,NA,3,6,"7,5,6,1,13,15,2,4,14,12,10,11,8,9,3"
14999,commdev-image-keyboard-response,631,1424363,learnblock2,627,img/planet9_right.png,9,Community 3,NA,TRUE,j,j,NA,NA,NA,3,6,"7,5,6,1,13,15,2,4,14,12,10,11,8,9,3"
14999,commdev-image-keyboard-response,632,1425623,learnblock2,547,img/planet8_right.png,8,Community 3,NA,TRUE,j,j,NA,NA,NA,3,6,"7,5,6,1,13,15,2,4,14,12,10,11,8,9,3"
14999,commdev-image-keyboard-response,633,1426883,learnblock2,597,img/planet10_left.png,10,Community 3,NA,TRUE,f,f,NA,NA,NA,3,6,"7,5,6,1,13,15,2,4,14,12,10,11,8,9,3"
14999,commdev-image-keyboard-response,634,1428143,learnblock2,806,img/planet3_left.png,3,Community 3,NA,TRUE,f,f,NA,NA,NA,3,6,"7,5,6,1,13,15,2,4,14,12,10,11,8,9,3"
14999,commdev-image-keyboard-response,635,1429403,learnblock2,531,img/planet9_left.png,9,Community 3,NA,TRUE,f,f,NA,NA,NA,3,6,"7,5,6,1,13,15,2,4,14,12,10,11,8,9,3"
14999,commdev-image-keyboard-response,636,1430663,learnblock2,629,img/planet3_right.png,3,Community 3,NA,TRUE,j,j,NA,NA,NA,3,6,"7,5,6,1,13,15,2,4,14,12,10,11,8,9,3"
14999,commdev-image-keyboard-response,637,1431923,learnblock2,624.0000000002328,img/planet9_left.png,9,Community 3,NA,TRUE,f,f,NA,NA,NA,3,6,"7,5,6,1,13,15,2,4,14,12,10,11,8,9,3"
14999,commdev-image-keyboard-response,638,1433183,learnblock2,559.9999999997672,img/planet10_left.png,10,Community 3,NA,TRUE,f,f,NA,NA,NA,3,6,"7,5,6,1,13,15,2,4,14,12,10,11,8,9,3"
14999,commdev-image-keyboard-response,639,1434442,learnblock2,484.99999999976717,img/planet8_left.png,8,Community 3,NA,TRUE,f,f,NA,NA,NA,3,6,"7,5,6,1,13,15,2,4,14,12,10,11,8,9,3"
14999,commdev-image-keyboard-response,640,1435701,learnblock2,520,img/planet11_right.png,11,Community 3,NA,TRUE,j,j,NA,NA,NA,3,6,"7,5,6,1,13,15,2,4,14,12,10,11,8,9,3"
14999,commdev-image-keyboard-response,641,1436962,learnblock2,523.9999999997672,img/planet3_left.png,3,Community 3,NA,FALSE,j,f,NA,NA,NA,3,6,"7,5,6,1,13,15,2,4,14,12,10,11,8,9,3"
14999,commdev-image-keyboard-response,642,1438222,learnblock2,796.0000000002328,img/planet9_left.png,9,Community 3,NA,TRUE,f,f,NA,NA,NA,3,6,"7,5,6,1,13,15,2,4,14,12,10,11,8,9,3"
14999,commdev-image-keyboard-response,643,1439482,learnblock2,536,img/planet11_left.png,11,Community 3,NA,TRUE,f,f,NA,NA,NA,3,6,"7,5,6,1,13,15,2,4,14,12,10,11,8,9,3"
14999,commdev-image-keyboard-response,644,1440742,learnblock2,431.00000000023283,img/planet9_left.png,9,Community 3,NA,TRUE,f,f,NA,NA,NA,3,6,"7,5,6,1,13,15,2,4,14,12,10,11,8,9,3"
14999,commdev-image-keyboard-response,645,1442003,learnblock2,601,img/planet3_left.png,3,Community 3,NA,TRUE,f,f,NA,NA,NA,3,6,"7,5,6,1,13,15,2,4,14,12,10,11,8,9,3"
14999,commdev-image-keyboard-response,646,1443262,learnblock2,496,img/planet11_left.png,11,Community 3,NA,TRUE,f,f,NA,NA,NA,3,6,"7,5,6,1,13,15,2,4,14,12,10,11,8,9,3"
14999,commdev-image-keyboard-response,647,1444522,learnblock2,500,img/planet4_left.png,4,Community 2,NA,TRUE,f,f,NA,NA,NA,3,6,"7,5,6,1,13,15,2,4,14,12,10,11,8,9,3"
14999,commdev-image-keyboard-response,648,1445781,learnblock2,695,img/planet12_right.png,12,Community 2,NA,TRUE,j,j,NA,NA,NA,3,6,"7,5,6,1,13,15,2,4,14,12,10,11,8,9,3"
14999,commdev-image-keyboard-response,649,1447042,learnblock2,531,img/planet15_left.png,15,Community 2,NA,TRUE,f,f,NA,NA,NA,3,6,"7,5,6,1,13,15,2,4,14,12,10,11,8,9,3"
14999,commdev-image-keyboard-response,650,1448302,learnblock2,631,img/planet14_left.png,14,Community 2,NA,TRUE,f,f,NA,NA,NA,3,6,"7,5,6,1,13,15,2,4,14,12,10,11,8,9,3"
14999,commdev-image-keyboard-response,651,1449562,learnblock2,523,img/planet15_left.png,15,Community 2,NA,TRUE,f,f,NA,NA,NA,3,6,"7,5,6,1,13,15,2,4,14,12,10,11,8,9,3"
14999,commdev-image-keyboard-response,652,1450822,learnblock2,785,img/planet1_right.png,1,Community 1,NA,TRUE,j,j,NA,NA,NA,3,6,"7,5,6,1,13,15,2,4,14,12,10,11,8,9,3"
14999,commdev-image-keyboard-response,653,1452082,learnblock2,617,img/planet5_right.png,5,Community 1,NA,TRUE,j,j,NA,NA,NA,3,6,"7,5,6,1,13,15,2,4,14,12,10,11,8,9,3"
14999,commdev-image-keyboard-response,654,1453342,learnblock2,614,img/planet7_right.png,7,Community 1,NA,TRUE,j,j,NA,NA,NA,3,6,"7,5,6,1,13,15,2,4,14,12,10,11,8,9,3"
14999,commdev-image-keyboard-response,655,1454602,learnblock2,616,img/planet6_left.png,6,Community 1,NA,FALSE,j,f,NA,NA,NA,3,6,"7,5,6,1,13,15,2,4,14,12,10,11,8,9,3"
14999,commdev-image-keyboard-response,656,1455862,learnblock2,563,img/planet1_left.png,1,Community 1,NA,FALSE,j,f,NA,NA,NA,3,6,"7,5,6,1,13,15,2,4,14,12,10,11,8,9,3"
14999,commdev-image-keyboard-response,657,1457122,learnblock2,538,img/planet15_left.png,15,Community 2,NA,FALSE,j,f,NA,NA,NA,3,6,"7,5,6,1,13,15,2,4,14,12,10,11,8,9,3"
14999,commdev-image-keyboard-response,658,1458381,learnblock2,612,img/planet14_left.png,14,Community 2,NA,FALSE,j,f,NA,NA,NA,3,6,"7,5,6,1,13,15,2,4,14,12,10,11,8,9,3"
14999,commdev-image-keyboard-response,659,1459641,learnblock2,715,img/planet15_right.png,15,Community 2,NA,FALSE,f,j,NA,NA,NA,3,6,"7,5,6,1,13,15,2,4,14,12,10,11,8,9,3"
14999,commdev-image-keyboard-response,660,1460901,learnblock2,725,img/planet2_right.png,2,Community 2,NA,TRUE,j,j,NA,NA,NA,3,6,"7,5,6,1,13,15,2,4,14,12,10,11,8,9,3"
14999,commdev-image-keyboard-response,661,1462161,learnblock2,573,img/planet14_right.png,14,Community 2,NA,TRUE,j,j,NA,NA,NA,3,6,"7,5,6,1,13,15,2,4,14,12,10,11,8,9,3"
14999,commdev-image-keyboard-response,662,1463421,learnblock2,539,img/planet4_right.png,4,Community 2,NA,TRUE,j,j,NA,NA,NA,3,6,"7,5,6,1,13,15,2,4,14,12,10,11,8,9,3"
14999,commdev-image-keyboard-response,663,1464681,learnblock2,753,img/planet11_left.png,11,Community 3,NA,TRUE,f,f,NA,NA,NA,3,6,"7,5,6,1,13,15,2,4,14,12,10,11,8,9,3"
14999,commdev-image-keyboard-response,664,1465941,learnblock2,null,img/planet8_left.png,8,Community 3,NA,FALSE,null,f,NA,NA,NA,3,6,"7,5,6,1,13,15,2,4,14,12,10,11,8,9,3"
14999,commdev-image-keyboard-response,665,1467201,learnblock2,802,img/planet3_left.png,3,Community 3,NA,TRUE,f,f,NA,NA,NA,3,6,"7,5,6,1,13,15,2,4,14,12,10,11,8,9,3"
14999,commdev-image-keyboard-response,666,1468461,learnblock2,648,img/planet11_right.png,11,Community 3,NA,TRUE,j,j,NA,NA,NA,3,6,"7,5,6,1,13,15,2,4,14,12,10,11,8,9,3"
14999,commdev-image-keyboard-response,667,1469721,learnblock2,777.0000000002328,img/planet3_right.png,3,Community 3,NA,TRUE,j,j,NA,NA,NA,3,6,"7,5,6,1,13,15,2,4,14,12,10,11,8,9,3"
14999,commdev-image-keyboard-response,668,1470981,learnblock2,608,img/planet10_right.png,10,Community 3,NA,TRUE,j,j,NA,NA,NA,3,6,"7,5,6,1,13,15,2,4,14,12,10,11,8,9,3"
14999,commdev-image-keyboard-response,669,1472241,learnblock2,568,img/planet13_right.png,13,Community 1,NA,FALSE,f,j,NA,NA,NA,3,6,"7,5,6,1,13,15,2,4,14,12,10,11,8,9,3"
14999,commdev-image-keyboard-response,670,1473501,learnblock2,659,img/planet5_left.png,5,Community 1,NA,TRUE,f,f,NA,NA,NA,3,6,"7,5,6,1,13,15,2,4,14,12,10,11,8,9,3"
14999,commdev-image-keyboard-response,671,1474761,learnblock2,780,img/planet7_right.png,7,Community 1,NA,TRUE,j,j,NA,NA,NA,3,6,"7,5,6,1,13,15,2,4,14,12,10,11,8,9,3"
14999,commdev-image-keyboard-response,672,1476021,learnblock2,487.00000000023283,img/planet13_right.png,13,Community 1,NA,TRUE,j,j,NA,NA,NA,3,6,"7,5,6,1,13,15,2,4,14,12,10,11,8,9,3"
14999,commdev-image-keyboard-response,673,1477281,learnblock2,461,img/planet10_left.png,10,Community 3,NA,TRUE,f,f,NA,NA,NA,3,6,"7,5,6,1,13,15,2,4,14,12,10,11,8,9,3"
14999,commdev-image-keyboard-response,674,1478541,learnblock2,504,img/planet3_right.png,3,Community 3,NA,TRUE,j,j,NA,NA,NA,3,6,"7,5,6,1,13,15,2,4,14,12,10,11,8,9,3"
14999,commdev-image-keyboard-response,675,1479801,learnblock2,610,img/planet8_left.png,8,Community 3,NA,TRUE,f,f,NA,NA,NA,3,6,"7,5,6,1,13,15,2,4,14,12,10,11,8,9,3"
14999,commdev-image-keyboard-response,676,1481060,learnblock2,493,img/planet9_left.png,9,Community 3,NA,TRUE,f,f,NA,NA,NA,3,6,"7,5,6,1,13,15,2,4,14,12,10,11,8,9,3"
14999,commdev-image-keyboard-response,677,1482321,learnblock2,635,img/planet8_left.png,8,Community 3,NA,TRUE,f,f,NA,NA,NA,3,6,"7,5,6,1,13,15,2,4,14,12,10,11,8,9,3"
14999,commdev-image-keyboard-response,678,1483581,learnblock2,575,img/planet11_left.png,11,Community 3,NA,TRUE,f,f,NA,NA,NA,3,6,"7,5,6,1,13,15,2,4,14,12,10,11,8,9,3"
14999,commdev-image-keyboard-response,679,1484840,learnblock2,765,img/planet4_right.png,4,Community 2,NA,TRUE,j,j,NA,NA,NA,3,6,"7,5,6,1,13,15,2,4,14,12,10,11,8,9,3"
14999,commdev-image-keyboard-response,680,1486100,learnblock2,578,img/planet12_right.png,12,Community 2,NA,TRUE,j,j,NA,NA,NA,3,6,"7,5,6,1,13,15,2,4,14,12,10,11,8,9,3"
14999,commdev-image-keyboard-response,681,1487361,learnblock2,1051.0000000002328,img/planet14_left.png,14,Community 2,NA,TRUE,f,f,NA,NA,NA,3,6,"7,5,6,1,13,15,2,4,14,12,10,11,8,9,3"
14999,commdev-image-keyboard-response,682,1488620,learnblock2,678,img/planet15_left.png,15,Community 2,NA,TRUE,f,f,NA,NA,NA,3,6,"7,5,6,1,13,15,2,4,14,12,10,11,8,9,3"
14999,commdev-image-keyboard-response,683,1489880,learnblock2,1069.0000000002328,img/planet12_left.png,12,Community 2,NA,TRUE,f,f,NA,NA,NA,3,6,"7,5,6,1,13,15,2,4,14,12,10,11,8,9,3"
14999,commdev-image-keyboard-response,684,1491140,learnblock2,612,img/planet14_left.png,14,Community 2,NA,TRUE,f,f,NA,NA,NA,3,6,"7,5,6,1,13,15,2,4,14,12,10,11,8,9,3"
14999,commdev-image-keyboard-response,685,1492400,learnblock2,568,img/planet12_right.png,12,Community 2,NA,TRUE,j,j,NA,NA,NA,3,6,"7,5,6,1,13,15,2,4,14,12,10,11,8,9,3"
14999,commdev-image-keyboard-response,686,1493659,learnblock2,446,img/planet2_left.png,2,Community 2,NA,FALSE,j,f,NA,NA,NA,3,6,"7,5,6,1,13,15,2,4,14,12,10,11,8,9,3"
14999,commdev-image-keyboard-response,687,1494920,learnblock2,491,img/planet14_right.png,14,Community 2,NA,TRUE,j,j,NA,NA,NA,3,6,"7,5,6,1,13,15,2,4,14,12,10,11,8,9,3"
