subject_id,trial_type,trial_index,time_elapsed,block,rt,stimulus,planet,community,response,correct,key_press,learning_correct_response,parse,init_locations,final_locations,browser_interactions,num_comp,planet_map
15203,commdev-instructions,7,2397492,NA,708.5,"<p>In this game, you will be shown a 3x3 grid of patterns.</p> <p>The last one in the bottom right-hand corner, <strong>will be missing:</strong></p> <div style='width: 700px;'><div style='float: top;'><img style='width: 200px;' src='practice/p1_M1.png'></img><p class='small'>You need to select<strong> which of the four possible patterns </strong>along the bottom<strong> fits into the gap:</strong></p></div><div style='float: top;'><img style='width: 300px;' src='practice/p1_T1.png'></img></div><br>",NA,NA,NA,NA,NA,NA,NA,NA,NA,3,6,"10,4,11,14,15,3,6,2,1,8,7,13,5,12,9"
15203,commdev-instructions,8,2417155,NA,1342.7999999523163,"<p>Try to be as fast and as accurate as you can be.</p> <p>If you cannot solve the puzzle then you should guess - you will not be penalised for an incorrect answer.</p> <p>The task contains a shuffled mix of easy, medium and hard puzzles.</p> <p>You will have <strong>30 seconds</strong> to complete each puzzle.</p><br>",NA,NA,NA,NA,NA,NA,NA,NA,NA,3,6,"10,4,11,14,15,3,6,2,1,8,7,13,5,12,9"
15203,commdev-instructions,15,2440668,NA,1084.7000000476837,<p><strong>Success!</strong></p> <p>You seem to be getting the hang of this...</p> <p>Let's move on to the real trials.</p><br>,NA,NA,NA,NA,NA,NA,NA,NA,NA,3,6,"10,4,11,14,15,3,6,2,1,8,7,13,5,12,9"
15203,commdev-instructions,145,2934014,NA,1178.4000000953674,"<p>In this game, you are a scientist on board a space shuttle. </p><p> On each mission, you will visit planets all across the universe.</p><img src=""img/controlroom.jpg"" width=300vw>",NA,NA,NA,NA,NA,NA,NA,NA,NA,3,6,"10,4,11,14,15,3,6,2,1,8,7,13,5,12,9"
15203,commdev-instructions,146,2937141,NA,1055.4000000953674,"<p>Here are a few planets you might see:</p><img src=""img/practice1.png"" width=200vw><img src=""img/practice2.png"" width=200vw><img src=""img/practice3.png"" width=200vw>",NA,NA,NA,NA,NA,NA,NA,NA,NA,3,6,"10,4,11,14,15,3,6,2,1,8,7,13,5,12,9"
15203,commdev-instructions,147,2945013,NA,467.90000009536743,"<p>Your job as a scientist is to record which direction the winds are moving on each planet.</p><p>There are two types of wind directions:</p><img src=""img/practice1_left.png"" width=200vw><img src=""img/practice1_right.png"" width=200vw>",NA,NA,NA,NA,NA,NA,NA,NA,NA,3,6,"10,4,11,14,15,3,6,2,1,8,7,13,5,12,9"
15203,commdev-instructions,148,2951077,NA,1181.7000000476837,"<p>If the winds are moving this way, press the letter <strong>F</strong> on the keyboard as fast as you can.</p><img src=""img/leftwind.png"" width=250vw>",NA,NA,NA,NA,NA,NA,NA,NA,NA,3,6,"10,4,11,14,15,3,6,2,1,8,7,13,5,12,9"
15203,commdev-instructions,149,2956357,NA,781.2999999523163,"<p>If the winds are moving this way, press the letter <strong>J</strong> on the keyboard as fast as you can.</p><img src=""img/rightwind.png"" width=350vw>",NA,NA,NA,NA,NA,NA,NA,NA,NA,3,6,"10,4,11,14,15,3,6,2,1,8,7,13,5,12,9"
15203,commdev-instructions,150,2961605,NA,819.9000000953674,<p>You will have 1 second to respond. Try to respond before the time runs out!,NA,NA,NA,NA,NA,NA,NA,NA,NA,3,6,"10,4,11,14,15,3,6,2,1,8,7,13,5,12,9"
15203,commdev-instructions,151,2967469,NA,414.2999999523163,<p>The planets you will visit will look different from each other.</p><p>You should respond <strong>only</strong> based on wind direction.,NA,NA,NA,NA,NA,NA,NA,NA,NA,3,6,"10,4,11,14,15,3,6,2,1,8,7,13,5,12,9"
15203,commdev-instructions,152,2973726,NA,1080.4000000953674,"<p> Ready to start the practice round? </p><p> Remember, press <strong>F</strong> or <strong>J</strong> depending on the wind direction.<br><img src=""img/categorize_planet_example.png""",NA,NA,NA,NA,NA,NA,NA,NA,NA,3,6,"10,4,11,14,15,3,6,2,1,8,7,13,5,12,9"
15203,commdev-instructions,164,3027525,NA,993.2999999523163,"<p>Great, now try a short practice mission. </p><p> This time, you will have 1 second to respond and you won't know whether you pressed the right or wrong key for each planet.</p>",NA,NA,NA,NA,NA,NA,NA,NA,NA,3,6,"10,4,11,14,15,3,6,2,1,8,7,13,5,12,9"
15203,commdev-image-keyboard-response,165,3028901,practice,1142.0999999046326,img/practice2_left.png,NA,Number not found in mappings,NA,TRUE,f,f,NA,NA,NA,3,6,"10,4,11,14,15,3,6,2,1,8,7,13,5,12,9"
15203,commdev-image-keyboard-response,166,3030162,practice,629,img/practice1_right.png,NA,Number not found in mappings,NA,TRUE,j,j,NA,NA,NA,3,6,"10,4,11,14,15,3,6,2,1,8,7,13,5,12,9"
15203,commdev-image-keyboard-response,167,3031414,practice,776.6000001430511,img/practice3_right.png,NA,Number not found in mappings,NA,TRUE,j,j,NA,NA,NA,3,6,"10,4,11,14,15,3,6,2,1,8,7,13,5,12,9"
15203,commdev-image-keyboard-response,168,3032677,practice,804.3000001907349,img/practice2_left.png,NA,Number not found in mappings,NA,TRUE,f,f,NA,NA,NA,3,6,"10,4,11,14,15,3,6,2,1,8,7,13,5,12,9"
15203,commdev-image-keyboard-response,169,3033930,practice,685.5,img/practice1_right.png,NA,Number not found in mappings,NA,TRUE,j,j,NA,NA,NA,3,6,"10,4,11,14,15,3,6,2,1,8,7,13,5,12,9"
15203,commdev-image-keyboard-response,170,3035184,practice,624.5,img/practice2_left.png,NA,Number not found in mappings,NA,TRUE,f,f,NA,NA,NA,3,6,"10,4,11,14,15,3,6,2,1,8,7,13,5,12,9"
15203,commdev-image-keyboard-response,171,3036442,practice,522.2999999523163,img/practice1_left.png,NA,Number not found in mappings,NA,TRUE,f,f,NA,NA,NA,3,6,"10,4,11,14,15,3,6,2,1,8,7,13,5,12,9"
15203,commdev-image-keyboard-response,172,3037700,practice,680.7000000476837,img/practice3_left.png,NA,Number not found in mappings,NA,TRUE,f,f,NA,NA,NA,3,6,"10,4,11,14,15,3,6,2,1,8,7,13,5,12,9"
15203,commdev-instructions,173,3047733,NA,471.2000000476837,"<p>Great job with the practice round.</p><p>During real missions, you won't know whether you pressed the right or wrong key for each planet.</p><p>But between missions, we will tell you how you did overall.</p>",NA,NA,NA,NA,NA,NA,NA,NA,NA,3,6,"10,4,11,14,15,3,6,2,1,8,7,13,5,12,9"
15203,commdev-instructions,174,3056565,NA,573.5999999046326,<p>Try your best! You will be paid a bonus based on how many correct responses you make!</p><p>Responses that are too slow will not count toward your bonus.</p>,NA,NA,NA,NA,NA,NA,NA,NA,NA,3,6,"10,4,11,14,15,3,6,2,1,8,7,13,5,12,9"
15203,commdev-instructions,175,3063285,NA,503.5,"<p>You are almost ready to start the real game.</p><p> First, we are going to ask you some questions about how the game works.</p>",NA,NA,NA,NA,NA,NA,NA,NA,NA,3,6,"10,4,11,14,15,3,6,2,1,8,7,13,5,12,9"
15203,commdev-instructions,184,3139635,NA,2352.5,"<p> Nice work! It is now time to start the real game.<p></p>You will go on two missions to record wind directions of different planets.<p></p>Each one will take about 5 minutes. You will get to take a break between missions.<p><p> Remember, press <strong>F</strong> or <strong>J</strong> depending on the wind direction. Good luck!<br><img src=""img/categorize_planet_example.png""",NA,NA,NA,NA,NA,NA,NA,NA,NA,3,6,"10,4,11,14,15,3,6,2,1,8,7,13,5,12,9"
15203,commdev-image-keyboard-response,186,3145188,learnblock1,899.5,img/planet12_right.png,12,Community 3,NA,TRUE,j,j,NA,NA,NA,3,6,"10,4,11,14,15,3,6,2,1,8,7,13,5,12,9"
15203,commdev-image-keyboard-response,187,3146453,learnblock1,823.2000000476837,img/planet7_right.png,7,Community 3,NA,TRUE,j,j,NA,NA,NA,3,6,"10,4,11,14,15,3,6,2,1,8,7,13,5,12,9"
15203,commdev-image-keyboard-response,188,3147713,learnblock1,589.7999999523163,img/planet5_left.png,5,Community 3,NA,TRUE,f,f,NA,NA,NA,3,6,"10,4,11,14,15,3,6,2,1,8,7,13,5,12,9"
15203,commdev-image-keyboard-response,189,3148971,learnblock1,874.3999998569489,img/planet7_right.png,7,Community 3,NA,TRUE,j,j,NA,NA,NA,3,6,"10,4,11,14,15,3,6,2,1,8,7,13,5,12,9"
15203,commdev-image-keyboard-response,190,3150237,learnblock1,680.2000000476837,img/planet5_right.png,5,Community 3,NA,TRUE,j,j,NA,NA,NA,3,6,"10,4,11,14,15,3,6,2,1,8,7,13,5,12,9"
15203,commdev-image-keyboard-response,191,3151493,learnblock1,701.6000001430511,img/planet7_left.png,7,Community 3,NA,TRUE,f,f,NA,NA,NA,3,6,"10,4,11,14,15,3,6,2,1,8,7,13,5,12,9"
15203,commdev-image-keyboard-response,192,3152760,learnblock1,550.5,img/planet12_right.png,12,Community 3,NA,TRUE,j,j,NA,NA,NA,3,6,"10,4,11,14,15,3,6,2,1,8,7,13,5,12,9"
15203,commdev-image-keyboard-response,193,3154017,learnblock1,667,img/planet13_right.png,13,Community 3,NA,TRUE,j,j,NA,NA,NA,3,6,"10,4,11,14,15,3,6,2,1,8,7,13,5,12,9"
15203,commdev-image-keyboard-response,194,3155280,learnblock1,610.7000000476837,img/planet9_left.png,9,Community 3,NA,TRUE,f,f,NA,NA,NA,3,6,"10,4,11,14,15,3,6,2,1,8,7,13,5,12,9"
15203,commdev-image-keyboard-response,195,3156544,learnblock1,723.0999999046326,img/planet13_left.png,13,Community 3,NA,TRUE,f,f,NA,NA,NA,3,6,"10,4,11,14,15,3,6,2,1,8,7,13,5,12,9"
15203,commdev-image-keyboard-response,196,3157807,learnblock1,610.7000000476837,img/planet2_right.png,2,Community 2,NA,TRUE,j,j,NA,NA,NA,3,6,"10,4,11,14,15,3,6,2,1,8,7,13,5,12,9"
15203,commdev-image-keyboard-response,197,3159070,learnblock1,644.0999999046326,img/planet1_right.png,1,Community 2,NA,TRUE,j,j,NA,NA,NA,3,6,"10,4,11,14,15,3,6,2,1,8,7,13,5,12,9"
15203,commdev-image-keyboard-response,198,3160334,learnblock1,701.5999999046326,img/planet3_left.png,3,Community 2,NA,TRUE,f,f,NA,NA,NA,3,6,"10,4,11,14,15,3,6,2,1,8,7,13,5,12,9"
15203,commdev-image-keyboard-response,199,3161596,learnblock1,748.8000001907349,img/planet6_left.png,6,Community 2,NA,TRUE,f,f,NA,NA,NA,3,6,"10,4,11,14,15,3,6,2,1,8,7,13,5,12,9"
15203,commdev-image-keyboard-response,200,3162862,learnblock1,734.7999999523163,img/planet3_right.png,3,Community 2,NA,TRUE,j,j,NA,NA,NA,3,6,"10,4,11,14,15,3,6,2,1,8,7,13,5,12,9"
15203,commdev-image-keyboard-response,201,3164129,learnblock1,637.5,img/planet6_right.png,6,Community 2,NA,TRUE,j,j,NA,NA,NA,3,6,"10,4,11,14,15,3,6,2,1,8,7,13,5,12,9"
15203,commdev-image-keyboard-response,202,3165383,learnblock1,634.7999999523163,img/planet3_left.png,3,Community 2,NA,TRUE,f,f,NA,NA,NA,3,6,"10,4,11,14,15,3,6,2,1,8,7,13,5,12,9"
15203,commdev-image-keyboard-response,203,3166645,learnblock1,700.1999998092651,img/planet6_right.png,6,Community 2,NA,TRUE,j,j,NA,NA,NA,3,6,"10,4,11,14,15,3,6,2,1,8,7,13,5,12,9"
15203,commdev-image-keyboard-response,204,3167897,learnblock1,542.4000000953674,img/planet1_left.png,1,Community 2,NA,TRUE,f,f,NA,NA,NA,3,6,"10,4,11,14,15,3,6,2,1,8,7,13,5,12,9"
15203,commdev-image-keyboard-response,205,3169150,learnblock1,529.7000000476837,img/planet2_right.png,2,Community 2,NA,TRUE,j,j,NA,NA,NA,3,6,"10,4,11,14,15,3,6,2,1,8,7,13,5,12,9"
15203,commdev-image-keyboard-response,206,3170403,learnblock1,541,img/planet1_left.png,1,Community 2,NA,TRUE,f,f,NA,NA,NA,3,6,"10,4,11,14,15,3,6,2,1,8,7,13,5,12,9"
15203,commdev-image-keyboard-response,207,3171656,learnblock1,488.5,img/planet3_right.png,3,Community 2,NA,TRUE,j,j,NA,NA,NA,3,6,"10,4,11,14,15,3,6,2,1,8,7,13,5,12,9"
15203,commdev-image-keyboard-response,208,3172909,learnblock1,715.2000000476837,img/planet14_right.png,14,Community 1,NA,TRUE,j,j,NA,NA,NA,3,6,"10,4,11,14,15,3,6,2,1,8,7,13,5,12,9"
15203,commdev-image-keyboard-response,209,3174161,learnblock1,null,img/planet3_right.png,3,Community 2,NA,FALSE,null,j,NA,NA,NA,3,6,"10,4,11,14,15,3,6,2,1,8,7,13,5,12,9"
15203,commdev-image-keyboard-response,210,3175414,learnblock1,34.39999985694885,img/planet1_right.png,1,Community 2,NA,TRUE,j,j,NA,NA,NA,3,6,"10,4,11,14,15,3,6,2,1,8,7,13,5,12,9"
15203,commdev-image-keyboard-response,211,3176667,learnblock1,708.8999998569489,img/planet6_right.png,6,Community 2,NA,TRUE,j,j,NA,NA,NA,3,6,"10,4,11,14,15,3,6,2,1,8,7,13,5,12,9"
15203,commdev-image-keyboard-response,212,3177919,learnblock1,664.2000000476837,img/planet8_left.png,8,Community 2,NA,TRUE,f,f,NA,NA,NA,3,6,"10,4,11,14,15,3,6,2,1,8,7,13,5,12,9"
15203,commdev-image-keyboard-response,213,3179171,learnblock1,683.8999998569489,img/planet3_left.png,3,Community 2,NA,TRUE,f,f,NA,NA,NA,3,6,"10,4,11,14,15,3,6,2,1,8,7,13,5,12,9"
15203,commdev-image-keyboard-response,214,3180424,learnblock1,607.2000000476837,img/planet6_right.png,6,Community 2,NA,TRUE,j,j,NA,NA,NA,3,6,"10,4,11,14,15,3,6,2,1,8,7,13,5,12,9"
15203,commdev-image-keyboard-response,215,3181677,learnblock1,507.60000014305115,img/planet3_right.png,3,Community 2,NA,TRUE,j,j,NA,NA,NA,3,6,"10,4,11,14,15,3,6,2,1,8,7,13,5,12,9"
15203,commdev-image-keyboard-response,216,3182929,learnblock1,541.7000000476837,img/planet6_right.png,6,Community 2,NA,TRUE,j,j,NA,NA,NA,3,6,"10,4,11,14,15,3,6,2,1,8,7,13,5,12,9"
15203,commdev-image-keyboard-response,217,3184182,learnblock1,633,img/planet3_right.png,3,Community 2,NA,TRUE,j,j,NA,NA,NA,3,6,"10,4,11,14,15,3,6,2,1,8,7,13,5,12,9"
15203,commdev-image-keyboard-response,218,3185435,learnblock1,668.2999999523163,img/planet14_left.png,14,Community 1,NA,TRUE,f,f,NA,NA,NA,3,6,"10,4,11,14,15,3,6,2,1,8,7,13,5,12,9"
15203,commdev-image-keyboard-response,219,3186688,learnblock1,639.3999998569489,img/planet10_left.png,10,Community 1,NA,TRUE,f,f,NA,NA,NA,3,6,"10,4,11,14,15,3,6,2,1,8,7,13,5,12,9"
15203,commdev-image-keyboard-response,220,3187941,learnblock1,610.9000000953674,img/planet4_right.png,4,Community 1,NA,TRUE,j,j,NA,NA,NA,3,6,"10,4,11,14,15,3,6,2,1,8,7,13,5,12,9"
15203,commdev-image-keyboard-response,221,3189194,learnblock1,541.7000000476837,img/planet11_left.png,11,Community 1,NA,TRUE,f,f,NA,NA,NA,3,6,"10,4,11,14,15,3,6,2,1,8,7,13,5,12,9"
15203,commdev-image-keyboard-response,222,3190446,learnblock1,544.2999999523163,img/planet4_left.png,4,Community 1,NA,FALSE,j,f,NA,NA,NA,3,6,"10,4,11,14,15,3,6,2,1,8,7,13,5,12,9"
15203,commdev-image-keyboard-response,223,3191699,learnblock1,685.4000000953674,img/planet10_left.png,10,Community 1,NA,TRUE,f,f,NA,NA,NA,3,6,"10,4,11,14,15,3,6,2,1,8,7,13,5,12,9"
15203,commdev-image-keyboard-response,224,3192952,learnblock1,662.5,img/planet11_right.png,11,Community 1,NA,TRUE,j,j,NA,NA,NA,3,6,"10,4,11,14,15,3,6,2,1,8,7,13,5,12,9"
15203,commdev-image-keyboard-response,225,3194204,learnblock1,699.4000000953674,img/planet14_right.png,14,Community 1,NA,TRUE,j,j,NA,NA,NA,3,6,"10,4,11,14,15,3,6,2,1,8,7,13,5,12,9"
15203,commdev-image-keyboard-response,226,3195457,learnblock1,646.0999999046326,img/planet11_left.png,11,Community 1,NA,TRUE,f,f,NA,NA,NA,3,6,"10,4,11,14,15,3,6,2,1,8,7,13,5,12,9"
15203,commdev-image-keyboard-response,227,3196710,learnblock1,625.7000000476837,img/planet10_right.png,10,Community 1,NA,TRUE,j,j,NA,NA,NA,3,6,"10,4,11,14,15,3,6,2,1,8,7,13,5,12,9"
15203,commdev-image-keyboard-response,228,3197962,learnblock1,660.3999998569489,img/planet4_right.png,4,Community 1,NA,TRUE,j,j,NA,NA,NA,3,6,"10,4,11,14,15,3,6,2,1,8,7,13,5,12,9"
15203,commdev-image-keyboard-response,229,3199215,learnblock1,655.7000000476837,img/planet15_right.png,15,Community 1,NA,TRUE,j,j,NA,NA,NA,3,6,"10,4,11,14,15,3,6,2,1,8,7,13,5,12,9"
15203,commdev-image-keyboard-response,230,3200475,learnblock1,676.2999999523163,img/planet11_right.png,11,Community 1,NA,TRUE,j,j,NA,NA,NA,3,6,"10,4,11,14,15,3,6,2,1,8,7,13,5,12,9"
15203,commdev-image-keyboard-response,231,3201727,learnblock1,559.6000001430511,img/planet10_left.png,10,Community 1,NA,TRUE,f,f,NA,NA,NA,3,6,"10,4,11,14,15,3,6,2,1,8,7,13,5,12,9"
15203,commdev-image-keyboard-response,232,3202980,learnblock1,651.9000000953674,img/planet14_right.png,14,Community 1,NA,TRUE,j,j,NA,NA,NA,3,6,"10,4,11,14,15,3,6,2,1,8,7,13,5,12,9"
15203,commdev-image-keyboard-response,233,3204234,learnblock1,630.7999999523163,img/planet11_left.png,11,Community 1,NA,TRUE,f,f,NA,NA,NA,3,6,"10,4,11,14,15,3,6,2,1,8,7,13,5,12,9"
15203,commdev-image-keyboard-response,234,3205486,learnblock1,537.4000000953674,img/planet14_right.png,14,Community 1,NA,TRUE,j,j,NA,NA,NA,3,6,"10,4,11,14,15,3,6,2,1,8,7,13,5,12,9"
15203,commdev-image-keyboard-response,235,3206739,learnblock1,532.5999999046326,img/planet11_left.png,11,Community 1,NA,TRUE,f,f,NA,NA,NA,3,6,"10,4,11,14,15,3,6,2,1,8,7,13,5,12,9"
15203,commdev-image-keyboard-response,236,3207992,learnblock1,528,img/planet15_right.png,15,Community 1,NA,TRUE,j,j,NA,NA,NA,3,6,"10,4,11,14,15,3,6,2,1,8,7,13,5,12,9"
15203,commdev-image-keyboard-response,237,3209244,learnblock1,682.8000001907349,img/planet11_left.png,11,Community 1,NA,TRUE,f,f,NA,NA,NA,3,6,"10,4,11,14,15,3,6,2,1,8,7,13,5,12,9"
15203,commdev-image-keyboard-response,238,3210497,learnblock1,630.5999999046326,img/planet4_left.png,4,Community 1,NA,TRUE,f,f,NA,NA,NA,3,6,"10,4,11,14,15,3,6,2,1,8,7,13,5,12,9"
15203,commdev-image-keyboard-response,239,3211750,learnblock1,697.9000000953674,img/planet11_right.png,11,Community 1,NA,TRUE,j,j,NA,NA,NA,3,6,"10,4,11,14,15,3,6,2,1,8,7,13,5,12,9"
15203,commdev-image-keyboard-response,240,3213002,learnblock1,637.5,img/planet14_left.png,14,Community 1,NA,TRUE,f,f,NA,NA,NA,3,6,"10,4,11,14,15,3,6,2,1,8,7,13,5,12,9"
15203,commdev-image-keyboard-response,241,3214254,learnblock1,681.5,img/planet4_left.png,4,Community 1,NA,TRUE,f,f,NA,NA,NA,3,6,"10,4,11,14,15,3,6,2,1,8,7,13,5,12,9"
15203,commdev-image-keyboard-response,242,3215507,learnblock1,756.6000001430511,img/planet15_left.png,15,Community 1,NA,TRUE,f,f,NA,NA,NA,3,6,"10,4,11,14,15,3,6,2,1,8,7,13,5,12,9"
15203,commdev-image-keyboard-response,243,3216760,learnblock1,775.2999999523163,img/planet7_right.png,7,Community 3,NA,TRUE,j,j,NA,NA,NA,3,6,"10,4,11,14,15,3,6,2,1,8,7,13,5,12,9"
15203,commdev-image-keyboard-response,244,3218014,learnblock1,642.3999998569489,img/planet15_right.png,15,Community 1,NA,TRUE,j,j,NA,NA,NA,3,6,"10,4,11,14,15,3,6,2,1,8,7,13,5,12,9"
15203,commdev-image-keyboard-response,245,3219266,learnblock1,565.2000000476837,img/planet10_right.png,10,Community 1,NA,TRUE,j,j,NA,NA,NA,3,6,"10,4,11,14,15,3,6,2,1,8,7,13,5,12,9"
15203,commdev-image-keyboard-response,246,3220519,learnblock1,528.3999998569489,img/planet14_right.png,14,Community 1,NA,TRUE,j,j,NA,NA,NA,3,6,"10,4,11,14,15,3,6,2,1,8,7,13,5,12,9"
15203,commdev-image-keyboard-response,247,3221772,learnblock1,532.0999999046326,img/planet3_right.png,3,Community 2,NA,TRUE,j,j,NA,NA,NA,3,6,"10,4,11,14,15,3,6,2,1,8,7,13,5,12,9"
15203,commdev-image-keyboard-response,248,3223025,learnblock1,502.69999980926514,img/planet1_left.png,1,Community 2,NA,TRUE,f,f,NA,NA,NA,3,6,"10,4,11,14,15,3,6,2,1,8,7,13,5,12,9"
15203,commdev-image-keyboard-response,249,3224278,learnblock1,674.2000000476837,img/planet6_left.png,6,Community 2,NA,TRUE,f,f,NA,NA,NA,3,6,"10,4,11,14,15,3,6,2,1,8,7,13,5,12,9"
15203,commdev-image-keyboard-response,250,3225531,learnblock1,669.1999998092651,img/planet8_left.png,8,Community 2,NA,TRUE,f,f,NA,NA,NA,3,6,"10,4,11,14,15,3,6,2,1,8,7,13,5,12,9"
15203,commdev-image-keyboard-response,251,3226785,learnblock1,711.0999999046326,img/planet3_right.png,3,Community 2,NA,TRUE,j,j,NA,NA,NA,3,6,"10,4,11,14,15,3,6,2,1,8,7,13,5,12,9"
15203,commdev-image-keyboard-response,252,3228037,learnblock1,641.9000000953674,img/planet14_right.png,14,Community 1,NA,TRUE,j,j,NA,NA,NA,3,6,"10,4,11,14,15,3,6,2,1,8,7,13,5,12,9"
15203,commdev-image-keyboard-response,253,3229290,learnblock1,701.5999999046326,img/planet4_right.png,4,Community 1,NA,TRUE,j,j,NA,NA,NA,3,6,"10,4,11,14,15,3,6,2,1,8,7,13,5,12,9"
15203,commdev-image-keyboard-response,254,3230543,learnblock1,777.4000000953674,img/planet15_left.png,15,Community 1,NA,TRUE,f,f,NA,NA,NA,3,6,"10,4,11,14,15,3,6,2,1,8,7,13,5,12,9"
15203,commdev-image-keyboard-response,255,3231802,learnblock1,708.3999998569489,img/planet11_left.png,11,Community 1,NA,TRUE,f,f,NA,NA,NA,3,6,"10,4,11,14,15,3,6,2,1,8,7,13,5,12,9"
15203,commdev-image-keyboard-response,256,3233056,learnblock1,713,img/planet4_left.png,4,Community 1,NA,TRUE,f,f,NA,NA,NA,3,6,"10,4,11,14,15,3,6,2,1,8,7,13,5,12,9"
15203,commdev-image-keyboard-response,257,3234309,learnblock1,603.2999999523163,img/planet10_left.png,10,Community 1,NA,TRUE,f,f,NA,NA,NA,3,6,"10,4,11,14,15,3,6,2,1,8,7,13,5,12,9"
15203,commdev-image-keyboard-response,258,3235561,learnblock1,613.5,img/planet14_left.png,14,Community 1,NA,TRUE,f,f,NA,NA,NA,3,6,"10,4,11,14,15,3,6,2,1,8,7,13,5,12,9"
15203,commdev-image-keyboard-response,259,3236814,learnblock1,530.0999999046326,img/planet3_left.png,3,Community 2,NA,TRUE,f,f,NA,NA,NA,3,6,"10,4,11,14,15,3,6,2,1,8,7,13,5,12,9"
15203,commdev-image-keyboard-response,260,3238066,learnblock1,517.7000000476837,img/planet1_right.png,1,Community 2,NA,TRUE,j,j,NA,NA,NA,3,6,"10,4,11,14,15,3,6,2,1,8,7,13,5,12,9"
15203,commdev-image-keyboard-response,261,3239319,learnblock1,576.6999998092651,img/planet8_left.png,8,Community 2,NA,FALSE,j,f,NA,NA,NA,3,6,"10,4,11,14,15,3,6,2,1,8,7,13,5,12,9"
15203,commdev-image-keyboard-response,262,3240572,learnblock1,779.7999999523163,img/planet3_right.png,3,Community 2,NA,TRUE,j,j,NA,NA,NA,3,6,"10,4,11,14,15,3,6,2,1,8,7,13,5,12,9"
15203,commdev-image-keyboard-response,263,3241825,learnblock1,719.0999999046326,img/planet6_right.png,6,Community 2,NA,TRUE,j,j,NA,NA,NA,3,6,"10,4,11,14,15,3,6,2,1,8,7,13,5,12,9"
15203,commdev-image-keyboard-response,264,3243079,learnblock1,601.7999999523163,img/planet3_left.png,3,Community 2,NA,TRUE,f,f,NA,NA,NA,3,6,"10,4,11,14,15,3,6,2,1,8,7,13,5,12,9"
15203,commdev-image-keyboard-response,265,3244331,learnblock1,547.9000000953674,img/planet6_right.png,6,Community 2,NA,TRUE,j,j,NA,NA,NA,3,6,"10,4,11,14,15,3,6,2,1,8,7,13,5,12,9"
15203,commdev-image-keyboard-response,266,3245584,learnblock1,575.5999999046326,img/planet1_right.png,1,Community 2,NA,TRUE,j,j,NA,NA,NA,3,6,"10,4,11,14,15,3,6,2,1,8,7,13,5,12,9"
15203,commdev-image-keyboard-response,267,3246837,learnblock1,547.3000001907349,img/planet2_left.png,2,Community 2,NA,TRUE,f,f,NA,NA,NA,3,6,"10,4,11,14,15,3,6,2,1,8,7,13,5,12,9"
15203,commdev-image-keyboard-response,268,3248089,learnblock1,638,img/planet6_left.png,6,Community 2,NA,TRUE,f,f,NA,NA,NA,3,6,"10,4,11,14,15,3,6,2,1,8,7,13,5,12,9"
15203,commdev-image-keyboard-response,269,3249342,learnblock1,665.6999998092651,img/planet8_right.png,8,Community 2,NA,TRUE,j,j,NA,NA,NA,3,6,"10,4,11,14,15,3,6,2,1,8,7,13,5,12,9"
15203,commdev-image-keyboard-response,270,3250605,learnblock1,669.3999998569489,img/planet6_left.png,6,Community 2,NA,TRUE,f,f,NA,NA,NA,3,6,"10,4,11,14,15,3,6,2,1,8,7,13,5,12,9"
15203,commdev-image-keyboard-response,271,3251858,learnblock1,606.2999999523163,img/planet1_right.png,1,Community 2,NA,TRUE,j,j,NA,NA,NA,3,6,"10,4,11,14,15,3,6,2,1,8,7,13,5,12,9"
15203,commdev-image-keyboard-response,272,3253110,learnblock1,553.4000000953674,img/planet6_right.png,6,Community 2,NA,TRUE,j,j,NA,NA,NA,3,6,"10,4,11,14,15,3,6,2,1,8,7,13,5,12,9"
15203,commdev-image-keyboard-response,273,3254362,learnblock1,628.4000000953674,img/planet8_right.png,8,Community 2,NA,TRUE,j,j,NA,NA,NA,3,6,"10,4,11,14,15,3,6,2,1,8,7,13,5,12,9"
15203,commdev-image-keyboard-response,274,3255615,learnblock1,745.0999999046326,img/planet3_right.png,3,Community 2,NA,TRUE,j,j,NA,NA,NA,3,6,"10,4,11,14,15,3,6,2,1,8,7,13,5,12,9"
15203,commdev-image-keyboard-response,275,3256867,learnblock1,660.2000000476837,img/planet8_right.png,8,Community 2,NA,TRUE,j,j,NA,NA,NA,3,6,"10,4,11,14,15,3,6,2,1,8,7,13,5,12,9"
15203,commdev-image-keyboard-response,276,3258119,learnblock1,607.2999999523163,img/planet6_right.png,6,Community 2,NA,TRUE,j,j,NA,NA,NA,3,6,"10,4,11,14,15,3,6,2,1,8,7,13,5,12,9"
15203,commdev-image-keyboard-response,277,3259372,learnblock1,563.2000000476837,img/planet2_left.png,2,Community 2,NA,TRUE,f,f,NA,NA,NA,3,6,"10,4,11,14,15,3,6,2,1,8,7,13,5,12,9"
15203,commdev-image-keyboard-response,278,3260625,learnblock1,622.3999998569489,img/planet8_right.png,8,Community 2,NA,TRUE,j,j,NA,NA,NA,3,6,"10,4,11,14,15,3,6,2,1,8,7,13,5,12,9"
15203,commdev-image-keyboard-response,279,3261877,learnblock1,802,img/planet3_left.png,3,Community 2,NA,TRUE,f,f,NA,NA,NA,3,6,"10,4,11,14,15,3,6,2,1,8,7,13,5,12,9"
15203,commdev-image-keyboard-response,280,3263130,learnblock1,814.2999999523163,img/planet14_right.png,14,Community 1,NA,TRUE,j,j,NA,NA,NA,3,6,"10,4,11,14,15,3,6,2,1,8,7,13,5,12,9"
15203,commdev-image-keyboard-response,281,3264382,learnblock1,641.5,img/planet10_right.png,10,Community 1,NA,FALSE,f,j,NA,NA,NA,3,6,"10,4,11,14,15,3,6,2,1,8,7,13,5,12,9"
15203,commdev-image-keyboard-response,282,3265635,learnblock1,740.0999999046326,img/planet15_right.png,15,Community 1,NA,TRUE,j,j,NA,NA,NA,3,6,"10,4,11,14,15,3,6,2,1,8,7,13,5,12,9"
15203,commdev-image-keyboard-response,283,3266888,learnblock1,654.7000000476837,img/planet7_right.png,7,Community 3,NA,TRUE,j,j,NA,NA,NA,3,6,"10,4,11,14,15,3,6,2,1,8,7,13,5,12,9"
15203,commdev-image-keyboard-response,284,3268140,learnblock1,827,img/planet9_right.png,9,Community 3,NA,TRUE,j,j,NA,NA,NA,3,6,"10,4,11,14,15,3,6,2,1,8,7,13,5,12,9"
15203,commdev-image-keyboard-response,285,3269392,learnblock1,686.5999999046326,img/planet7_right.png,7,Community 3,NA,TRUE,j,j,NA,NA,NA,3,6,"10,4,11,14,15,3,6,2,1,8,7,13,5,12,9"
15203,commdev-image-keyboard-response,286,3270645,learnblock1,1042.8000001907349,img/planet15_right.png,15,Community 1,NA,TRUE,j,j,NA,NA,NA,3,6,"10,4,11,14,15,3,6,2,1,8,7,13,5,12,9"
15203,commdev-image-keyboard-response,287,3271898,learnblock1,925.5,img/planet7_right.png,7,Community 3,NA,TRUE,j,j,NA,NA,NA,3,6,"10,4,11,14,15,3,6,2,1,8,7,13,5,12,9"
15203,commdev-image-keyboard-response,288,3273150,learnblock1,705.2999999523163,img/planet12_left.png,12,Community 3,NA,TRUE,f,f,NA,NA,NA,3,6,"10,4,11,14,15,3,6,2,1,8,7,13,5,12,9"
15203,commdev-image-keyboard-response,289,3274402,learnblock1,701,img/planet9_right.png,9,Community 3,NA,TRUE,j,j,NA,NA,NA,3,6,"10,4,11,14,15,3,6,2,1,8,7,13,5,12,9"
15203,commdev-image-keyboard-response,290,3275655,learnblock1,624.5999999046326,img/planet7_left.png,7,Community 3,NA,TRUE,f,f,NA,NA,NA,3,6,"10,4,11,14,15,3,6,2,1,8,7,13,5,12,9"
15203,commdev-image-keyboard-response,291,3276908,learnblock1,603.7000000476837,img/planet5_right.png,5,Community 3,NA,TRUE,j,j,NA,NA,NA,3,6,"10,4,11,14,15,3,6,2,1,8,7,13,5,12,9"
15203,commdev-image-keyboard-response,292,3278160,learnblock1,607.6999998092651,img/planet13_left.png,13,Community 3,NA,TRUE,f,f,NA,NA,NA,3,6,"10,4,11,14,15,3,6,2,1,8,7,13,5,12,9"
15203,commdev-image-keyboard-response,293,3279412,learnblock1,555.5,img/planet12_right.png,12,Community 3,NA,TRUE,j,j,NA,NA,NA,3,6,"10,4,11,14,15,3,6,2,1,8,7,13,5,12,9"
15203,commdev-image-keyboard-response,294,3280665,learnblock1,532.8999998569489,img/planet9_left.png,9,Community 3,NA,TRUE,f,f,NA,NA,NA,3,6,"10,4,11,14,15,3,6,2,1,8,7,13,5,12,9"
15203,commdev-image-keyboard-response,295,3281918,learnblock1,441.40000009536743,img/planet5_left.png,5,Community 3,NA,FALSE,j,f,NA,NA,NA,3,6,"10,4,11,14,15,3,6,2,1,8,7,13,5,12,9"
15203,commdev-image-keyboard-response,296,3283171,learnblock1,621.1000001430511,img/planet12_left.png,12,Community 3,NA,TRUE,f,f,NA,NA,NA,3,6,"10,4,11,14,15,3,6,2,1,8,7,13,5,12,9"
15203,commdev-image-keyboard-response,297,3284423,learnblock1,576.0999999046326,img/planet9_left.png,9,Community 3,NA,TRUE,f,f,NA,NA,NA,3,6,"10,4,11,14,15,3,6,2,1,8,7,13,5,12,9"
15203,commdev-image-keyboard-response,298,3285675,learnblock1,572.0999999046326,img/planet13_left.png,13,Community 3,NA,TRUE,f,f,NA,NA,NA,3,6,"10,4,11,14,15,3,6,2,1,8,7,13,5,12,9"
15203,commdev-image-keyboard-response,299,3286927,learnblock1,544.3000001907349,img/planet12_left.png,12,Community 3,NA,TRUE,f,f,NA,NA,NA,3,6,"10,4,11,14,15,3,6,2,1,8,7,13,5,12,9"
15203,commdev-image-keyboard-response,300,3288180,learnblock1,828.2999999523163,img/planet7_right.png,7,Community 3,NA,TRUE,j,j,NA,NA,NA,3,6,"10,4,11,14,15,3,6,2,1,8,7,13,5,12,9"
15203,commdev-image-keyboard-response,301,3289433,learnblock1,790.4000000953674,img/planet9_left.png,9,Community 3,NA,TRUE,f,f,NA,NA,NA,3,6,"10,4,11,14,15,3,6,2,1,8,7,13,5,12,9"
15203,commdev-image-keyboard-response,302,3290685,learnblock1,674.8000001907349,img/planet5_right.png,5,Community 3,NA,TRUE,j,j,NA,NA,NA,3,6,"10,4,11,14,15,3,6,2,1,8,7,13,5,12,9"
15203,commdev-image-keyboard-response,303,3291937,learnblock1,670.2999999523163,img/planet9_left.png,9,Community 3,NA,TRUE,f,f,NA,NA,NA,3,6,"10,4,11,14,15,3,6,2,1,8,7,13,5,12,9"
15203,commdev-image-keyboard-response,304,3293189,learnblock1,856.5999999046326,img/planet7_right.png,7,Community 3,NA,TRUE,j,j,NA,NA,NA,3,6,"10,4,11,14,15,3,6,2,1,8,7,13,5,12,9"
15203,commdev-image-keyboard-response,305,3294442,learnblock1,613.9000000953674,img/planet15_right.png,15,Community 1,NA,FALSE,f,j,NA,NA,NA,3,6,"10,4,11,14,15,3,6,2,1,8,7,13,5,12,9"
15203,commdev-image-keyboard-response,306,3295695,learnblock1,912.0999999046326,img/planet10_right.png,10,Community 1,NA,FALSE,f,j,NA,NA,NA,3,6,"10,4,11,14,15,3,6,2,1,8,7,13,5,12,9"
15203,commdev-image-keyboard-response,307,3296948,learnblock1,null,img/planet11_left.png,11,Community 1,NA,FALSE,null,f,NA,NA,NA,3,6,"10,4,11,14,15,3,6,2,1,8,7,13,5,12,9"
15203,commdev-image-keyboard-response,308,3298201,learnblock1,847.3999998569489,img/planet15_right.png,15,Community 1,NA,TRUE,j,j,NA,NA,NA,3,6,"10,4,11,14,15,3,6,2,1,8,7,13,5,12,9"
15203,commdev-image-keyboard-response,309,3299453,learnblock1,794.1999998092651,img/planet10_right.png,10,Community 1,NA,TRUE,j,j,NA,NA,NA,3,6,"10,4,11,14,15,3,6,2,1,8,7,13,5,12,9"
15203,commdev-image-keyboard-response,310,3300705,learnblock1,645.2999999523163,img/planet11_right.png,11,Community 1,NA,TRUE,j,j,NA,NA,NA,3,6,"10,4,11,14,15,3,6,2,1,8,7,13,5,12,9"
15203,commdev-image-keyboard-response,311,3301958,learnblock1,657.2999999523163,img/planet14_right.png,14,Community 1,NA,TRUE,j,j,NA,NA,NA,3,6,"10,4,11,14,15,3,6,2,1,8,7,13,5,12,9"
15203,commdev-image-keyboard-response,312,3303211,learnblock1,692.7999999523163,img/planet4_right.png,4,Community 1,NA,TRUE,j,j,NA,NA,NA,3,6,"10,4,11,14,15,3,6,2,1,8,7,13,5,12,9"
15203,commdev-image-keyboard-response,313,3304464,learnblock1,991.5,img/planet11_right.png,11,Community 1,NA,TRUE,j,j,NA,NA,NA,3,6,"10,4,11,14,15,3,6,2,1,8,7,13,5,12,9"
15203,commdev-image-keyboard-response,314,3305717,learnblock1,906.8000001907349,img/planet10_right.png,10,Community 1,NA,TRUE,j,j,NA,NA,NA,3,6,"10,4,11,14,15,3,6,2,1,8,7,13,5,12,9"
15203,commdev-image-keyboard-response,315,3306969,learnblock1,1149.8999998569489,img/planet11_right.png,11,Community 1,NA,TRUE,j,j,NA,NA,NA,3,6,"10,4,11,14,15,3,6,2,1,8,7,13,5,12,9"
15203,commdev-image-keyboard-response,316,3308222,learnblock1,689.6000001430511,img/planet10_right.png,10,Community 1,NA,TRUE,j,j,NA,NA,NA,3,6,"10,4,11,14,15,3,6,2,1,8,7,13,5,12,9"
15203,commdev-image-keyboard-response,317,3309476,learnblock1,572.7999999523163,img/planet4_left.png,4,Community 1,NA,FALSE,j,f,NA,NA,NA,3,6,"10,4,11,14,15,3,6,2,1,8,7,13,5,12,9"
15203,commdev-image-keyboard-response,318,3310728,learnblock1,743.6000001430511,img/planet14_left.png,14,Community 1,NA,TRUE,f,f,NA,NA,NA,3,6,"10,4,11,14,15,3,6,2,1,8,7,13,5,12,9"
15203,commdev-image-keyboard-response,319,3311981,learnblock1,570.7999999523163,img/planet10_right.png,10,Community 1,NA,TRUE,j,j,NA,NA,NA,3,6,"10,4,11,14,15,3,6,2,1,8,7,13,5,12,9"
15203,commdev-image-keyboard-response,320,3313233,learnblock1,645.7999999523163,img/planet15_right.png,15,Community 1,NA,TRUE,j,j,NA,NA,NA,3,6,"10,4,11,14,15,3,6,2,1,8,7,13,5,12,9"
15203,commdev-image-keyboard-response,321,3314485,learnblock1,553.8999998569489,img/planet10_right.png,10,Community 1,NA,TRUE,j,j,NA,NA,NA,3,6,"10,4,11,14,15,3,6,2,1,8,7,13,5,12,9"
15203,commdev-image-keyboard-response,322,3315738,learnblock1,565.5,img/planet4_right.png,4,Community 1,NA,TRUE,j,j,NA,NA,NA,3,6,"10,4,11,14,15,3,6,2,1,8,7,13,5,12,9"
15203,commdev-image-keyboard-response,323,3316991,learnblock1,697.1999998092651,img/planet11_right.png,11,Community 1,NA,TRUE,j,j,NA,NA,NA,3,6,"10,4,11,14,15,3,6,2,1,8,7,13,5,12,9"
15203,commdev-image-keyboard-response,324,3318244,learnblock1,628.4000000953674,img/planet14_left.png,14,Community 1,NA,TRUE,f,f,NA,NA,NA,3,6,"10,4,11,14,15,3,6,2,1,8,7,13,5,12,9"
15203,commdev-image-keyboard-response,325,3319497,learnblock1,663.4000000953674,img/planet11_right.png,11,Community 1,NA,TRUE,j,j,NA,NA,NA,3,6,"10,4,11,14,15,3,6,2,1,8,7,13,5,12,9"
15203,commdev-image-keyboard-response,326,3320758,learnblock1,585.2999999523163,img/planet10_right.png,10,Community 1,NA,TRUE,j,j,NA,NA,NA,3,6,"10,4,11,14,15,3,6,2,1,8,7,13,5,12,9"
15203,commdev-image-keyboard-response,327,3322011,learnblock1,573.1999998092651,img/planet15_right.png,15,Community 1,NA,TRUE,j,j,NA,NA,NA,3,6,"10,4,11,14,15,3,6,2,1,8,7,13,5,12,9"
15203,commdev-image-keyboard-response,328,3323264,learnblock1,688.1999998092651,img/planet11_left.png,11,Community 1,NA,TRUE,f,f,NA,NA,NA,3,6,"10,4,11,14,15,3,6,2,1,8,7,13,5,12,9"
15203,commdev-image-keyboard-response,329,3324517,learnblock1,658.9000000953674,img/planet10_left.png,10,Community 1,NA,TRUE,f,f,NA,NA,NA,3,6,"10,4,11,14,15,3,6,2,1,8,7,13,5,12,9"
15203,commdev-image-keyboard-response,330,3325769,learnblock1,710.2999999523163,img/planet15_right.png,15,Community 1,NA,TRUE,j,j,NA,NA,NA,3,6,"10,4,11,14,15,3,6,2,1,8,7,13,5,12,9"
15203,commdev-image-keyboard-response,331,3327026,learnblock1,617.5,img/planet7_left.png,7,Community 3,NA,TRUE,f,f,NA,NA,NA,3,6,"10,4,11,14,15,3,6,2,1,8,7,13,5,12,9"
15203,commdev-image-keyboard-response,332,3328280,learnblock1,664.6000001430511,img/planet5_left.png,5,Community 3,NA,TRUE,f,f,NA,NA,NA,3,6,"10,4,11,14,15,3,6,2,1,8,7,13,5,12,9"
15203,commdev-image-keyboard-response,333,3329533,learnblock1,586.8999998569489,img/planet13_right.png,13,Community 3,NA,TRUE,j,j,NA,NA,NA,3,6,"10,4,11,14,15,3,6,2,1,8,7,13,5,12,9"
15203,commdev-image-keyboard-response,334,3330786,learnblock1,510.09999990463257,img/planet2_left.png,2,Community 2,NA,TRUE,f,f,NA,NA,NA,3,6,"10,4,11,14,15,3,6,2,1,8,7,13,5,12,9"
15203,commdev-image-keyboard-response,335,3332038,learnblock1,616.6000001430511,img/planet6_right.png,6,Community 2,NA,TRUE,j,j,NA,NA,NA,3,6,"10,4,11,14,15,3,6,2,1,8,7,13,5,12,9"
15203,commdev-image-keyboard-response,336,3333291,learnblock1,613.2000000476837,img/planet3_left.png,3,Community 2,NA,TRUE,f,f,NA,NA,NA,3,6,"10,4,11,14,15,3,6,2,1,8,7,13,5,12,9"
15203,commdev-image-keyboard-response,337,3334554,learnblock1,816,img/planet8_left.png,8,Community 2,NA,TRUE,f,f,NA,NA,NA,3,6,"10,4,11,14,15,3,6,2,1,8,7,13,5,12,9"
15203,commdev-image-keyboard-response,338,3335807,learnblock1,720.8999998569489,img/planet1_right.png,1,Community 2,NA,TRUE,j,j,NA,NA,NA,3,6,"10,4,11,14,15,3,6,2,1,8,7,13,5,12,9"
15203,commdev-image-keyboard-response,339,3337059,learnblock1,556.0999999046326,img/planet3_left.png,3,Community 2,NA,TRUE,f,f,NA,NA,NA,3,6,"10,4,11,14,15,3,6,2,1,8,7,13,5,12,9"
15203,commdev-image-keyboard-response,340,3338312,learnblock1,735.5999999046326,img/planet8_left.png,8,Community 2,NA,TRUE,f,f,NA,NA,NA,3,6,"10,4,11,14,15,3,6,2,1,8,7,13,5,12,9"
15203,commdev-image-keyboard-response,341,3339564,learnblock1,555.7999999523163,img/planet2_left.png,2,Community 2,NA,TRUE,f,f,NA,NA,NA,3,6,"10,4,11,14,15,3,6,2,1,8,7,13,5,12,9"
15203,commdev-image-keyboard-response,342,3340817,learnblock1,567.4000000953674,img/planet1_right.png,1,Community 2,NA,TRUE,j,j,NA,NA,NA,3,6,"10,4,11,14,15,3,6,2,1,8,7,13,5,12,9"
15203,commdev-image-keyboard-response,343,3342069,learnblock1,698.2999999523163,img/planet6_left.png,6,Community 2,NA,TRUE,f,f,NA,NA,NA,3,6,"10,4,11,14,15,3,6,2,1,8,7,13,5,12,9"
15203,commdev-image-keyboard-response,344,3343322,learnblock1,509.30000019073486,img/planet1_right.png,1,Community 2,NA,TRUE,j,j,NA,NA,NA,3,6,"10,4,11,14,15,3,6,2,1,8,7,13,5,12,9"
15203,commdev-image-keyboard-response,345,3344575,learnblock1,544.7999999523163,img/planet6_left.png,6,Community 2,NA,TRUE,f,f,NA,NA,NA,3,6,"10,4,11,14,15,3,6,2,1,8,7,13,5,12,9"
15203,commdev-image-keyboard-response,346,3345827,learnblock1,476.2999999523163,img/planet2_right.png,2,Community 2,NA,TRUE,j,j,NA,NA,NA,3,6,"10,4,11,14,15,3,6,2,1,8,7,13,5,12,9"
15203,commdev-image-keyboard-response,347,3347080,learnblock1,551.9000000953674,img/planet6_left.png,6,Community 2,NA,TRUE,f,f,NA,NA,NA,3,6,"10,4,11,14,15,3,6,2,1,8,7,13,5,12,9"
15203,commdev-image-keyboard-response,348,3348334,learnblock1,435.09999990463257,img/planet1_left.png,1,Community 2,NA,FALSE,j,f,NA,NA,NA,3,6,"10,4,11,14,15,3,6,2,1,8,7,13,5,12,9"
15203,commdev-image-keyboard-response,349,3349586,learnblock1,676.9000000953674,img/planet3_left.png,3,Community 2,NA,TRUE,f,f,NA,NA,NA,3,6,"10,4,11,14,15,3,6,2,1,8,7,13,5,12,9"
15203,commdev-image-keyboard-response,350,3350839,learnblock1,625.2000000476837,img/planet8_right.png,8,Community 2,NA,TRUE,j,j,NA,NA,NA,3,6,"10,4,11,14,15,3,6,2,1,8,7,13,5,12,9"
15203,commdev-image-keyboard-response,351,3352091,learnblock1,715.5,img/planet6_right.png,6,Community 2,NA,TRUE,j,j,NA,NA,NA,3,6,"10,4,11,14,15,3,6,2,1,8,7,13,5,12,9"
15203,commdev-image-keyboard-response,352,3353344,learnblock1,687.7000000476837,img/planet2_left.png,2,Community 2,NA,TRUE,f,f,NA,NA,NA,3,6,"10,4,11,14,15,3,6,2,1,8,7,13,5,12,9"
15203,commdev-image-keyboard-response,353,3354597,learnblock1,754.9000000953674,img/planet13_left.png,13,Community 3,NA,TRUE,f,f,NA,NA,NA,3,6,"10,4,11,14,15,3,6,2,1,8,7,13,5,12,9"
15203,commdev-image-keyboard-response,354,3355849,learnblock1,773.8999998569489,img/planet9_left.png,9,Community 3,NA,TRUE,f,f,NA,NA,NA,3,6,"10,4,11,14,15,3,6,2,1,8,7,13,5,12,9"
15203,commdev-image-keyboard-response,355,3357101,learnblock1,866.2000000476837,img/planet5_right.png,5,Community 3,NA,TRUE,j,j,NA,NA,NA,3,6,"10,4,11,14,15,3,6,2,1,8,7,13,5,12,9"
15203,commdev-image-keyboard-response,356,3358354,learnblock1,606,img/planet12_left.png,12,Community 3,NA,TRUE,f,f,NA,NA,NA,3,6,"10,4,11,14,15,3,6,2,1,8,7,13,5,12,9"
15203,commdev-image-keyboard-response,357,3359607,learnblock1,600.2999999523163,img/planet13_left.png,13,Community 3,NA,TRUE,f,f,NA,NA,NA,3,6,"10,4,11,14,15,3,6,2,1,8,7,13,5,12,9"
15203,commdev-image-keyboard-response,358,3360860,learnblock1,547.7999999523163,img/planet2_left.png,2,Community 2,NA,TRUE,f,f,NA,NA,NA,3,6,"10,4,11,14,15,3,6,2,1,8,7,13,5,12,9"
15203,commdev-image-keyboard-response,359,3362112,learnblock1,552,img/planet13_right.png,13,Community 3,NA,FALSE,f,j,NA,NA,NA,3,6,"10,4,11,14,15,3,6,2,1,8,7,13,5,12,9"
15203,commdev-image-keyboard-response,360,3363365,learnblock1,722.4000000953674,img/planet2_right.png,2,Community 2,NA,TRUE,j,j,NA,NA,NA,3,6,"10,4,11,14,15,3,6,2,1,8,7,13,5,12,9"
15203,commdev-image-keyboard-response,361,3364618,learnblock1,837.4000000953674,img/planet6_left.png,6,Community 2,NA,TRUE,f,f,NA,NA,NA,3,6,"10,4,11,14,15,3,6,2,1,8,7,13,5,12,9"
15203,commdev-image-keyboard-response,362,3365870,learnblock1,649.5,img/planet2_left.png,2,Community 2,NA,TRUE,f,f,NA,NA,NA,3,6,"10,4,11,14,15,3,6,2,1,8,7,13,5,12,9"
15203,commdev-image-keyboard-response,363,3367124,learnblock1,604.6000001430511,img/planet8_right.png,8,Community 2,NA,TRUE,j,j,NA,NA,NA,3,6,"10,4,11,14,15,3,6,2,1,8,7,13,5,12,9"
15203,commdev-image-keyboard-response,364,3368388,learnblock1,695.6000001430511,img/planet3_left.png,3,Community 2,NA,TRUE,f,f,NA,NA,NA,3,6,"10,4,11,14,15,3,6,2,1,8,7,13,5,12,9"
15203,commdev-image-keyboard-response,365,3369640,learnblock1,678.7999999523163,img/planet1_left.png,1,Community 2,NA,TRUE,f,f,NA,NA,NA,3,6,"10,4,11,14,15,3,6,2,1,8,7,13,5,12,9"
15203,commdev-image-keyboard-response,366,3370894,learnblock1,826.5,img/planet8_left.png,8,Community 2,NA,TRUE,f,f,NA,NA,NA,3,6,"10,4,11,14,15,3,6,2,1,8,7,13,5,12,9"
15203,commdev-image-keyboard-response,367,3372146,learnblock1,917.2999999523163,img/planet1_left.png,1,Community 2,NA,TRUE,f,f,NA,NA,NA,3,6,"10,4,11,14,15,3,6,2,1,8,7,13,5,12,9"
15203,commdev-image-keyboard-response,368,3373399,learnblock1,712.6000001430511,img/planet2_left.png,2,Community 2,NA,TRUE,f,f,NA,NA,NA,3,6,"10,4,11,14,15,3,6,2,1,8,7,13,5,12,9"
15203,commdev-image-keyboard-response,369,3374652,learnblock1,563.2999999523163,img/planet1_right.png,1,Community 2,NA,TRUE,j,j,NA,NA,NA,3,6,"10,4,11,14,15,3,6,2,1,8,7,13,5,12,9"
15203,commdev-image-keyboard-response,370,3375905,learnblock1,567.0999999046326,img/planet3_left.png,3,Community 2,NA,TRUE,f,f,NA,NA,NA,3,6,"10,4,11,14,15,3,6,2,1,8,7,13,5,12,9"
15203,commdev-image-keyboard-response,371,3377158,learnblock1,513.8999998569489,img/planet8_right.png,8,Community 2,NA,TRUE,j,j,NA,NA,NA,3,6,"10,4,11,14,15,3,6,2,1,8,7,13,5,12,9"
15203,commdev-image-keyboard-response,372,3378411,learnblock1,588.6000001430511,img/planet6_left.png,6,Community 2,NA,TRUE,f,f,NA,NA,NA,3,6,"10,4,11,14,15,3,6,2,1,8,7,13,5,12,9"
15203,commdev-image-keyboard-response,373,3379664,learnblock1,520.2000000476837,img/planet1_right.png,1,Community 2,NA,TRUE,j,j,NA,NA,NA,3,6,"10,4,11,14,15,3,6,2,1,8,7,13,5,12,9"
15203,commdev-image-keyboard-response,374,3380927,learnblock1,603.2999999523163,img/planet8_right.png,8,Community 2,NA,TRUE,j,j,NA,NA,NA,3,6,"10,4,11,14,15,3,6,2,1,8,7,13,5,12,9"
15203,commdev-image-keyboard-response,375,3382180,learnblock1,683.5,img/planet1_left.png,1,Community 2,NA,TRUE,f,f,NA,NA,NA,3,6,"10,4,11,14,15,3,6,2,1,8,7,13,5,12,9"
15203,commdev-image-keyboard-response,376,3383432,learnblock1,663.1999998092651,img/planet3_left.png,3,Community 2,NA,TRUE,f,f,NA,NA,NA,3,6,"10,4,11,14,15,3,6,2,1,8,7,13,5,12,9"
15203,commdev-image-keyboard-response,377,3384685,learnblock1,586.1999998092651,img/planet6_right.png,6,Community 2,NA,TRUE,j,j,NA,NA,NA,3,6,"10,4,11,14,15,3,6,2,1,8,7,13,5,12,9"
15203,commdev-image-keyboard-response,378,3385937,learnblock1,566.5999999046326,img/planet1_left.png,1,Community 2,NA,TRUE,f,f,NA,NA,NA,3,6,"10,4,11,14,15,3,6,2,1,8,7,13,5,12,9"
15203,commdev-image-keyboard-response,379,3387189,learnblock1,482.40000009536743,img/planet2_right.png,2,Community 2,NA,TRUE,j,j,NA,NA,NA,3,6,"10,4,11,14,15,3,6,2,1,8,7,13,5,12,9"
15203,commdev-image-keyboard-response,380,3388441,learnblock1,454.2999999523163,img/planet1_left.png,1,Community 2,NA,TRUE,f,f,NA,NA,NA,3,6,"10,4,11,14,15,3,6,2,1,8,7,13,5,12,9"
15203,commdev-image-keyboard-response,381,3389694,learnblock1,466.30000019073486,img/planet6_right.png,6,Community 2,NA,TRUE,j,j,NA,NA,NA,3,6,"10,4,11,14,15,3,6,2,1,8,7,13,5,12,9"
15203,commdev-image-keyboard-response,382,3390947,learnblock1,428.39999985694885,img/planet8_left.png,8,Community 2,NA,TRUE,f,f,NA,NA,NA,3,6,"10,4,11,14,15,3,6,2,1,8,7,13,5,12,9"
15203,commdev-image-keyboard-response,383,3392200,learnblock1,352.5,img/planet6_right.png,6,Community 2,NA,TRUE,j,j,NA,NA,NA,3,6,"10,4,11,14,15,3,6,2,1,8,7,13,5,12,9"
15203,commdev-image-keyboard-response,384,3393453,learnblock1,651.0999999046326,img/planet3_right.png,3,Community 2,NA,TRUE,j,j,NA,NA,NA,3,6,"10,4,11,14,15,3,6,2,1,8,7,13,5,12,9"
15203,commdev-image-keyboard-response,385,3394706,learnblock1,638.2999999523163,img/planet1_right.png,1,Community 2,NA,TRUE,j,j,NA,NA,NA,3,6,"10,4,11,14,15,3,6,2,1,8,7,13,5,12,9"
15203,commdev-image-keyboard-response,386,3395958,learnblock1,648.8999998569489,img/planet3_left.png,3,Community 2,NA,TRUE,f,f,NA,NA,NA,3,6,"10,4,11,14,15,3,6,2,1,8,7,13,5,12,9"
15203,commdev-image-keyboard-response,387,3397211,learnblock1,644.0999999046326,img/planet14_left.png,14,Community 1,NA,TRUE,f,f,NA,NA,NA,3,6,"10,4,11,14,15,3,6,2,1,8,7,13,5,12,9"
15203,commdev-image-keyboard-response,388,3398464,learnblock1,663.5,img/planet4_right.png,4,Community 1,NA,TRUE,j,j,NA,NA,NA,3,6,"10,4,11,14,15,3,6,2,1,8,7,13,5,12,9"
15203,commdev-image-keyboard-response,389,3399717,learnblock1,754.2999999523163,img/planet10_right.png,10,Community 1,NA,TRUE,j,j,NA,NA,NA,3,6,"10,4,11,14,15,3,6,2,1,8,7,13,5,12,9"
15203,commdev-image-keyboard-response,390,3400969,learnblock1,686.1999998092651,img/planet4_left.png,4,Community 1,NA,TRUE,f,f,NA,NA,NA,3,6,"10,4,11,14,15,3,6,2,1,8,7,13,5,12,9"
15203,commdev-image-keyboard-response,391,3402222,learnblock1,713.9000000953674,img/planet11_left.png,11,Community 1,NA,TRUE,f,f,NA,NA,NA,3,6,"10,4,11,14,15,3,6,2,1,8,7,13,5,12,9"
15203,commdev-image-keyboard-response,392,3403475,learnblock1,660.2999999523163,img/planet14_right.png,14,Community 1,NA,TRUE,j,j,NA,NA,NA,3,6,"10,4,11,14,15,3,6,2,1,8,7,13,5,12,9"
15203,commdev-image-keyboard-response,393,3404729,learnblock1,632.0999999046326,img/planet10_left.png,10,Community 1,NA,TRUE,f,f,NA,NA,NA,3,6,"10,4,11,14,15,3,6,2,1,8,7,13,5,12,9"
15203,commdev-image-keyboard-response,394,3405982,learnblock1,713.5999999046326,img/planet14_right.png,14,Community 1,NA,TRUE,j,j,NA,NA,NA,3,6,"10,4,11,14,15,3,6,2,1,8,7,13,5,12,9"
15203,commdev-image-keyboard-response,395,3407237,learnblock1,669.1000001430511,img/planet3_right.png,3,Community 2,NA,TRUE,j,j,NA,NA,NA,3,6,"10,4,11,14,15,3,6,2,1,8,7,13,5,12,9"
15203,commdev-image-keyboard-response,396,3408489,learnblock1,589.5,img/planet1_left.png,1,Community 2,NA,TRUE,f,f,NA,NA,NA,3,6,"10,4,11,14,15,3,6,2,1,8,7,13,5,12,9"
15203,commdev-image-keyboard-response,397,3409742,learnblock1,593.2000000476837,img/planet8_left.png,8,Community 2,NA,TRUE,f,f,NA,NA,NA,3,6,"10,4,11,14,15,3,6,2,1,8,7,13,5,12,9"
15203,commdev-image-keyboard-response,398,3410995,learnblock1,500.5,img/planet3_right.png,3,Community 2,NA,TRUE,j,j,NA,NA,NA,3,6,"10,4,11,14,15,3,6,2,1,8,7,13,5,12,9"
15203,commdev-image-keyboard-response,399,3412247,learnblock1,512.2999999523163,img/planet8_right.png,8,Community 2,NA,TRUE,j,j,NA,NA,NA,3,6,"10,4,11,14,15,3,6,2,1,8,7,13,5,12,9"
15203,commdev-image-keyboard-response,400,3413499,learnblock1,548,img/planet1_right.png,1,Community 2,NA,TRUE,j,j,NA,NA,NA,3,6,"10,4,11,14,15,3,6,2,1,8,7,13,5,12,9"
15203,commdev-image-keyboard-response,401,3414753,learnblock1,599.5,img/planet6_right.png,6,Community 2,NA,TRUE,j,j,NA,NA,NA,3,6,"10,4,11,14,15,3,6,2,1,8,7,13,5,12,9"
15203,commdev-image-keyboard-response,402,3416008,learnblock1,546.4000000953674,img/planet2_left.png,2,Community 2,NA,TRUE,f,f,NA,NA,NA,3,6,"10,4,11,14,15,3,6,2,1,8,7,13,5,12,9"
15203,commdev-image-keyboard-response,403,3417261,learnblock1,619.1000001430511,img/planet13_left.png,13,Community 3,NA,TRUE,f,f,NA,NA,NA,3,6,"10,4,11,14,15,3,6,2,1,8,7,13,5,12,9"
15203,commdev-image-keyboard-response,404,3418514,learnblock1,653.7000000476837,img/planet2_left.png,2,Community 2,NA,TRUE,f,f,NA,NA,NA,3,6,"10,4,11,14,15,3,6,2,1,8,7,13,5,12,9"
15203,commdev-image-keyboard-response,405,3419766,learnblock1,633.4000000953674,img/planet6_left.png,6,Community 2,NA,TRUE,f,f,NA,NA,NA,3,6,"10,4,11,14,15,3,6,2,1,8,7,13,5,12,9"
15203,commdev-image-keyboard-response,406,3421019,learnblock1,580.3000001907349,img/planet1_right.png,1,Community 2,NA,FALSE,f,j,NA,NA,NA,3,6,"10,4,11,14,15,3,6,2,1,8,7,13,5,12,9"
15203,commdev-image-keyboard-response,407,3422271,learnblock1,712,img/planet3_left.png,3,Community 2,NA,TRUE,f,f,NA,NA,NA,3,6,"10,4,11,14,15,3,6,2,1,8,7,13,5,12,9"
15203,commdev-image-keyboard-response,408,3423534,learnblock1,699.5,img/planet8_left.png,8,Community 2,NA,TRUE,f,f,NA,NA,NA,3,6,"10,4,11,14,15,3,6,2,1,8,7,13,5,12,9"
15203,commdev-image-keyboard-response,409,3424787,learnblock1,540.0999999046326,img/planet1_right.png,1,Community 2,NA,TRUE,j,j,NA,NA,NA,3,6,"10,4,11,14,15,3,6,2,1,8,7,13,5,12,9"
15203,commdev-image-keyboard-response,410,3426039,learnblock1,520,img/planet6_left.png,6,Community 2,NA,FALSE,j,f,NA,NA,NA,3,6,"10,4,11,14,15,3,6,2,1,8,7,13,5,12,9"
15203,commdev-image-keyboard-response,411,3427294,learnblock1,731.5,img/planet3_right.png,3,Community 2,NA,TRUE,j,j,NA,NA,NA,3,6,"10,4,11,14,15,3,6,2,1,8,7,13,5,12,9"
15203,commdev-image-keyboard-response,412,3428547,learnblock1,693.1999998092651,img/planet8_right.png,8,Community 2,NA,TRUE,j,j,NA,NA,NA,3,6,"10,4,11,14,15,3,6,2,1,8,7,13,5,12,9"
15203,commdev-image-keyboard-response,413,3429800,learnblock1,679.8000001907349,img/planet6_left.png,6,Community 2,NA,TRUE,f,f,NA,NA,NA,3,6,"10,4,11,14,15,3,6,2,1,8,7,13,5,12,9"
15203,commdev-image-keyboard-response,414,3431053,learnblock1,570.5999999046326,img/planet3_right.png,3,Community 2,NA,TRUE,j,j,NA,NA,NA,3,6,"10,4,11,14,15,3,6,2,1,8,7,13,5,12,9"
15203,commdev-image-keyboard-response,415,3432305,learnblock1,630.3000001907349,img/planet6_right.png,6,Community 2,NA,TRUE,j,j,NA,NA,NA,3,6,"10,4,11,14,15,3,6,2,1,8,7,13,5,12,9"
15203,commdev-image-keyboard-response,416,3433558,learnblock1,610,img/planet1_right.png,1,Community 2,NA,TRUE,j,j,NA,NA,NA,3,6,"10,4,11,14,15,3,6,2,1,8,7,13,5,12,9"
15203,commdev-image-keyboard-response,417,3434811,learnblock1,596.1999998092651,img/planet8_left.png,8,Community 2,NA,TRUE,f,f,NA,NA,NA,3,6,"10,4,11,14,15,3,6,2,1,8,7,13,5,12,9"
15203,commdev-image-keyboard-response,418,3436064,learnblock1,568.7000000476837,img/planet6_left.png,6,Community 2,NA,TRUE,f,f,NA,NA,NA,3,6,"10,4,11,14,15,3,6,2,1,8,7,13,5,12,9"
15203,commdev-image-keyboard-response,419,3437317,learnblock1,506.69999980926514,img/planet2_right.png,2,Community 2,NA,TRUE,j,j,NA,NA,NA,3,6,"10,4,11,14,15,3,6,2,1,8,7,13,5,12,9"
15203,commdev-image-keyboard-response,420,3438569,learnblock1,478,img/planet6_right.png,6,Community 2,NA,FALSE,f,j,NA,NA,NA,3,6,"10,4,11,14,15,3,6,2,1,8,7,13,5,12,9"
15203,commdev-image-keyboard-response,421,3439821,learnblock1,577.0999999046326,img/planet1_left.png,1,Community 2,NA,TRUE,f,f,NA,NA,NA,3,6,"10,4,11,14,15,3,6,2,1,8,7,13,5,12,9"
15203,commdev-image-keyboard-response,422,3441074,learnblock1,629.5999999046326,img/planet3_left.png,3,Community 2,NA,TRUE,f,f,NA,NA,NA,3,6,"10,4,11,14,15,3,6,2,1,8,7,13,5,12,9"
15203,commdev-image-keyboard-response,423,3442327,learnblock1,664.3000001907349,img/planet1_left.png,1,Community 2,NA,TRUE,f,f,NA,NA,NA,3,6,"10,4,11,14,15,3,6,2,1,8,7,13,5,12,9"
15203,commdev-image-keyboard-response,424,3443579,learnblock1,627.7999999523163,img/planet8_right.png,8,Community 2,NA,TRUE,j,j,NA,NA,NA,3,6,"10,4,11,14,15,3,6,2,1,8,7,13,5,12,9"
15203,commdev-image-keyboard-response,425,3444832,learnblock1,622.6000001430511,img/planet6_left.png,6,Community 2,NA,TRUE,f,f,NA,NA,NA,3,6,"10,4,11,14,15,3,6,2,1,8,7,13,5,12,9"
15203,commdev-image-keyboard-response,426,3446085,learnblock1,482.2999999523163,img/planet1_right.png,1,Community 2,NA,TRUE,j,j,NA,NA,NA,3,6,"10,4,11,14,15,3,6,2,1,8,7,13,5,12,9"
15203,commdev-image-keyboard-response,427,3447338,learnblock1,678,img/planet2_left.png,2,Community 2,NA,TRUE,f,f,NA,NA,NA,3,6,"10,4,11,14,15,3,6,2,1,8,7,13,5,12,9"
15203,commdev-image-keyboard-response,428,3448590,learnblock1,529.0999999046326,img/planet6_right.png,6,Community 2,NA,TRUE,j,j,NA,NA,NA,3,6,"10,4,11,14,15,3,6,2,1,8,7,13,5,12,9"
15203,commdev-image-keyboard-response,429,3449842,learnblock1,404.7999999523163,img/planet3_left.png,3,Community 2,NA,TRUE,f,f,NA,NA,NA,3,6,"10,4,11,14,15,3,6,2,1,8,7,13,5,12,9"
15203,commdev-image-keyboard-response,430,3451094,learnblock1,657.0999999046326,img/planet6_left.png,6,Community 2,NA,FALSE,j,f,NA,NA,NA,3,6,"10,4,11,14,15,3,6,2,1,8,7,13,5,12,9"
15203,commdev-image-keyboard-response,431,3452347,learnblock1,604.4000000953674,img/planet2_right.png,2,Community 2,NA,TRUE,j,j,NA,NA,NA,3,6,"10,4,11,14,15,3,6,2,1,8,7,13,5,12,9"
15203,commdev-image-keyboard-response,432,3453600,learnblock1,815.2000000476837,img/planet13_right.png,13,Community 3,NA,TRUE,j,j,NA,NA,NA,3,6,"10,4,11,14,15,3,6,2,1,8,7,13,5,12,9"
15203,commdev-image-keyboard-response,433,3454852,learnblock1,834.8999998569489,img/planet12_left.png,12,Community 3,NA,TRUE,f,f,NA,NA,NA,3,6,"10,4,11,14,15,3,6,2,1,8,7,13,5,12,9"
15203,commdev-image-keyboard-response,434,3456104,learnblock1,846.9000000953674,img/planet13_left.png,13,Community 3,NA,TRUE,f,f,NA,NA,NA,3,6,"10,4,11,14,15,3,6,2,1,8,7,13,5,12,9"
15203,commdev-image-keyboard-response,435,3457357,learnblock1,826.3000001907349,img/planet2_left.png,2,Community 2,NA,TRUE,f,f,NA,NA,NA,3,6,"10,4,11,14,15,3,6,2,1,8,7,13,5,12,9"
15203,commdev-image-keyboard-response,436,3458609,learnblock1,725.8999998569489,img/planet1_right.png,1,Community 2,NA,TRUE,j,j,NA,NA,NA,3,6,"10,4,11,14,15,3,6,2,1,8,7,13,5,12,9"
15203,commdev-image-keyboard-response,437,3459862,learnblock1,649.9000000953674,img/planet2_left.png,2,Community 2,NA,TRUE,f,f,NA,NA,NA,3,6,"10,4,11,14,15,3,6,2,1,8,7,13,5,12,9"
15203,commdev-image-keyboard-response,438,3461114,learnblock1,660.3999998569489,img/planet1_left.png,1,Community 2,NA,TRUE,f,f,NA,NA,NA,3,6,"10,4,11,14,15,3,6,2,1,8,7,13,5,12,9"
15203,commdev-image-keyboard-response,439,3462367,learnblock1,624.3999998569489,img/planet3_right.png,3,Community 2,NA,TRUE,j,j,NA,NA,NA,3,6,"10,4,11,14,15,3,6,2,1,8,7,13,5,12,9"
15203,commdev-image-keyboard-response,440,3463620,learnblock1,628.1000001430511,img/planet14_left.png,14,Community 1,NA,TRUE,f,f,NA,NA,NA,3,6,"10,4,11,14,15,3,6,2,1,8,7,13,5,12,9"
15203,commdev-image-keyboard-response,441,3464873,learnblock1,622.5,img/planet10_right.png,10,Community 1,NA,TRUE,j,j,NA,NA,NA,3,6,"10,4,11,14,15,3,6,2,1,8,7,13,5,12,9"
15203,commdev-image-keyboard-response,442,3466126,learnblock1,657.5999999046326,img/planet4_right.png,4,Community 1,NA,TRUE,j,j,NA,NA,NA,3,6,"10,4,11,14,15,3,6,2,1,8,7,13,5,12,9"
15203,commdev-image-keyboard-response,443,3467378,learnblock1,837.3000001907349,img/planet14_left.png,14,Community 1,NA,TRUE,f,f,NA,NA,NA,3,6,"10,4,11,14,15,3,6,2,1,8,7,13,5,12,9"
15203,commdev-image-keyboard-response,444,3468631,learnblock1,832.4000000953674,img/planet11_left.png,11,Community 1,NA,TRUE,f,f,NA,NA,NA,3,6,"10,4,11,14,15,3,6,2,1,8,7,13,5,12,9"
15203,commdev-image-keyboard-response,445,3469884,learnblock1,755.7999999523163,img/planet15_left.png,15,Community 1,NA,TRUE,f,f,NA,NA,NA,3,6,"10,4,11,14,15,3,6,2,1,8,7,13,5,12,9"
15203,commdev-image-keyboard-response,446,3471137,learnblock1,470.80000019073486,img/planet4_right.png,4,Community 1,NA,TRUE,j,j,NA,NA,NA,3,6,"10,4,11,14,15,3,6,2,1,8,7,13,5,12,9"
15203,commdev-image-keyboard-response,447,3472390,learnblock1,554.0999999046326,img/planet10_right.png,10,Community 1,NA,TRUE,j,j,NA,NA,NA,3,6,"10,4,11,14,15,3,6,2,1,8,7,13,5,12,9"
15203,commdev-image-keyboard-response,448,3473642,learnblock1,604.8999998569489,img/planet14_left.png,14,Community 1,NA,TRUE,f,f,NA,NA,NA,3,6,"10,4,11,14,15,3,6,2,1,8,7,13,5,12,9"
15203,commdev-image-keyboard-response,449,3474894,learnblock1,528.5999999046326,img/planet11_right.png,11,Community 1,NA,TRUE,j,j,NA,NA,NA,3,6,"10,4,11,14,15,3,6,2,1,8,7,13,5,12,9"
15203,commdev-image-keyboard-response,450,3476146,learnblock1,452.7000000476837,img/planet10_left.png,10,Community 1,NA,TRUE,f,f,NA,NA,NA,3,6,"10,4,11,14,15,3,6,2,1,8,7,13,5,12,9"
15203,commdev-image-keyboard-response,451,3477399,learnblock1,1033.2999999523163,img/planet4_left.png,4,Community 1,NA,FALSE,j,f,NA,NA,NA,3,6,"10,4,11,14,15,3,6,2,1,8,7,13,5,12,9"
15203,commdev-image-keyboard-response,452,3478652,learnblock1,851.2999999523163,img/planet10_left.png,10,Community 1,NA,TRUE,f,f,NA,NA,NA,3,6,"10,4,11,14,15,3,6,2,1,8,7,13,5,12,9"
15203,commdev-image-keyboard-response,453,3479906,learnblock1,709.5,img/planet14_right.png,14,Community 1,NA,TRUE,j,j,NA,NA,NA,3,6,"10,4,11,14,15,3,6,2,1,8,7,13,5,12,9"
15203,commdev-image-keyboard-response,454,3481159,learnblock1,544.7000000476837,img/planet10_right.png,10,Community 1,NA,TRUE,j,j,NA,NA,NA,3,6,"10,4,11,14,15,3,6,2,1,8,7,13,5,12,9"
15203,commdev-image-keyboard-response,455,3482412,learnblock1,708,img/planet14_left.png,14,Community 1,NA,TRUE,f,f,NA,NA,NA,3,6,"10,4,11,14,15,3,6,2,1,8,7,13,5,12,9"
15203,commdev-image-keyboard-response,456,3483665,learnblock1,527,img/planet4_right.png,4,Community 1,NA,TRUE,j,j,NA,NA,NA,3,6,"10,4,11,14,15,3,6,2,1,8,7,13,5,12,9"
15203,commdev-image-keyboard-response,457,3484918,learnblock1,657.2000000476837,img/planet10_right.png,10,Community 1,NA,FALSE,f,j,NA,NA,NA,3,6,"10,4,11,14,15,3,6,2,1,8,7,13,5,12,9"
15203,commdev-image-keyboard-response,458,3486171,learnblock1,796.4000000953674,img/planet14_left.png,14,Community 1,NA,TRUE,f,f,NA,NA,NA,3,6,"10,4,11,14,15,3,6,2,1,8,7,13,5,12,9"
15203,commdev-image-keyboard-response,459,3487438,learnblock1,767.6000001430511,img/planet10_left.png,10,Community 1,NA,TRUE,f,f,NA,NA,NA,3,6,"10,4,11,14,15,3,6,2,1,8,7,13,5,12,9"
15203,commdev-image-keyboard-response,460,3488691,learnblock1,813.1000001430511,img/planet4_left.png,4,Community 1,NA,TRUE,f,f,NA,NA,NA,3,6,"10,4,11,14,15,3,6,2,1,8,7,13,5,12,9"
15203,commdev-image-keyboard-response,461,3489944,learnblock1,839.5999999046326,img/planet15_left.png,15,Community 1,NA,TRUE,f,f,NA,NA,NA,3,6,"10,4,11,14,15,3,6,2,1,8,7,13,5,12,9"
15203,commdev-image-keyboard-response,462,3491197,learnblock1,698.4000000953674,img/planet7_right.png,7,Community 3,NA,TRUE,j,j,NA,NA,NA,3,6,"10,4,11,14,15,3,6,2,1,8,7,13,5,12,9"
15203,commdev-image-keyboard-response,463,3492450,learnblock1,741.2999999523163,img/planet9_left.png,9,Community 3,NA,TRUE,f,f,NA,NA,NA,3,6,"10,4,11,14,15,3,6,2,1,8,7,13,5,12,9"
15203,commdev-image-keyboard-response,464,3493703,learnblock1,664.3000001907349,img/planet12_right.png,12,Community 3,NA,TRUE,j,j,NA,NA,NA,3,6,"10,4,11,14,15,3,6,2,1,8,7,13,5,12,9"
15203,commdev-image-keyboard-response,465,3494955,learnblock1,771.8999998569489,img/planet5_left.png,5,Community 3,NA,TRUE,f,f,NA,NA,NA,3,6,"10,4,11,14,15,3,6,2,1,8,7,13,5,12,9"
15203,commdev-image-keyboard-response,466,3496208,learnblock1,663.4000000953674,img/planet13_right.png,13,Community 3,NA,TRUE,j,j,NA,NA,NA,3,6,"10,4,11,14,15,3,6,2,1,8,7,13,5,12,9"
15203,commdev-image-keyboard-response,467,3497461,learnblock1,578.2999999523163,img/planet2_right.png,2,Community 2,NA,TRUE,j,j,NA,NA,NA,3,6,"10,4,11,14,15,3,6,2,1,8,7,13,5,12,9"
15203,commdev-image-keyboard-response,468,3498714,learnblock1,661.4000000953674,img/planet8_right.png,8,Community 2,NA,TRUE,j,j,NA,NA,NA,3,6,"10,4,11,14,15,3,6,2,1,8,7,13,5,12,9"
15203,commdev-image-keyboard-response,469,3499967,learnblock1,689.0999999046326,img/planet3_left.png,3,Community 2,NA,TRUE,f,f,NA,NA,NA,3,6,"10,4,11,14,15,3,6,2,1,8,7,13,5,12,9"
15203,commdev-image-keyboard-response,470,3501219,learnblock1,579.7000000476837,img/planet1_right.png,1,Community 2,NA,TRUE,j,j,NA,NA,NA,3,6,"10,4,11,14,15,3,6,2,1,8,7,13,5,12,9"
15203,commdev-image-keyboard-response,471,3502472,learnblock1,679.2000000476837,img/planet3_left.png,3,Community 2,NA,TRUE,f,f,NA,NA,NA,3,6,"10,4,11,14,15,3,6,2,1,8,7,13,5,12,9"
15203,commdev-image-keyboard-response,472,3503725,learnblock1,659.1000001430511,img/planet6_left.png,6,Community 2,NA,TRUE,f,f,NA,NA,NA,3,6,"10,4,11,14,15,3,6,2,1,8,7,13,5,12,9"
15203,commdev-image-keyboard-response,473,3504978,learnblock1,629.5,img/planet3_right.png,3,Community 2,NA,TRUE,j,j,NA,NA,NA,3,6,"10,4,11,14,15,3,6,2,1,8,7,13,5,12,9"
15203,commdev-image-keyboard-response,474,3506230,learnblock1,687.9000000953674,img/planet6_left.png,6,Community 2,NA,TRUE,f,f,NA,NA,NA,3,6,"10,4,11,14,15,3,6,2,1,8,7,13,5,12,9"
15203,commdev-image-keyboard-response,475,3507483,learnblock1,749,img/planet2_right.png,2,Community 2,NA,TRUE,j,j,NA,NA,NA,3,6,"10,4,11,14,15,3,6,2,1,8,7,13,5,12,9"
15203,commdev-image-keyboard-response,476,3508736,learnblock1,671.4000000953674,img/planet8_right.png,8,Community 2,NA,TRUE,j,j,NA,NA,NA,3,6,"10,4,11,14,15,3,6,2,1,8,7,13,5,12,9"
15203,commdev-image-keyboard-response,477,3509990,learnblock1,521.9000000953674,img/planet2_left.png,2,Community 2,NA,TRUE,f,f,NA,NA,NA,3,6,"10,4,11,14,15,3,6,2,1,8,7,13,5,12,9"
15203,commdev-image-keyboard-response,478,3511249,learnblock1,629.5,img/planet8_left.png,8,Community 2,NA,FALSE,j,f,NA,NA,NA,3,6,"10,4,11,14,15,3,6,2,1,8,7,13,5,12,9"
15203,commdev-image-keyboard-response,479,3512502,learnblock1,729,img/planet6_right.png,6,Community 2,NA,TRUE,j,j,NA,NA,NA,3,6,"10,4,11,14,15,3,6,2,1,8,7,13,5,12,9"
15203,commdev-image-keyboard-response,480,3513754,learnblock1,612.7000000476837,img/planet2_right.png,2,Community 2,NA,FALSE,f,j,NA,NA,NA,3,6,"10,4,11,14,15,3,6,2,1,8,7,13,5,12,9"
15203,commdev-image-keyboard-response,481,3515007,learnblock1,743.7000000476837,img/planet6_right.png,6,Community 2,NA,TRUE,j,j,NA,NA,NA,3,6,"10,4,11,14,15,3,6,2,1,8,7,13,5,12,9"
15203,commdev-image-keyboard-response,482,3516259,learnblock1,715.7000000476837,img/planet3_left.png,3,Community 2,NA,TRUE,f,f,NA,NA,NA,3,6,"10,4,11,14,15,3,6,2,1,8,7,13,5,12,9"
15203,commdev-image-keyboard-response,483,3517512,learnblock1,631.0999999046326,img/planet8_right.png,8,Community 2,NA,TRUE,j,j,NA,NA,NA,3,6,"10,4,11,14,15,3,6,2,1,8,7,13,5,12,9"
15203,commdev-image-keyboard-response,484,3518767,learnblock1,546.2000000476837,img/planet6_left.png,6,Community 2,NA,FALSE,j,f,NA,NA,NA,3,6,"10,4,11,14,15,3,6,2,1,8,7,13,5,12,9"
15203,commdev-image-keyboard-response,485,3520019,learnblock1,612.2999999523163,img/planet1_right.png,1,Community 2,NA,TRUE,j,j,NA,NA,NA,3,6,"10,4,11,14,15,3,6,2,1,8,7,13,5,12,9"
15203,commdev-image-keyboard-response,489,3588135,learnblock2,620.9000000953674,img/planet5_right.png,5,Community 3,NA,TRUE,j,j,NA,NA,NA,3,6,"10,4,11,14,15,3,6,2,1,8,7,13,5,12,9"
15203,commdev-image-keyboard-response,490,3589395,learnblock2,555.5,img/planet7_right.png,7,Community 3,NA,TRUE,j,j,NA,NA,NA,3,6,"10,4,11,14,15,3,6,2,1,8,7,13,5,12,9"
15203,commdev-image-keyboard-response,491,3590648,learnblock2,703.7999999523163,img/planet15_right.png,15,Community 1,NA,TRUE,j,j,NA,NA,NA,3,6,"10,4,11,14,15,3,6,2,1,8,7,13,5,12,9"
15203,commdev-image-keyboard-response,492,3591901,learnblock2,586.4000000953674,img/planet10_right.png,10,Community 1,NA,TRUE,j,j,NA,NA,NA,3,6,"10,4,11,14,15,3,6,2,1,8,7,13,5,12,9"
15203,commdev-image-keyboard-response,493,3593154,learnblock2,478,img/planet14_left.png,14,Community 1,NA,TRUE,f,f,NA,NA,NA,3,6,"10,4,11,14,15,3,6,2,1,8,7,13,5,12,9"
15203,commdev-image-keyboard-response,494,3594407,learnblock2,577.3000001907349,img/planet3_right.png,3,Community 2,NA,TRUE,j,j,NA,NA,NA,3,6,"10,4,11,14,15,3,6,2,1,8,7,13,5,12,9"
15203,commdev-image-keyboard-response,495,3595660,learnblock2,548.2999999523163,img/planet1_right.png,1,Community 2,NA,TRUE,j,j,NA,NA,NA,3,6,"10,4,11,14,15,3,6,2,1,8,7,13,5,12,9"
15203,commdev-image-keyboard-response,496,3596914,learnblock2,543.3999998569489,img/planet8_right.png,8,Community 2,NA,TRUE,j,j,NA,NA,NA,3,6,"10,4,11,14,15,3,6,2,1,8,7,13,5,12,9"
15203,commdev-image-keyboard-response,497,3598166,learnblock2,569.6000001430511,img/planet6_left.png,6,Community 2,NA,FALSE,j,f,NA,NA,NA,3,6,"10,4,11,14,15,3,6,2,1,8,7,13,5,12,9"
15203,commdev-image-keyboard-response,498,3599419,learnblock2,540.5,img/planet3_right.png,3,Community 2,NA,TRUE,j,j,NA,NA,NA,3,6,"10,4,11,14,15,3,6,2,1,8,7,13,5,12,9"
15203,commdev-image-keyboard-response,499,3600673,learnblock2,527.4000000953674,img/planet14_right.png,14,Community 1,NA,TRUE,j,j,NA,NA,NA,3,6,"10,4,11,14,15,3,6,2,1,8,7,13,5,12,9"
15203,commdev-image-keyboard-response,500,3601925,learnblock2,578.5,img/planet11_right.png,11,Community 1,NA,TRUE,j,j,NA,NA,NA,3,6,"10,4,11,14,15,3,6,2,1,8,7,13,5,12,9"
15203,commdev-image-keyboard-response,501,3603184,learnblock2,526.1000001430511,img/planet10_left.png,10,Community 1,NA,TRUE,f,f,NA,NA,NA,3,6,"10,4,11,14,15,3,6,2,1,8,7,13,5,12,9"
15203,commdev-image-keyboard-response,502,3604445,learnblock2,546.5,img/planet11_right.png,11,Community 1,NA,TRUE,j,j,NA,NA,NA,3,6,"10,4,11,14,15,3,6,2,1,8,7,13,5,12,9"
15203,commdev-image-keyboard-response,503,3605697,learnblock2,613.9000000953674,img/planet14_left.png,14,Community 1,NA,TRUE,f,f,NA,NA,NA,3,6,"10,4,11,14,15,3,6,2,1,8,7,13,5,12,9"
15203,commdev-image-keyboard-response,504,3606950,learnblock2,489.89999985694885,img/planet3_right.png,3,Community 2,NA,TRUE,j,j,NA,NA,NA,3,6,"10,4,11,14,15,3,6,2,1,8,7,13,5,12,9"
15203,commdev-image-keyboard-response,505,3608202,learnblock2,589.2999999523163,img/planet6_right.png,6,Community 2,NA,TRUE,j,j,NA,NA,NA,3,6,"10,4,11,14,15,3,6,2,1,8,7,13,5,12,9"
15203,commdev-image-keyboard-response,506,3609456,learnblock2,592.5,img/planet2_right.png,2,Community 2,NA,TRUE,j,j,NA,NA,NA,3,6,"10,4,11,14,15,3,6,2,1,8,7,13,5,12,9"
15203,commdev-image-keyboard-response,507,3610709,learnblock2,531.2000000476837,img/planet6_right.png,6,Community 2,NA,TRUE,j,j,NA,NA,NA,3,6,"10,4,11,14,15,3,6,2,1,8,7,13,5,12,9"
15203,commdev-image-keyboard-response,508,3611961,learnblock2,486.5,img/planet2_left.png,2,Community 2,NA,TRUE,f,f,NA,NA,NA,3,6,"10,4,11,14,15,3,6,2,1,8,7,13,5,12,9"
15203,commdev-image-keyboard-response,509,3613214,learnblock2,473.59999990463257,img/planet8_right.png,8,Community 2,NA,TRUE,j,j,NA,NA,NA,3,6,"10,4,11,14,15,3,6,2,1,8,7,13,5,12,9"
15203,commdev-image-keyboard-response,510,3614466,learnblock2,612.7000000476837,img/planet3_right.png,3,Community 2,NA,TRUE,j,j,NA,NA,NA,3,6,"10,4,11,14,15,3,6,2,1,8,7,13,5,12,9"
15203,commdev-image-keyboard-response,511,3615719,learnblock2,544.4000000953674,img/planet6_left.png,6,Community 2,NA,TRUE,f,f,NA,NA,NA,3,6,"10,4,11,14,15,3,6,2,1,8,7,13,5,12,9"
15203,commdev-image-keyboard-response,512,3616972,learnblock2,547.7000000476837,img/planet3_right.png,3,Community 2,NA,TRUE,j,j,NA,NA,NA,3,6,"10,4,11,14,15,3,6,2,1,8,7,13,5,12,9"
15203,commdev-image-keyboard-response,513,3618224,learnblock2,527.2000000476837,img/planet8_left.png,8,Community 2,NA,TRUE,f,f,NA,NA,NA,3,6,"10,4,11,14,15,3,6,2,1,8,7,13,5,12,9"
15203,commdev-image-keyboard-response,514,3619478,learnblock2,394.90000009536743,img/planet6_left.png,6,Community 2,NA,FALSE,j,f,NA,NA,NA,3,6,"10,4,11,14,15,3,6,2,1,8,7,13,5,12,9"
15203,commdev-image-keyboard-response,515,3620730,learnblock2,493.39999985694885,img/planet3_right.png,3,Community 2,NA,TRUE,j,j,NA,NA,NA,3,6,"10,4,11,14,15,3,6,2,1,8,7,13,5,12,9"
15203,commdev-image-keyboard-response,516,3621983,learnblock2,560.8000001907349,img/planet14_left.png,14,Community 1,NA,TRUE,f,f,NA,NA,NA,3,6,"10,4,11,14,15,3,6,2,1,8,7,13,5,12,9"
15203,commdev-image-keyboard-response,517,3623248,learnblock2,483.7999999523163,img/planet3_left.png,3,Community 2,NA,FALSE,j,f,NA,NA,NA,3,6,"10,4,11,14,15,3,6,2,1,8,7,13,5,12,9"
15203,commdev-image-keyboard-response,518,3624501,learnblock2,771,img/planet14_right.png,14,Community 1,NA,TRUE,j,j,NA,NA,NA,3,6,"10,4,11,14,15,3,6,2,1,8,7,13,5,12,9"
15203,commdev-image-keyboard-response,519,3625754,learnblock2,581.4000000953674,img/planet3_right.png,3,Community 2,NA,TRUE,j,j,NA,NA,NA,3,6,"10,4,11,14,15,3,6,2,1,8,7,13,5,12,9"
15203,commdev-image-keyboard-response,520,3627006,learnblock2,480.90000009536743,img/planet1_left.png,1,Community 2,NA,TRUE,f,f,NA,NA,NA,3,6,"10,4,11,14,15,3,6,2,1,8,7,13,5,12,9"
15203,commdev-image-keyboard-response,521,3628259,learnblock2,675.8000001907349,img/planet6_left.png,6,Community 2,NA,TRUE,f,f,NA,NA,NA,3,6,"10,4,11,14,15,3,6,2,1,8,7,13,5,12,9"
15203,commdev-image-keyboard-response,522,3629512,learnblock2,640.4000000953674,img/planet3_right.png,3,Community 2,NA,TRUE,j,j,NA,NA,NA,3,6,"10,4,11,14,15,3,6,2,1,8,7,13,5,12,9"
15203,commdev-image-keyboard-response,523,3630765,learnblock2,579.2000000476837,img/planet14_left.png,14,Community 1,NA,TRUE,f,f,NA,NA,NA,3,6,"10,4,11,14,15,3,6,2,1,8,7,13,5,12,9"
15203,commdev-image-keyboard-response,524,3632018,learnblock2,502.2000000476837,img/planet3_right.png,3,Community 2,NA,TRUE,j,j,NA,NA,NA,3,6,"10,4,11,14,15,3,6,2,1,8,7,13,5,12,9"
15203,commdev-image-keyboard-response,525,3633270,learnblock2,512.8000001907349,img/planet6_right.png,6,Community 2,NA,TRUE,j,j,NA,NA,NA,3,6,"10,4,11,14,15,3,6,2,1,8,7,13,5,12,9"
15203,commdev-image-keyboard-response,526,3634523,learnblock2,548.2000000476837,img/planet2_left.png,2,Community 2,NA,TRUE,f,f,NA,NA,NA,3,6,"10,4,11,14,15,3,6,2,1,8,7,13,5,12,9"
15203,commdev-image-keyboard-response,527,3635775,learnblock2,616.2999999523163,img/planet1_left.png,1,Community 2,NA,TRUE,f,f,NA,NA,NA,3,6,"10,4,11,14,15,3,6,2,1,8,7,13,5,12,9"
15203,commdev-image-keyboard-response,528,3637028,learnblock2,603.7000000476837,img/planet3_left.png,3,Community 2,NA,FALSE,j,f,NA,NA,NA,3,6,"10,4,11,14,15,3,6,2,1,8,7,13,5,12,9"
15203,commdev-image-keyboard-response,529,3638282,learnblock2,662.7999999523163,img/planet14_right.png,14,Community 1,NA,TRUE,j,j,NA,NA,NA,3,6,"10,4,11,14,15,3,6,2,1,8,7,13,5,12,9"
15203,commdev-image-keyboard-response,530,3639534,learnblock2,600.5,img/planet4_left.png,4,Community 1,NA,TRUE,f,f,NA,NA,NA,3,6,"10,4,11,14,15,3,6,2,1,8,7,13,5,12,9"
15203,commdev-image-keyboard-response,531,3640787,learnblock2,589,img/planet10_left.png,10,Community 1,NA,TRUE,f,f,NA,NA,NA,3,6,"10,4,11,14,15,3,6,2,1,8,7,13,5,12,9"
15203,commdev-image-keyboard-response,532,3642040,learnblock2,655.0999999046326,img/planet4_right.png,4,Community 1,NA,TRUE,j,j,NA,NA,NA,3,6,"10,4,11,14,15,3,6,2,1,8,7,13,5,12,9"
15203,commdev-image-keyboard-response,533,3643292,learnblock2,563.3999998569489,img/planet15_left.png,15,Community 1,NA,TRUE,f,f,NA,NA,NA,3,6,"10,4,11,14,15,3,6,2,1,8,7,13,5,12,9"
15203,commdev-image-keyboard-response,534,3644545,learnblock2,639.1000001430511,img/planet11_right.png,11,Community 1,NA,TRUE,j,j,NA,NA,NA,3,6,"10,4,11,14,15,3,6,2,1,8,7,13,5,12,9"
15203,commdev-image-keyboard-response,535,3645798,learnblock2,537.7000000476837,img/planet10_left.png,10,Community 1,NA,TRUE,f,f,NA,NA,NA,3,6,"10,4,11,14,15,3,6,2,1,8,7,13,5,12,9"
15203,commdev-image-keyboard-response,536,3647050,learnblock2,548.5,img/planet15_right.png,15,Community 1,NA,TRUE,j,j,NA,NA,NA,3,6,"10,4,11,14,15,3,6,2,1,8,7,13,5,12,9"
15203,commdev-image-keyboard-response,537,3648304,learnblock2,616.5,img/planet4_right.png,4,Community 1,NA,TRUE,j,j,NA,NA,NA,3,6,"10,4,11,14,15,3,6,2,1,8,7,13,5,12,9"
15203,commdev-image-keyboard-response,538,3649557,learnblock2,522.5999999046326,img/planet14_left.png,14,Community 1,NA,TRUE,f,f,NA,NA,NA,3,6,"10,4,11,14,15,3,6,2,1,8,7,13,5,12,9"
15203,commdev-image-keyboard-response,539,3650815,learnblock2,493.5,img/planet3_right.png,3,Community 2,NA,TRUE,j,j,NA,NA,NA,3,6,"10,4,11,14,15,3,6,2,1,8,7,13,5,12,9"
15203,commdev-image-keyboard-response,540,3652067,learnblock2,580.2999999523163,img/planet8_right.png,8,Community 2,NA,TRUE,j,j,NA,NA,NA,3,6,"10,4,11,14,15,3,6,2,1,8,7,13,5,12,9"
15203,commdev-image-keyboard-response,541,3653320,learnblock2,535.0999999046326,img/planet3_left.png,3,Community 2,NA,TRUE,f,f,NA,NA,NA,3,6,"10,4,11,14,15,3,6,2,1,8,7,13,5,12,9"
15203,commdev-image-keyboard-response,542,3654573,learnblock2,586.4000000953674,img/planet14_right.png,14,Community 1,NA,TRUE,j,j,NA,NA,NA,3,6,"10,4,11,14,15,3,6,2,1,8,7,13,5,12,9"
15203,commdev-image-keyboard-response,543,3655826,learnblock2,669.5,img/planet4_left.png,4,Community 1,NA,TRUE,f,f,NA,NA,NA,3,6,"10,4,11,14,15,3,6,2,1,8,7,13,5,12,9"
15203,commdev-image-keyboard-response,544,3657078,learnblock2,528.7000000476837,img/planet14_right.png,14,Community 1,NA,TRUE,j,j,NA,NA,NA,3,6,"10,4,11,14,15,3,6,2,1,8,7,13,5,12,9"
15203,commdev-image-keyboard-response,545,3658331,learnblock2,644.6000001430511,img/planet11_right.png,11,Community 1,NA,TRUE,j,j,NA,NA,NA,3,6,"10,4,11,14,15,3,6,2,1,8,7,13,5,12,9"
15203,commdev-image-keyboard-response,546,3659584,learnblock2,791.9000000953674,img/planet4_left.png,4,Community 1,NA,FALSE,j,f,NA,NA,NA,3,6,"10,4,11,14,15,3,6,2,1,8,7,13,5,12,9"
15203,commdev-image-keyboard-response,547,3660837,learnblock2,762.7000000476837,img/planet15_right.png,15,Community 1,NA,TRUE,j,j,NA,NA,NA,3,6,"10,4,11,14,15,3,6,2,1,8,7,13,5,12,9"
15203,commdev-image-keyboard-response,548,3662089,learnblock2,854.7999999523163,img/planet7_left.png,7,Community 3,NA,TRUE,f,f,NA,NA,NA,3,6,"10,4,11,14,15,3,6,2,1,8,7,13,5,12,9"
15203,commdev-image-keyboard-response,549,3663342,learnblock2,897.6000001430511,img/planet9_left.png,9,Community 3,NA,TRUE,f,f,NA,NA,NA,3,6,"10,4,11,14,15,3,6,2,1,8,7,13,5,12,9"
15203,commdev-image-keyboard-response,550,3664594,learnblock2,692.5,img/planet7_right.png,7,Community 3,NA,TRUE,j,j,NA,NA,NA,3,6,"10,4,11,14,15,3,6,2,1,8,7,13,5,12,9"
15203,commdev-image-keyboard-response,551,3665847,learnblock2,664.6000001430511,img/planet5_right.png,5,Community 3,NA,TRUE,j,j,NA,NA,NA,3,6,"10,4,11,14,15,3,6,2,1,8,7,13,5,12,9"
15203,commdev-image-keyboard-response,552,3667099,learnblock2,699.8000001907349,img/planet9_right.png,9,Community 3,NA,TRUE,j,j,NA,NA,NA,3,6,"10,4,11,14,15,3,6,2,1,8,7,13,5,12,9"
15203,commdev-image-keyboard-response,553,3668352,learnblock2,582.8000001907349,img/planet7_left.png,7,Community 3,NA,TRUE,f,f,NA,NA,NA,3,6,"10,4,11,14,15,3,6,2,1,8,7,13,5,12,9"
15203,commdev-image-keyboard-response,554,3669604,learnblock2,667.1000001430511,img/planet15_right.png,15,Community 1,NA,TRUE,j,j,NA,NA,NA,3,6,"10,4,11,14,15,3,6,2,1,8,7,13,5,12,9"
15203,commdev-image-keyboard-response,555,3670857,learnblock2,693.7999999523163,img/planet7_left.png,7,Community 3,NA,TRUE,f,f,NA,NA,NA,3,6,"10,4,11,14,15,3,6,2,1,8,7,13,5,12,9"
15203,commdev-image-keyboard-response,556,3672119,learnblock2,841.9000000953674,img/planet9_left.png,9,Community 3,NA,TRUE,f,f,NA,NA,NA,3,6,"10,4,11,14,15,3,6,2,1,8,7,13,5,12,9"
15203,commdev-image-keyboard-response,557,3673372,learnblock2,682.2999999523163,img/planet5_right.png,5,Community 3,NA,TRUE,j,j,NA,NA,NA,3,6,"10,4,11,14,15,3,6,2,1,8,7,13,5,12,9"
15203,commdev-image-keyboard-response,558,3674625,learnblock2,566.2000000476837,img/planet13_left.png,13,Community 3,NA,TRUE,f,f,NA,NA,NA,3,6,"10,4,11,14,15,3,6,2,1,8,7,13,5,12,9"
15203,commdev-image-keyboard-response,559,3675878,learnblock2,585.2999999523163,img/planet12_right.png,12,Community 3,NA,TRUE,j,j,NA,NA,NA,3,6,"10,4,11,14,15,3,6,2,1,8,7,13,5,12,9"
15203,commdev-image-keyboard-response,560,3677131,learnblock2,611.1000001430511,img/planet13_right.png,13,Community 3,NA,TRUE,j,j,NA,NA,NA,3,6,"10,4,11,14,15,3,6,2,1,8,7,13,5,12,9"
15203,commdev-image-keyboard-response,561,3678393,learnblock2,599.1999998092651,img/planet2_left.png,2,Community 2,NA,TRUE,f,f,NA,NA,NA,3,6,"10,4,11,14,15,3,6,2,1,8,7,13,5,12,9"
15203,commdev-image-keyboard-response,562,3679645,learnblock2,522,img/planet6_right.png,6,Community 2,NA,TRUE,j,j,NA,NA,NA,3,6,"10,4,11,14,15,3,6,2,1,8,7,13,5,12,9"
15203,commdev-image-keyboard-response,563,3680898,learnblock2,621.4000000953674,img/planet3_right.png,3,Community 2,NA,TRUE,j,j,NA,NA,NA,3,6,"10,4,11,14,15,3,6,2,1,8,7,13,5,12,9"
15203,commdev-image-keyboard-response,564,3682151,learnblock2,616.5999999046326,img/planet6_right.png,6,Community 2,NA,TRUE,j,j,NA,NA,NA,3,6,"10,4,11,14,15,3,6,2,1,8,7,13,5,12,9"
15203,commdev-image-keyboard-response,565,3683403,learnblock2,595.6999998092651,img/planet8_left.png,8,Community 2,NA,TRUE,f,f,NA,NA,NA,3,6,"10,4,11,14,15,3,6,2,1,8,7,13,5,12,9"
15203,commdev-image-keyboard-response,566,3684656,learnblock2,591.6999998092651,img/planet3_left.png,3,Community 2,NA,TRUE,f,f,NA,NA,NA,3,6,"10,4,11,14,15,3,6,2,1,8,7,13,5,12,9"
15203,commdev-image-keyboard-response,567,3685908,learnblock2,618,img/planet14_right.png,14,Community 1,NA,TRUE,j,j,NA,NA,NA,3,6,"10,4,11,14,15,3,6,2,1,8,7,13,5,12,9"
15203,commdev-image-keyboard-response,568,3687161,learnblock2,582.3000001907349,img/planet4_right.png,4,Community 1,NA,TRUE,j,j,NA,NA,NA,3,6,"10,4,11,14,15,3,6,2,1,8,7,13,5,12,9"
15203,commdev-image-keyboard-response,569,3688414,learnblock2,785.2000000476837,img/planet15_left.png,15,Community 1,NA,TRUE,f,f,NA,NA,NA,3,6,"10,4,11,14,15,3,6,2,1,8,7,13,5,12,9"
15203,commdev-image-keyboard-response,570,3689667,learnblock2,948.6999998092651,img/planet4_left.png,4,Community 1,NA,TRUE,f,f,NA,NA,NA,3,6,"10,4,11,14,15,3,6,2,1,8,7,13,5,12,9"
15203,commdev-image-keyboard-response,571,3690919,learnblock2,991.3999998569489,img/planet10_right.png,10,Community 1,NA,TRUE,j,j,NA,NA,NA,3,6,"10,4,11,14,15,3,6,2,1,8,7,13,5,12,9"
15203,commdev-image-keyboard-response,572,3692172,learnblock2,787.3000001907349,img/planet11_right.png,11,Community 1,NA,TRUE,j,j,NA,NA,NA,3,6,"10,4,11,14,15,3,6,2,1,8,7,13,5,12,9"
15203,commdev-image-keyboard-response,573,3693425,learnblock2,654,img/planet14_right.png,14,Community 1,NA,TRUE,j,j,NA,NA,NA,3,6,"10,4,11,14,15,3,6,2,1,8,7,13,5,12,9"
15203,commdev-image-keyboard-response,574,3694678,learnblock2,698,img/planet3_left.png,3,Community 2,NA,TRUE,f,f,NA,NA,NA,3,6,"10,4,11,14,15,3,6,2,1,8,7,13,5,12,9"
15203,commdev-image-keyboard-response,575,3695930,learnblock2,676.7999999523163,img/planet8_right.png,8,Community 2,NA,TRUE,j,j,NA,NA,NA,3,6,"10,4,11,14,15,3,6,2,1,8,7,13,5,12,9"
15203,commdev-image-keyboard-response,576,3697183,learnblock2,616.6000001430511,img/planet1_right.png,1,Community 2,NA,FALSE,f,j,NA,NA,NA,3,6,"10,4,11,14,15,3,6,2,1,8,7,13,5,12,9"
15203,commdev-image-keyboard-response,577,3698435,learnblock2,564.0999999046326,img/planet8_left.png,8,Community 2,NA,TRUE,f,f,NA,NA,NA,3,6,"10,4,11,14,15,3,6,2,1,8,7,13,5,12,9"
15203,commdev-image-keyboard-response,578,3699688,learnblock2,551.7000000476837,img/planet2_right.png,2,Community 2,NA,TRUE,j,j,NA,NA,NA,3,6,"10,4,11,14,15,3,6,2,1,8,7,13,5,12,9"
15203,commdev-image-keyboard-response,579,3700941,learnblock2,602.3000001907349,img/planet6_left.png,6,Community 2,NA,TRUE,f,f,NA,NA,NA,3,6,"10,4,11,14,15,3,6,2,1,8,7,13,5,12,9"
15203,commdev-image-keyboard-response,580,3702194,learnblock2,621.5,img/planet3_right.png,3,Community 2,NA,TRUE,j,j,NA,NA,NA,3,6,"10,4,11,14,15,3,6,2,1,8,7,13,5,12,9"
15203,commdev-image-keyboard-response,581,3703446,learnblock2,600.4000000953674,img/planet14_left.png,14,Community 1,NA,TRUE,f,f,NA,NA,NA,3,6,"10,4,11,14,15,3,6,2,1,8,7,13,5,12,9"
15203,commdev-image-keyboard-response,582,3704699,learnblock2,604.0999999046326,img/planet3_right.png,3,Community 2,NA,TRUE,j,j,NA,NA,NA,3,6,"10,4,11,14,15,3,6,2,1,8,7,13,5,12,9"
15203,commdev-image-keyboard-response,583,3705952,learnblock2,831.2000000476837,img/planet14_right.png,14,Community 1,NA,TRUE,j,j,NA,NA,NA,3,6,"10,4,11,14,15,3,6,2,1,8,7,13,5,12,9"
15203,commdev-image-keyboard-response,584,3707204,learnblock2,690.2999999523163,img/planet11_left.png,11,Community 1,NA,TRUE,f,f,NA,NA,NA,3,6,"10,4,11,14,15,3,6,2,1,8,7,13,5,12,9"
15203,commdev-image-keyboard-response,585,3708457,learnblock2,662.3999998569489,img/planet10_left.png,10,Community 1,NA,TRUE,f,f,NA,NA,NA,3,6,"10,4,11,14,15,3,6,2,1,8,7,13,5,12,9"
15203,commdev-image-keyboard-response,586,3709710,learnblock2,617.7999999523163,img/planet14_right.png,14,Community 1,NA,TRUE,j,j,NA,NA,NA,3,6,"10,4,11,14,15,3,6,2,1,8,7,13,5,12,9"
15203,commdev-image-keyboard-response,587,3710963,learnblock2,572.7000000476837,img/planet4_left.png,4,Community 1,NA,TRUE,f,f,NA,NA,NA,3,6,"10,4,11,14,15,3,6,2,1,8,7,13,5,12,9"
15203,commdev-image-keyboard-response,588,3712216,learnblock2,728,img/planet11_left.png,11,Community 1,NA,TRUE,f,f,NA,NA,NA,3,6,"10,4,11,14,15,3,6,2,1,8,7,13,5,12,9"
15203,commdev-image-keyboard-response,589,3713469,learnblock2,610.5,img/planet10_left.png,10,Community 1,NA,TRUE,f,f,NA,NA,NA,3,6,"10,4,11,14,15,3,6,2,1,8,7,13,5,12,9"
15203,commdev-image-keyboard-response,590,3714722,learnblock2,621.7000000476837,img/planet14_right.png,14,Community 1,NA,TRUE,j,j,NA,NA,NA,3,6,"10,4,11,14,15,3,6,2,1,8,7,13,5,12,9"
15203,commdev-image-keyboard-response,591,3715975,learnblock2,673,img/planet10_right.png,10,Community 1,NA,TRUE,j,j,NA,NA,NA,3,6,"10,4,11,14,15,3,6,2,1,8,7,13,5,12,9"
15203,commdev-image-keyboard-response,592,3717228,learnblock2,620.1999998092651,img/planet11_right.png,11,Community 1,NA,TRUE,j,j,NA,NA,NA,3,6,"10,4,11,14,15,3,6,2,1,8,7,13,5,12,9"
15203,commdev-image-keyboard-response,593,3718480,learnblock2,566.5,img/planet4_right.png,4,Community 1,NA,TRUE,j,j,NA,NA,NA,3,6,"10,4,11,14,15,3,6,2,1,8,7,13,5,12,9"
15203,commdev-image-keyboard-response,594,3719734,learnblock2,801.8999998569489,img/planet15_right.png,15,Community 1,NA,FALSE,f,j,NA,NA,NA,3,6,"10,4,11,14,15,3,6,2,1,8,7,13,5,12,9"
15203,commdev-image-keyboard-response,595,3720987,learnblock2,596.5999999046326,img/planet7_right.png,7,Community 3,NA,TRUE,j,j,NA,NA,NA,3,6,"10,4,11,14,15,3,6,2,1,8,7,13,5,12,9"
15203,commdev-image-keyboard-response,596,3722240,learnblock2,560.0999999046326,img/planet5_right.png,5,Community 3,NA,TRUE,j,j,NA,NA,NA,3,6,"10,4,11,14,15,3,6,2,1,8,7,13,5,12,9"
15203,commdev-image-keyboard-response,597,3723493,learnblock2,474.7000000476837,img/planet12_left.png,12,Community 3,NA,TRUE,f,f,NA,NA,NA,3,6,"10,4,11,14,15,3,6,2,1,8,7,13,5,12,9"
15203,commdev-image-keyboard-response,598,3724746,learnblock2,597.5,img/planet5_left.png,5,Community 3,NA,TRUE,f,f,NA,NA,NA,3,6,"10,4,11,14,15,3,6,2,1,8,7,13,5,12,9"
15203,commdev-image-keyboard-response,599,3725999,learnblock2,544.9000000953674,img/planet12_right.png,12,Community 3,NA,TRUE,j,j,NA,NA,NA,3,6,"10,4,11,14,15,3,6,2,1,8,7,13,5,12,9"
15203,commdev-image-keyboard-response,600,3727258,learnblock2,876.5,img/planet13_left.png,13,Community 3,NA,TRUE,f,f,NA,NA,NA,3,6,"10,4,11,14,15,3,6,2,1,8,7,13,5,12,9"
15203,commdev-image-keyboard-response,601,3728514,learnblock2,592.5,img/planet9_right.png,9,Community 3,NA,TRUE,j,j,NA,NA,NA,3,6,"10,4,11,14,15,3,6,2,1,8,7,13,5,12,9"
15203,commdev-image-keyboard-response,602,3729766,learnblock2,633,img/planet5_right.png,5,Community 3,NA,TRUE,j,j,NA,NA,NA,3,6,"10,4,11,14,15,3,6,2,1,8,7,13,5,12,9"
15203,commdev-image-keyboard-response,603,3731019,learnblock2,757,img/planet7_right.png,7,Community 3,NA,TRUE,j,j,NA,NA,NA,3,6,"10,4,11,14,15,3,6,2,1,8,7,13,5,12,9"
15203,commdev-image-keyboard-response,604,3732271,learnblock2,583.5,img/planet15_left.png,15,Community 1,NA,TRUE,f,f,NA,NA,NA,3,6,"10,4,11,14,15,3,6,2,1,8,7,13,5,12,9"
15203,commdev-image-keyboard-response,605,3733525,learnblock2,786.9000000953674,img/planet10_right.png,10,Community 1,NA,TRUE,j,j,NA,NA,NA,3,6,"10,4,11,14,15,3,6,2,1,8,7,13,5,12,9"
15203,commdev-image-keyboard-response,606,3734778,learnblock2,893.5,img/planet15_left.png,15,Community 1,NA,TRUE,f,f,NA,NA,NA,3,6,"10,4,11,14,15,3,6,2,1,8,7,13,5,12,9"
15203,commdev-image-keyboard-response,607,3736032,learnblock2,632.6000001430511,img/planet10_right.png,10,Community 1,NA,TRUE,j,j,NA,NA,NA,3,6,"10,4,11,14,15,3,6,2,1,8,7,13,5,12,9"
15203,commdev-image-keyboard-response,608,3737284,learnblock2,1027.2000000476837,img/planet14_right.png,14,Community 1,NA,TRUE,j,j,NA,NA,NA,3,6,"10,4,11,14,15,3,6,2,1,8,7,13,5,12,9"
15203,commdev-image-keyboard-response,609,3738537,learnblock2,757.6000001430511,img/planet3_right.png,3,Community 2,NA,FALSE,f,j,NA,NA,NA,3,6,"10,4,11,14,15,3,6,2,1,8,7,13,5,12,9"
15203,commdev-image-keyboard-response,610,3739790,learnblock2,601,img/planet8_left.png,8,Community 2,NA,TRUE,f,f,NA,NA,NA,3,6,"10,4,11,14,15,3,6,2,1,8,7,13,5,12,9"
15203,commdev-image-keyboard-response,611,3741044,learnblock2,708.6000001430511,img/planet3_right.png,3,Community 2,NA,TRUE,j,j,NA,NA,NA,3,6,"10,4,11,14,15,3,6,2,1,8,7,13,5,12,9"
15203,commdev-image-keyboard-response,612,3742296,learnblock2,654.1999998092651,img/planet8_left.png,8,Community 2,NA,TRUE,f,f,NA,NA,NA,3,6,"10,4,11,14,15,3,6,2,1,8,7,13,5,12,9"
15203,commdev-image-keyboard-response,613,3743549,learnblock2,657.8000001907349,img/planet2_left.png,2,Community 2,NA,TRUE,f,f,NA,NA,NA,3,6,"10,4,11,14,15,3,6,2,1,8,7,13,5,12,9"
15203,commdev-image-keyboard-response,614,3744803,learnblock2,613.0999999046326,img/planet6_right.png,6,Community 2,NA,TRUE,j,j,NA,NA,NA,3,6,"10,4,11,14,15,3,6,2,1,8,7,13,5,12,9"
15203,commdev-image-keyboard-response,615,3746069,learnblock2,647.2999999523163,img/planet2_right.png,2,Community 2,NA,TRUE,j,j,NA,NA,NA,3,6,"10,4,11,14,15,3,6,2,1,8,7,13,5,12,9"
15203,commdev-image-keyboard-response,616,3747323,learnblock2,573.1000001430511,img/planet1_left.png,1,Community 2,NA,TRUE,f,f,NA,NA,NA,3,6,"10,4,11,14,15,3,6,2,1,8,7,13,5,12,9"
15203,commdev-image-keyboard-response,617,3748575,learnblock2,624.0999999046326,img/planet3_right.png,3,Community 2,NA,TRUE,j,j,NA,NA,NA,3,6,"10,4,11,14,15,3,6,2,1,8,7,13,5,12,9"
15203,commdev-image-keyboard-response,618,3749828,learnblock2,603.2000000476837,img/planet6_left.png,6,Community 2,NA,TRUE,f,f,NA,NA,NA,3,6,"10,4,11,14,15,3,6,2,1,8,7,13,5,12,9"
15203,commdev-image-keyboard-response,619,3751081,learnblock2,686.2999999523163,img/planet3_right.png,3,Community 2,NA,TRUE,j,j,NA,NA,NA,3,6,"10,4,11,14,15,3,6,2,1,8,7,13,5,12,9"
15203,commdev-image-keyboard-response,620,3752334,learnblock2,null,img/planet6_left.png,6,Community 2,NA,FALSE,null,f,NA,NA,NA,3,6,"10,4,11,14,15,3,6,2,1,8,7,13,5,12,9"
15203,commdev-image-keyboard-response,621,3753586,learnblock2,828.8999998569489,img/planet2_right.png,2,Community 2,NA,TRUE,j,j,NA,NA,NA,3,6,"10,4,11,14,15,3,6,2,1,8,7,13,5,12,9"
15203,commdev-image-keyboard-response,622,3754839,learnblock2,928.5999999046326,img/planet13_left.png,13,Community 3,NA,TRUE,f,f,NA,NA,NA,3,6,"10,4,11,14,15,3,6,2,1,8,7,13,5,12,9"
15203,commdev-image-keyboard-response,623,3756091,learnblock2,708.1000001430511,img/planet5_right.png,5,Community 3,NA,TRUE,j,j,NA,NA,NA,3,6,"10,4,11,14,15,3,6,2,1,8,7,13,5,12,9"
15203,commdev-image-keyboard-response,624,3757344,learnblock2,655.3999998569489,img/planet12_left.png,12,Community 3,NA,TRUE,f,f,NA,NA,NA,3,6,"10,4,11,14,15,3,6,2,1,8,7,13,5,12,9"
15203,commdev-image-keyboard-response,625,3758597,learnblock2,754.5,img/planet5_right.png,5,Community 3,NA,TRUE,j,j,NA,NA,NA,3,6,"10,4,11,14,15,3,6,2,1,8,7,13,5,12,9"
15203,commdev-image-keyboard-response,626,3759850,learnblock2,589.2000000476837,img/planet9_right.png,9,Community 3,NA,TRUE,j,j,NA,NA,NA,3,6,"10,4,11,14,15,3,6,2,1,8,7,13,5,12,9"
15203,commdev-image-keyboard-response,627,3761104,learnblock2,664.7000000476837,img/planet12_left.png,12,Community 3,NA,TRUE,f,f,NA,NA,NA,3,6,"10,4,11,14,15,3,6,2,1,8,7,13,5,12,9"
15203,commdev-image-keyboard-response,628,3762356,learnblock2,746.9000000953674,img/planet13_right.png,13,Community 3,NA,TRUE,j,j,NA,NA,NA,3,6,"10,4,11,14,15,3,6,2,1,8,7,13,5,12,9"
15203,commdev-image-keyboard-response,629,3763609,learnblock2,1037.9000000953674,img/planet2_left.png,2,Community 2,NA,TRUE,f,f,NA,NA,NA,3,6,"10,4,11,14,15,3,6,2,1,8,7,13,5,12,9"
15203,commdev-image-keyboard-response,630,3764862,learnblock2,641,img/planet6_right.png,6,Community 2,NA,TRUE,j,j,NA,NA,NA,3,6,"10,4,11,14,15,3,6,2,1,8,7,13,5,12,9"
15203,commdev-image-keyboard-response,631,3766115,learnblock2,708.5,img/planet2_left.png,2,Community 2,NA,TRUE,f,f,NA,NA,NA,3,6,"10,4,11,14,15,3,6,2,1,8,7,13,5,12,9"
15203,commdev-image-keyboard-response,632,3767367,learnblock2,247.79999995231628,img/planet6_left.png,6,Community 2,NA,TRUE,f,f,NA,NA,NA,3,6,"10,4,11,14,15,3,6,2,1,8,7,13,5,12,9"
15203,commdev-image-keyboard-response,633,3768619,learnblock2,635.5,img/planet8_left.png,8,Community 2,NA,TRUE,f,f,NA,NA,NA,3,6,"10,4,11,14,15,3,6,2,1,8,7,13,5,12,9"
15203,commdev-image-keyboard-response,634,3769872,learnblock2,639.4000000953674,img/planet3_right.png,3,Community 2,NA,TRUE,j,j,NA,NA,NA,3,6,"10,4,11,14,15,3,6,2,1,8,7,13,5,12,9"
15203,commdev-image-keyboard-response,635,3771125,learnblock2,690.1999998092651,img/planet1_right.png,1,Community 2,NA,TRUE,j,j,NA,NA,NA,3,6,"10,4,11,14,15,3,6,2,1,8,7,13,5,12,9"
15203,commdev-image-keyboard-response,636,3772377,learnblock2,813.7999999523163,img/planet8_left.png,8,Community 2,NA,TRUE,f,f,NA,NA,NA,3,6,"10,4,11,14,15,3,6,2,1,8,7,13,5,12,9"
15203,commdev-image-keyboard-response,637,3773630,learnblock2,697,img/planet3_right.png,3,Community 2,NA,TRUE,j,j,NA,NA,NA,3,6,"10,4,11,14,15,3,6,2,1,8,7,13,5,12,9"
15203,commdev-image-keyboard-response,638,3774884,learnblock2,755.9000000953674,img/planet8_left.png,8,Community 2,NA,TRUE,f,f,NA,NA,NA,3,6,"10,4,11,14,15,3,6,2,1,8,7,13,5,12,9"
15203,commdev-image-keyboard-response,639,3776136,learnblock2,662.9000000953674,img/planet3_left.png,3,Community 2,NA,TRUE,f,f,NA,NA,NA,3,6,"10,4,11,14,15,3,6,2,1,8,7,13,5,12,9"
15203,commdev-image-keyboard-response,640,3777389,learnblock2,617.7999999523163,img/planet14_right.png,14,Community 1,NA,TRUE,j,j,NA,NA,NA,3,6,"10,4,11,14,15,3,6,2,1,8,7,13,5,12,9"
15203,commdev-image-keyboard-response,641,3778643,learnblock2,661.0999999046326,img/planet11_left.png,11,Community 1,NA,TRUE,f,f,NA,NA,NA,3,6,"10,4,11,14,15,3,6,2,1,8,7,13,5,12,9"
15203,commdev-image-keyboard-response,642,3779896,learnblock2,543.1000001430511,img/planet14_right.png,14,Community 1,NA,TRUE,j,j,NA,NA,NA,3,6,"10,4,11,14,15,3,6,2,1,8,7,13,5,12,9"
15203,commdev-image-keyboard-response,643,3781149,learnblock2,634.6000001430511,img/planet3_left.png,3,Community 2,NA,TRUE,f,f,NA,NA,NA,3,6,"10,4,11,14,15,3,6,2,1,8,7,13,5,12,9"
15203,commdev-image-keyboard-response,644,3782402,learnblock2,533.4000000953674,img/planet1_left.png,1,Community 2,NA,TRUE,f,f,NA,NA,NA,3,6,"10,4,11,14,15,3,6,2,1,8,7,13,5,12,9"
15203,commdev-image-keyboard-response,645,3783655,learnblock2,640,img/planet2_left.png,2,Community 2,NA,TRUE,f,f,NA,NA,NA,3,6,"10,4,11,14,15,3,6,2,1,8,7,13,5,12,9"
15203,commdev-image-keyboard-response,646,3784907,learnblock2,611.5,img/planet8_left.png,8,Community 2,NA,TRUE,f,f,NA,NA,NA,3,6,"10,4,11,14,15,3,6,2,1,8,7,13,5,12,9"
15203,commdev-image-keyboard-response,647,3786160,learnblock2,535.2000000476837,img/planet3_right.png,3,Community 2,NA,TRUE,j,j,NA,NA,NA,3,6,"10,4,11,14,15,3,6,2,1,8,7,13,5,12,9"
15203,commdev-image-keyboard-response,648,3787414,learnblock2,530.6000001430511,img/planet1_right.png,1,Community 2,NA,TRUE,j,j,NA,NA,NA,3,6,"10,4,11,14,15,3,6,2,1,8,7,13,5,12,9"
15203,commdev-image-keyboard-response,649,3788667,learnblock2,580.7000000476837,img/planet6_left.png,6,Community 2,NA,TRUE,f,f,NA,NA,NA,3,6,"10,4,11,14,15,3,6,2,1,8,7,13,5,12,9"
15203,commdev-image-keyboard-response,650,3789920,learnblock2,567.7000000476837,img/planet1_left.png,1,Community 2,NA,TRUE,f,f,NA,NA,NA,3,6,"10,4,11,14,15,3,6,2,1,8,7,13,5,12,9"
15203,commdev-image-keyboard-response,651,3791174,learnblock2,522.7999999523163,img/planet3_right.png,3,Community 2,NA,TRUE,j,j,NA,NA,NA,3,6,"10,4,11,14,15,3,6,2,1,8,7,13,5,12,9"
15203,commdev-image-keyboard-response,652,3792429,learnblock2,644.9000000953674,img/planet1_right.png,1,Community 2,NA,FALSE,f,j,NA,NA,NA,3,6,"10,4,11,14,15,3,6,2,1,8,7,13,5,12,9"
15203,commdev-image-keyboard-response,653,3793682,learnblock2,524.2999999523163,img/planet6_right.png,6,Community 2,NA,TRUE,j,j,NA,NA,NA,3,6,"10,4,11,14,15,3,6,2,1,8,7,13,5,12,9"
15203,commdev-image-keyboard-response,654,3794934,learnblock2,577.2000000476837,img/planet2_left.png,2,Community 2,NA,TRUE,f,f,NA,NA,NA,3,6,"10,4,11,14,15,3,6,2,1,8,7,13,5,12,9"
15203,commdev-image-keyboard-response,655,3796186,learnblock2,572.2000000476837,img/planet8_left.png,8,Community 2,NA,TRUE,f,f,NA,NA,NA,3,6,"10,4,11,14,15,3,6,2,1,8,7,13,5,12,9"
15203,commdev-image-keyboard-response,656,3797439,learnblock2,655.4000000953674,img/planet1_right.png,1,Community 2,NA,TRUE,j,j,NA,NA,NA,3,6,"10,4,11,14,15,3,6,2,1,8,7,13,5,12,9"
15203,commdev-image-keyboard-response,657,3798692,learnblock2,707.0999999046326,img/planet3_left.png,3,Community 2,NA,TRUE,f,f,NA,NA,NA,3,6,"10,4,11,14,15,3,6,2,1,8,7,13,5,12,9"
15203,commdev-image-keyboard-response,658,3799956,learnblock2,678.7000000476837,img/planet14_right.png,14,Community 1,NA,TRUE,j,j,NA,NA,NA,3,6,"10,4,11,14,15,3,6,2,1,8,7,13,5,12,9"
15203,commdev-image-keyboard-response,659,3801209,learnblock2,782,img/planet11_left.png,11,Community 1,NA,TRUE,f,f,NA,NA,NA,3,6,"10,4,11,14,15,3,6,2,1,8,7,13,5,12,9"
15203,commdev-image-keyboard-response,660,3802462,learnblock2,697.7000000476837,img/planet4_right.png,4,Community 1,NA,TRUE,j,j,NA,NA,NA,3,6,"10,4,11,14,15,3,6,2,1,8,7,13,5,12,9"
15203,commdev-image-keyboard-response,661,3803715,learnblock2,788.4000000953674,img/planet14_right.png,14,Community 1,NA,TRUE,j,j,NA,NA,NA,3,6,"10,4,11,14,15,3,6,2,1,8,7,13,5,12,9"
15203,commdev-image-keyboard-response,662,3804969,learnblock2,831.5999999046326,img/planet4_right.png,4,Community 1,NA,TRUE,j,j,NA,NA,NA,3,6,"10,4,11,14,15,3,6,2,1,8,7,13,5,12,9"
15203,commdev-image-keyboard-response,663,3806222,learnblock2,753.3999998569489,img/planet14_left.png,14,Community 1,NA,TRUE,f,f,NA,NA,NA,3,6,"10,4,11,14,15,3,6,2,1,8,7,13,5,12,9"
15203,commdev-image-keyboard-response,664,3807475,learnblock2,732.4000000953674,img/planet4_right.png,4,Community 1,NA,TRUE,j,j,NA,NA,NA,3,6,"10,4,11,14,15,3,6,2,1,8,7,13,5,12,9"
15203,commdev-image-keyboard-response,665,3808728,learnblock2,631.1999998092651,img/planet15_left.png,15,Community 1,NA,TRUE,f,f,NA,NA,NA,3,6,"10,4,11,14,15,3,6,2,1,8,7,13,5,12,9"
15203,commdev-image-keyboard-response,666,3809980,learnblock2,571.2000000476837,img/planet7_right.png,7,Community 3,NA,TRUE,j,j,NA,NA,NA,3,6,"10,4,11,14,15,3,6,2,1,8,7,13,5,12,9"
15203,commdev-image-keyboard-response,667,3811233,learnblock2,622.1000001430511,img/planet15_right.png,15,Community 1,NA,TRUE,j,j,NA,NA,NA,3,6,"10,4,11,14,15,3,6,2,1,8,7,13,5,12,9"
15203,commdev-image-keyboard-response,668,3812486,learnblock2,681.4000000953674,img/planet7_right.png,7,Community 3,NA,TRUE,j,j,NA,NA,NA,3,6,"10,4,11,14,15,3,6,2,1,8,7,13,5,12,9"
15203,commdev-image-keyboard-response,669,3813739,learnblock2,731.9000000953674,img/planet15_right.png,15,Community 1,NA,TRUE,j,j,NA,NA,NA,3,6,"10,4,11,14,15,3,6,2,1,8,7,13,5,12,9"
15203,commdev-image-keyboard-response,670,3814992,learnblock2,878.6000001430511,img/planet4_right.png,4,Community 1,NA,TRUE,j,j,NA,NA,NA,3,6,"10,4,11,14,15,3,6,2,1,8,7,13,5,12,9"
15203,commdev-image-keyboard-response,671,3816245,learnblock2,674.2000000476837,img/planet10_right.png,10,Community 1,NA,TRUE,j,j,NA,NA,NA,3,6,"10,4,11,14,15,3,6,2,1,8,7,13,5,12,9"
15203,commdev-image-keyboard-response,672,3817497,learnblock2,622,img/planet14_left.png,14,Community 1,NA,TRUE,f,f,NA,NA,NA,3,6,"10,4,11,14,15,3,6,2,1,8,7,13,5,12,9"
15203,commdev-image-keyboard-response,673,3818750,learnblock2,633.5,img/planet3_left.png,3,Community 2,NA,TRUE,f,f,NA,NA,NA,3,6,"10,4,11,14,15,3,6,2,1,8,7,13,5,12,9"
15203,commdev-image-keyboard-response,674,3820004,learnblock2,635.9000000953674,img/planet6_left.png,6,Community 2,NA,TRUE,f,f,NA,NA,NA,3,6,"10,4,11,14,15,3,6,2,1,8,7,13,5,12,9"
15203,commdev-image-keyboard-response,675,3821256,learnblock2,495.10000014305115,img/planet8_right.png,8,Community 2,NA,TRUE,j,j,NA,NA,NA,3,6,"10,4,11,14,15,3,6,2,1,8,7,13,5,12,9"
15203,commdev-image-keyboard-response,676,3822522,learnblock2,683,img/planet2_right.png,2,Community 2,NA,TRUE,j,j,NA,NA,NA,3,6,"10,4,11,14,15,3,6,2,1,8,7,13,5,12,9"
15203,commdev-image-keyboard-response,677,3823775,learnblock2,720.0999999046326,img/planet13_right.png,13,Community 3,NA,TRUE,j,j,NA,NA,NA,3,6,"10,4,11,14,15,3,6,2,1,8,7,13,5,12,9"
15203,commdev-image-keyboard-response,678,3825028,learnblock2,619.7000000476837,img/planet12_right.png,12,Community 3,NA,TRUE,j,j,NA,NA,NA,3,6,"10,4,11,14,15,3,6,2,1,8,7,13,5,12,9"
15203,commdev-image-keyboard-response,679,3826281,learnblock2,605.9000000953674,img/planet7_left.png,7,Community 3,NA,TRUE,f,f,NA,NA,NA,3,6,"10,4,11,14,15,3,6,2,1,8,7,13,5,12,9"
15203,commdev-image-keyboard-response,680,3827534,learnblock2,593.2000000476837,img/planet15_left.png,15,Community 1,NA,TRUE,f,f,NA,NA,NA,3,6,"10,4,11,14,15,3,6,2,1,8,7,13,5,12,9"
15203,commdev-image-keyboard-response,681,3828786,learnblock2,580.6000001430511,img/planet10_right.png,10,Community 1,NA,TRUE,j,j,NA,NA,NA,3,6,"10,4,11,14,15,3,6,2,1,8,7,13,5,12,9"
15203,commdev-image-keyboard-response,682,3830039,learnblock2,631.6000001430511,img/planet14_left.png,14,Community 1,NA,TRUE,f,f,NA,NA,NA,3,6,"10,4,11,14,15,3,6,2,1,8,7,13,5,12,9"
15203,commdev-image-keyboard-response,683,3831292,learnblock2,619.9000000953674,img/planet10_right.png,10,Community 1,NA,TRUE,j,j,NA,NA,NA,3,6,"10,4,11,14,15,3,6,2,1,8,7,13,5,12,9"
15203,commdev-image-keyboard-response,684,3832545,learnblock2,621.8000001907349,img/planet4_right.png,4,Community 1,NA,TRUE,j,j,NA,NA,NA,3,6,"10,4,11,14,15,3,6,2,1,8,7,13,5,12,9"
15203,commdev-image-keyboard-response,685,3833797,learnblock2,642.1000001430511,img/planet14_right.png,14,Community 1,NA,TRUE,j,j,NA,NA,NA,3,6,"10,4,11,14,15,3,6,2,1,8,7,13,5,12,9"
15203,commdev-image-keyboard-response,686,3835050,learnblock2,613.2999999523163,img/planet3_left.png,3,Community 2,NA,TRUE,f,f,NA,NA,NA,3,6,"10,4,11,14,15,3,6,2,1,8,7,13,5,12,9"
15203,commdev-image-keyboard-response,687,3836303,learnblock2,512.2000000476837,img/planet1_right.png,1,Community 2,NA,TRUE,j,j,NA,NA,NA,3,6,"10,4,11,14,15,3,6,2,1,8,7,13,5,12,9"
15203,commdev-image-keyboard-response,688,3837555,learnblock2,747.7000000476837,img/planet6_right.png,6,Community 2,NA,TRUE,j,j,NA,NA,NA,3,6,"10,4,11,14,15,3,6,2,1,8,7,13,5,12,9"
15203,commdev-image-keyboard-response,689,3838808,learnblock2,566.7999999523163,img/planet1_right.png,1,Community 2,NA,TRUE,j,j,NA,NA,NA,3,6,"10,4,11,14,15,3,6,2,1,8,7,13,5,12,9"
15203,commdev-image-keyboard-response,690,3840061,learnblock2,562.2000000476837,img/planet2_left.png,2,Community 2,NA,FALSE,j,f,NA,NA,NA,3,6,"10,4,11,14,15,3,6,2,1,8,7,13,5,12,9"
15203,commdev-image-keyboard-response,691,3841314,learnblock2,573.0999999046326,img/planet1_right.png,1,Community 2,NA,TRUE,j,j,NA,NA,NA,3,6,"10,4,11,14,15,3,6,2,1,8,7,13,5,12,9"
15203,commdev-image-keyboard-response,692,3842567,learnblock2,600.2000000476837,img/planet3_left.png,3,Community 2,NA,TRUE,f,f,NA,NA,NA,3,6,"10,4,11,14,15,3,6,2,1,8,7,13,5,12,9"
15203,commdev-image-keyboard-response,693,3843824,learnblock2,603.9000000953674,img/planet1_right.png,1,Community 2,NA,TRUE,j,j,NA,NA,NA,3,6,"10,4,11,14,15,3,6,2,1,8,7,13,5,12,9"
15203,commdev-image-keyboard-response,694,3845077,learnblock2,651,img/planet6_right.png,6,Community 2,NA,TRUE,j,j,NA,NA,NA,3,6,"10,4,11,14,15,3,6,2,1,8,7,13,5,12,9"
15203,commdev-image-keyboard-response,695,3846330,learnblock2,565.4000000953674,img/planet1_left.png,1,Community 2,NA,TRUE,f,f,NA,NA,NA,3,6,"10,4,11,14,15,3,6,2,1,8,7,13,5,12,9"
15203,commdev-image-keyboard-response,696,3847583,learnblock2,488.80000019073486,img/planet2_left.png,2,Community 2,NA,TRUE,f,f,NA,NA,NA,3,6,"10,4,11,14,15,3,6,2,1,8,7,13,5,12,9"
15203,commdev-image-keyboard-response,697,3848836,learnblock2,619.1999998092651,img/planet6_left.png,6,Community 2,NA,TRUE,f,f,NA,NA,NA,3,6,"10,4,11,14,15,3,6,2,1,8,7,13,5,12,9"
15203,commdev-image-keyboard-response,698,3850088,learnblock2,583.1000001430511,img/planet8_right.png,8,Community 2,NA,TRUE,j,j,NA,NA,NA,3,6,"10,4,11,14,15,3,6,2,1,8,7,13,5,12,9"
15203,commdev-image-keyboard-response,699,3851342,learnblock2,593.7999999523163,img/planet2_right.png,2,Community 2,NA,TRUE,j,j,NA,NA,NA,3,6,"10,4,11,14,15,3,6,2,1,8,7,13,5,12,9"
15203,commdev-image-keyboard-response,700,3852595,learnblock2,564.3999998569489,img/planet1_left.png,1,Community 2,NA,TRUE,f,f,NA,NA,NA,3,6,"10,4,11,14,15,3,6,2,1,8,7,13,5,12,9"
15203,commdev-image-keyboard-response,701,3853848,learnblock2,591.7000000476837,img/planet8_right.png,8,Community 2,NA,TRUE,j,j,NA,NA,NA,3,6,"10,4,11,14,15,3,6,2,1,8,7,13,5,12,9"
15203,commdev-image-keyboard-response,702,3855101,learnblock2,539.2000000476837,img/planet1_left.png,1,Community 2,NA,TRUE,f,f,NA,NA,NA,3,6,"10,4,11,14,15,3,6,2,1,8,7,13,5,12,9"
15203,commdev-image-keyboard-response,703,3856354,learnblock2,622.2999999523163,img/planet3_left.png,3,Community 2,NA,TRUE,f,f,NA,NA,NA,3,6,"10,4,11,14,15,3,6,2,1,8,7,13,5,12,9"
15203,commdev-image-keyboard-response,704,3857607,learnblock2,544.4000000953674,img/planet1_left.png,1,Community 2,NA,TRUE,f,f,NA,NA,NA,3,6,"10,4,11,14,15,3,6,2,1,8,7,13,5,12,9"
15203,commdev-image-keyboard-response,705,3858860,learnblock2,419.89999985694885,img/planet2_right.png,2,Community 2,NA,TRUE,j,j,NA,NA,NA,3,6,"10,4,11,14,15,3,6,2,1,8,7,13,5,12,9"
15203,commdev-image-keyboard-response,706,3860113,learnblock2,558.9000000953674,img/planet8_left.png,8,Community 2,NA,TRUE,f,f,NA,NA,NA,3,6,"10,4,11,14,15,3,6,2,1,8,7,13,5,12,9"
15203,commdev-image-keyboard-response,707,3861366,learnblock2,745.2000000476837,img/planet6_left.png,6,Community 2,NA,TRUE,f,f,NA,NA,NA,3,6,"10,4,11,14,15,3,6,2,1,8,7,13,5,12,9"
15203,commdev-image-keyboard-response,708,3862619,learnblock2,724.5,img/planet3_left.png,3,Community 2,NA,TRUE,f,f,NA,NA,NA,3,6,"10,4,11,14,15,3,6,2,1,8,7,13,5,12,9"
15203,commdev-image-keyboard-response,709,3863872,learnblock2,599.7000000476837,img/planet8_right.png,8,Community 2,NA,TRUE,j,j,NA,NA,NA,3,6,"10,4,11,14,15,3,6,2,1,8,7,13,5,12,9"
15203,commdev-image-keyboard-response,710,3865124,learnblock2,538.5999999046326,img/planet3_left.png,3,Community 2,NA,TRUE,f,f,NA,NA,NA,3,6,"10,4,11,14,15,3,6,2,1,8,7,13,5,12,9"
15203,commdev-image-keyboard-response,711,3866377,learnblock2,518.1000001430511,img/planet6_left.png,6,Community 2,NA,FALSE,j,f,NA,NA,NA,3,6,"10,4,11,14,15,3,6,2,1,8,7,13,5,12,9"
15203,commdev-image-keyboard-response,712,3867630,learnblock2,649.4000000953674,img/planet1_right.png,1,Community 2,NA,TRUE,j,j,NA,NA,NA,3,6,"10,4,11,14,15,3,6,2,1,8,7,13,5,12,9"
15203,commdev-image-keyboard-response,713,3868883,learnblock2,708.8999998569489,img/planet8_right.png,8,Community 2,NA,TRUE,j,j,NA,NA,NA,3,6,"10,4,11,14,15,3,6,2,1,8,7,13,5,12,9"
