subject_id,trial_type,trial_index,time_elapsed,block,rt,stimulus,planet,community,response,correct,key_press,learning_correct_response,parse,init_locations,final_locations,browser_interactions,num_comp,planet_map
14652,commdev-instructions,7,30531,NA,1349.699999988079,"<p>In this game, you will be shown a 3x3 grid of patterns.</p> <p>The last one in the bottom right-hand corner, <strong>will be missing:</strong></p> <div style='width: 700px;'><div style='float: top;'><img style='width: 200px;' src='practice/p1_M1.png'></img><p class='small'>You need to select<strong> which of the four possible patterns </strong>along the bottom<strong> fits into the gap:</strong></p></div><div style='float: top;'><img style='width: 300px;' src='practice/p1_T1.png'></img></div><br>",NA,NA,NA,NA,NA,NA,NA,NA,NA,1,6,"4,8,3,14,7,13,9,15,1,10,12,5,11,2,6"
14652,commdev-instructions,8,50036,NA,1100.6000000238419,"<p>Try to be as fast and as accurate as you can be.</p> <p>If you cannot solve the puzzle then you should guess - you will not be penalised for an incorrect answer.</p> <p>The task contains a shuffled mix of easy, medium and hard puzzles.</p> <p>You will have <strong>30 seconds</strong> to complete each puzzle.</p><br>",NA,NA,NA,NA,NA,NA,NA,NA,NA,1,6,"4,8,3,14,7,13,9,15,1,10,12,5,11,2,6"
14652,commdev-instructions,15,77872,NA,1195,<p><strong>Success!</strong></p> <p>You seem to be getting the hang of this...</p> <p>Let's move on to the real trials.</p><br>,NA,NA,NA,NA,NA,NA,NA,NA,NA,1,6,"4,8,3,14,7,13,9,15,1,10,12,5,11,2,6"
14652,commdev-instructions,178,425634,NA,905.5999999940395,"<p>In this game, you are a scientist on board a space shuttle. </p><p> On each mission, you will visit planets all across the universe.</p><img src=""img/controlroom.jpg"" width=300vw>",NA,NA,NA,NA,NA,NA,NA,NA,NA,1,6,"4,8,3,14,7,13,9,15,1,10,12,5,11,2,6"
14652,commdev-instructions,179,430025,NA,2317.699999988079,"<p>Here are a few planets you might see:</p><img src=""img/practice1.png"" width=200vw><img src=""img/practice2.png"" width=200vw><img src=""img/practice3.png"" width=200vw>",NA,NA,NA,NA,NA,NA,NA,NA,NA,1,6,"4,8,3,14,7,13,9,15,1,10,12,5,11,2,6"
14652,commdev-instructions,180,438385,NA,960.3000000119209,"<p>Your job as a scientist is to record which direction the winds are moving on each planet.</p><p>There are two types of wind directions:</p><img src=""img/practice1_left.png"" width=200vw><img src=""img/practice1_right.png"" width=200vw>",NA,NA,NA,NA,NA,NA,NA,NA,NA,1,6,"4,8,3,14,7,13,9,15,1,10,12,5,11,2,6"
14652,commdev-instructions,181,444445,NA,1180.5999999940395,"<p>If the winds are moving this way, press the letter <strong>F</strong> on the keyboard as fast as you can.</p><img src=""img/leftwind.png"" width=250vw>",NA,NA,NA,NA,NA,NA,NA,NA,NA,1,6,"4,8,3,14,7,13,9,15,1,10,12,5,11,2,6"
14652,commdev-instructions,182,449484,NA,542,"<p>If the winds are moving this way, press the letter <strong>J</strong> on the keyboard as fast as you can.</p><img src=""img/rightwind.png"" width=350vw>",NA,NA,NA,NA,NA,NA,NA,NA,NA,1,6,"4,8,3,14,7,13,9,15,1,10,12,5,11,2,6"
14652,commdev-instructions,183,455771,NA,1860.2999999821186,<p>You will have 1 second to respond. Try to respond before the time runs out!,NA,NA,NA,NA,NA,NA,NA,NA,NA,1,6,"4,8,3,14,7,13,9,15,1,10,12,5,11,2,6"
14652,commdev-instructions,184,461771,NA,568.3000000119209,<p>The planets you will visit will look different from each other.</p><p>You should respond <strong>only</strong> based on wind direction.,NA,NA,NA,NA,NA,NA,NA,NA,NA,1,6,"4,8,3,14,7,13,9,15,1,10,12,5,11,2,6"
14652,commdev-instructions,185,468700,NA,1762,"<p> Ready to start the practice round? </p><p> Remember, press <strong>F</strong> or <strong>J</strong> depending on the wind direction.<br><img src=""img/categorize_planet_example.png""",NA,NA,NA,NA,NA,NA,NA,NA,NA,1,6,"4,8,3,14,7,13,9,15,1,10,12,5,11,2,6"
14652,commdev-instructions,197,524421,NA,2003.6000000238419,"<p>Great, now try a short practice mission. </p><p> This time, you will have 1 second to respond and you won't know whether you pressed the right or wrong key for each planet.</p>",NA,NA,NA,NA,NA,NA,NA,NA,NA,1,6,"4,8,3,14,7,13,9,15,1,10,12,5,11,2,6"
14652,commdev-image-keyboard-response,198,525778,practice,null,img/practice1_left.png,NA,Number not found in mappings,NA,FALSE,null,f,NA,NA,NA,1,6,"4,8,3,14,7,13,9,15,1,10,12,5,11,2,6"
14652,commdev-image-keyboard-response,199,527031,practice,351.09999999403954,img/practice2_left.png,NA,Number not found in mappings,NA,FALSE,j,f,NA,NA,NA,1,6,"4,8,3,14,7,13,9,15,1,10,12,5,11,2,6"
14652,commdev-image-keyboard-response,200,528284,practice,278.69999998807907,img/practice1_left.png,NA,Number not found in mappings,NA,TRUE,f,f,NA,NA,NA,1,6,"4,8,3,14,7,13,9,15,1,10,12,5,11,2,6"
14652,commdev-image-keyboard-response,201,529536,practice,14.600000023841858,img/practice2_left.png,NA,Number not found in mappings,NA,FALSE,j,f,NA,NA,NA,1,6,"4,8,3,14,7,13,9,15,1,10,12,5,11,2,6"
14652,commdev-image-keyboard-response,202,530787,practice,427.10000002384186,img/practice1_right.png,NA,Number not found in mappings,NA,FALSE,f,j,NA,NA,NA,1,6,"4,8,3,14,7,13,9,15,1,10,12,5,11,2,6"
14652,commdev-image-keyboard-response,203,532040,practice,338.59999999403954,img/practice2_left.png,NA,Number not found in mappings,NA,FALSE,j,f,NA,NA,NA,1,6,"4,8,3,14,7,13,9,15,1,10,12,5,11,2,6"
14652,commdev-image-keyboard-response,204,533292,practice,328.2999999821186,img/practice3_left.png,NA,Number not found in mappings,NA,TRUE,f,f,NA,NA,NA,1,6,"4,8,3,14,7,13,9,15,1,10,12,5,11,2,6"
14652,commdev-image-keyboard-response,205,534545,practice,381.19999998807907,img/practice1_right.png,NA,Number not found in mappings,NA,TRUE,j,j,NA,NA,NA,1,6,"4,8,3,14,7,13,9,15,1,10,12,5,11,2,6"
14652,commdev-instructions,206,547063,NA,2963.7999999821186,"<p>Great job with the practice round.</p><p>During real missions, you won't know whether you pressed the right or wrong key for each planet.</p><p>But between missions, we will tell you how you did overall.</p>",NA,NA,NA,NA,NA,NA,NA,NA,NA,1,6,"4,8,3,14,7,13,9,15,1,10,12,5,11,2,6"
14652,commdev-instructions,207,557199,NA,1895.9000000059605,<p>Try your best! You will be paid a bonus based on how many correct responses you make!</p><p>Responses that are too slow will not count toward your bonus.</p>,NA,NA,NA,NA,NA,NA,NA,NA,NA,1,6,"4,8,3,14,7,13,9,15,1,10,12,5,11,2,6"
14652,commdev-instructions,208,557988,NA,NA,NA,NA,NA,NA,NA,NA,NA,NA,NA,NA,1,6,"4,8,3,14,7,13,9,15,1,10,12,5,11,2,6"
14652,commdev-instructions,217,640842,NA,2925.9000000059605,"<p> Nice work! It is now time to start the real game.<p></p>You will go on two missions to record wind directions of different planets.<p></p>Each one will take about 5 minutes. You will get to take a break between missions.<p><p> Remember, press <strong>F</strong> or <strong>J</strong> depending on the wind direction. Good luck!<br><img src=""img/categorize_planet_example.png""",NA,NA,NA,NA,NA,NA,NA,NA,NA,1,6,"4,8,3,14,7,13,9,15,1,10,12,5,11,2,6"
14652,commdev-image-keyboard-response,219,646610,learnblock1,173.39999997615814,img/planet12_right.png,12,Community 3,NA,FALSE,f,j,NA,NA,NA,1,6,"4,8,3,14,7,13,9,15,1,10,12,5,11,2,6"
14652,commdev-image-keyboard-response,220,647863,learnblock1,567.7000000178814,img/planet7_right.png,7,Community 1,NA,FALSE,f,j,NA,NA,NA,1,6,"4,8,3,14,7,13,9,15,1,10,12,5,11,2,6"
14652,commdev-image-keyboard-response,221,649115,learnblock1,935.4000000059605,img/planet4_left.png,4,Community 1,NA,TRUE,f,f,NA,NA,NA,1,6,"4,8,3,14,7,13,9,15,1,10,12,5,11,2,6"
14652,commdev-image-keyboard-response,222,650368,learnblock1,326.90000000596046,img/planet8_left.png,8,Community 1,NA,FALSE,j,f,NA,NA,NA,1,6,"4,8,3,14,7,13,9,15,1,10,12,5,11,2,6"
14652,commdev-image-keyboard-response,223,651620,learnblock1,608.8999999761581,img/planet4_left.png,4,Community 1,NA,FALSE,j,f,NA,NA,NA,1,6,"4,8,3,14,7,13,9,15,1,10,12,5,11,2,6"
14652,commdev-image-keyboard-response,224,652872,learnblock1,955.2000000178814,img/planet3_right.png,3,Community 1,NA,TRUE,j,j,NA,NA,NA,1,6,"4,8,3,14,7,13,9,15,1,10,12,5,11,2,6"
14652,commdev-image-keyboard-response,225,654123,learnblock1,631.3000000119209,img/planet14_left.png,14,Community 1,NA,TRUE,f,f,NA,NA,NA,1,6,"4,8,3,14,7,13,9,15,1,10,12,5,11,2,6"
14652,commdev-image-keyboard-response,226,655375,learnblock1,452,img/planet8_left.png,8,Community 1,NA,FALSE,j,f,NA,NA,NA,1,6,"4,8,3,14,7,13,9,15,1,10,12,5,11,2,6"
14652,commdev-image-keyboard-response,227,656628,learnblock1,511.90000000596046,img/planet14_right.png,14,Community 1,NA,FALSE,f,j,NA,NA,NA,1,6,"4,8,3,14,7,13,9,15,1,10,12,5,11,2,6"
14652,commdev-image-keyboard-response,228,657879,learnblock1,361.59999999403954,img/planet4_right.png,4,Community 1,NA,TRUE,j,j,NA,NA,NA,1,6,"4,8,3,14,7,13,9,15,1,10,12,5,11,2,6"
14652,commdev-image-keyboard-response,229,659132,learnblock1,513,img/planet8_right.png,8,Community 1,NA,FALSE,f,j,NA,NA,NA,1,6,"4,8,3,14,7,13,9,15,1,10,12,5,11,2,6"
14652,commdev-image-keyboard-response,230,660383,learnblock1,350.7000000178814,img/planet14_left.png,14,Community 1,NA,FALSE,j,f,NA,NA,NA,1,6,"4,8,3,14,7,13,9,15,1,10,12,5,11,2,6"
14652,commdev-image-keyboard-response,231,661635,learnblock1,425.09999999403954,img/planet4_left.png,4,Community 1,NA,TRUE,f,f,NA,NA,NA,1,6,"4,8,3,14,7,13,9,15,1,10,12,5,11,2,6"
14652,commdev-image-keyboard-response,232,662886,learnblock1,355.59999999403954,img/planet7_right.png,7,Community 1,NA,TRUE,j,j,NA,NA,NA,1,6,"4,8,3,14,7,13,9,15,1,10,12,5,11,2,6"
14652,commdev-image-keyboard-response,233,664139,learnblock1,654.8000000119209,img/planet3_right.png,3,Community 1,NA,FALSE,f,j,NA,NA,NA,1,6,"4,8,3,14,7,13,9,15,1,10,12,5,11,2,6"
14652,commdev-image-keyboard-response,234,665391,learnblock1,445.2000000178814,img/planet14_right.png,14,Community 1,NA,TRUE,j,j,NA,NA,NA,1,6,"4,8,3,14,7,13,9,15,1,10,12,5,11,2,6"
14652,commdev-image-keyboard-response,235,666643,learnblock1,481.90000000596046,img/planet13_left.png,13,Community 2,NA,TRUE,f,f,NA,NA,NA,1,6,"4,8,3,14,7,13,9,15,1,10,12,5,11,2,6"
14652,commdev-image-keyboard-response,236,667896,learnblock1,408.09999999403954,img/planet14_left.png,14,Community 1,NA,FALSE,j,f,NA,NA,NA,1,6,"4,8,3,14,7,13,9,15,1,10,12,5,11,2,6"
14652,commdev-image-keyboard-response,237,669148,learnblock1,471.69999998807907,img/planet13_right.png,13,Community 2,NA,FALSE,f,j,NA,NA,NA,1,6,"4,8,3,14,7,13,9,15,1,10,12,5,11,2,6"
14652,commdev-image-keyboard-response,238,670401,learnblock1,191.2999999821186,img/planet14_left.png,14,Community 1,NA,FALSE,j,f,NA,NA,NA,1,6,"4,8,3,14,7,13,9,15,1,10,12,5,11,2,6"
14652,commdev-image-keyboard-response,239,671652,learnblock1,220.2000000178814,img/planet8_right.png,8,Community 1,NA,FALSE,f,j,NA,NA,NA,1,6,"4,8,3,14,7,13,9,15,1,10,12,5,11,2,6"
14652,commdev-image-keyboard-response,240,672904,learnblock1,1195.7000000178814,img/planet3_left.png,3,Community 1,NA,FALSE,j,f,NA,NA,NA,1,6,"4,8,3,14,7,13,9,15,1,10,12,5,11,2,6"
14652,commdev-image-keyboard-response,241,674156,learnblock1,574.6999999880791,img/planet4_right.png,4,Community 1,NA,FALSE,f,j,NA,NA,NA,1,6,"4,8,3,14,7,13,9,15,1,10,12,5,11,2,6"
14652,commdev-image-keyboard-response,242,675409,learnblock1,367.19999998807907,img/planet14_left.png,14,Community 1,NA,FALSE,j,f,NA,NA,NA,1,6,"4,8,3,14,7,13,9,15,1,10,12,5,11,2,6"
14652,commdev-image-keyboard-response,243,676660,learnblock1,370,img/planet8_right.png,8,Community 1,NA,FALSE,f,j,NA,NA,NA,1,6,"4,8,3,14,7,13,9,15,1,10,12,5,11,2,6"
14652,commdev-image-keyboard-response,244,677913,learnblock1,375.39999997615814,img/planet3_right.png,3,Community 1,NA,TRUE,j,j,NA,NA,NA,1,6,"4,8,3,14,7,13,9,15,1,10,12,5,11,2,6"
14652,commdev-image-keyboard-response,245,679165,learnblock1,413.59999999403954,img/planet8_left.png,8,Community 1,NA,TRUE,f,f,NA,NA,NA,1,6,"4,8,3,14,7,13,9,15,1,10,12,5,11,2,6"
14652,commdev-image-keyboard-response,246,680417,learnblock1,388.40000000596046,img/planet7_left.png,7,Community 1,NA,FALSE,j,f,NA,NA,NA,1,6,"4,8,3,14,7,13,9,15,1,10,12,5,11,2,6"
14652,commdev-image-keyboard-response,247,681669,learnblock1,421.90000000596046,img/planet12_left.png,12,Community 3,NA,TRUE,f,f,NA,NA,NA,1,6,"4,8,3,14,7,13,9,15,1,10,12,5,11,2,6"
14652,commdev-image-keyboard-response,248,682921,learnblock1,382.90000000596046,img/planet6_left.png,6,Community 3,NA,FALSE,j,f,NA,NA,NA,1,6,"4,8,3,14,7,13,9,15,1,10,12,5,11,2,6"
14652,commdev-image-keyboard-response,249,684174,learnblock1,452.69999998807907,img/planet5_left.png,5,Community 3,NA,TRUE,f,f,NA,NA,NA,1,6,"4,8,3,14,7,13,9,15,1,10,12,5,11,2,6"
14652,commdev-image-keyboard-response,250,685426,learnblock1,341.5,img/planet15_right.png,15,Community 2,NA,TRUE,j,j,NA,NA,NA,1,6,"4,8,3,14,7,13,9,15,1,10,12,5,11,2,6"
14652,commdev-image-keyboard-response,251,686679,learnblock1,421.59999999403954,img/planet1_right.png,1,Community 2,NA,FALSE,f,j,NA,NA,NA,1,6,"4,8,3,14,7,13,9,15,1,10,12,5,11,2,6"
14652,commdev-image-keyboard-response,252,687931,learnblock1,442.90000000596046,img/planet13_left.png,13,Community 2,NA,FALSE,j,f,NA,NA,NA,1,6,"4,8,3,14,7,13,9,15,1,10,12,5,11,2,6"
14652,commdev-image-keyboard-response,253,689183,learnblock1,488.59999999403954,img/planet10_left.png,10,Community 2,NA,FALSE,j,f,NA,NA,NA,1,6,"4,8,3,14,7,13,9,15,1,10,12,5,11,2,6"
14652,commdev-image-keyboard-response,254,690435,learnblock1,447.7999999821186,img/planet15_left.png,15,Community 2,NA,FALSE,j,f,NA,NA,NA,1,6,"4,8,3,14,7,13,9,15,1,10,12,5,11,2,6"
14652,commdev-image-keyboard-response,255,691686,learnblock1,588.0999999940395,img/planet1_left.png,1,Community 2,NA,FALSE,j,f,NA,NA,NA,1,6,"4,8,3,14,7,13,9,15,1,10,12,5,11,2,6"
14652,commdev-image-keyboard-response,256,692938,learnblock1,342.80000001192093,img/planet13_left.png,13,Community 2,NA,TRUE,f,f,NA,NA,NA,1,6,"4,8,3,14,7,13,9,15,1,10,12,5,11,2,6"
14652,commdev-image-keyboard-response,257,694190,learnblock1,484.90000000596046,img/planet14_right.png,14,Community 1,NA,FALSE,f,j,NA,NA,NA,1,6,"4,8,3,14,7,13,9,15,1,10,12,5,11,2,6"
14652,commdev-image-keyboard-response,258,695442,learnblock1,350.2999999821186,img/planet4_right.png,4,Community 1,NA,TRUE,j,j,NA,NA,NA,1,6,"4,8,3,14,7,13,9,15,1,10,12,5,11,2,6"
14652,commdev-image-keyboard-response,259,696695,learnblock1,343.90000000596046,img/planet7_right.png,7,Community 1,NA,FALSE,f,j,NA,NA,NA,1,6,"4,8,3,14,7,13,9,15,1,10,12,5,11,2,6"
14652,commdev-image-keyboard-response,260,697947,learnblock1,218.40000000596046,img/planet4_left.png,4,Community 1,NA,FALSE,j,f,NA,NA,NA,1,6,"4,8,3,14,7,13,9,15,1,10,12,5,11,2,6"
14652,commdev-image-keyboard-response,261,699199,learnblock1,389.2999999821186,img/planet7_left.png,7,Community 1,NA,TRUE,f,f,NA,NA,NA,1,6,"4,8,3,14,7,13,9,15,1,10,12,5,11,2,6"
14652,commdev-image-keyboard-response,262,700451,learnblock1,312.09999999403954,img/planet3_right.png,3,Community 1,NA,TRUE,j,j,NA,NA,NA,1,6,"4,8,3,14,7,13,9,15,1,10,12,5,11,2,6"
14652,commdev-image-keyboard-response,263,701704,learnblock1,587.1999999880791,img/planet14_left.png,14,Community 1,NA,TRUE,f,f,NA,NA,NA,1,6,"4,8,3,14,7,13,9,15,1,10,12,5,11,2,6"
14652,commdev-image-keyboard-response,264,702956,learnblock1,350.2999999821186,img/planet13_left.png,13,Community 2,NA,FALSE,j,f,NA,NA,NA,1,6,"4,8,3,14,7,13,9,15,1,10,12,5,11,2,6"
14652,commdev-image-keyboard-response,265,704209,learnblock1,460.7000000178814,img/planet10_left.png,10,Community 2,NA,TRUE,f,f,NA,NA,NA,1,6,"4,8,3,14,7,13,9,15,1,10,12,5,11,2,6"
14652,commdev-image-keyboard-response,266,705462,learnblock1,1170.4000000059605,img/planet9_left.png,9,Community 2,NA,TRUE,f,f,NA,NA,NA,1,6,"4,8,3,14,7,13,9,15,1,10,12,5,11,2,6"
14652,commdev-image-keyboard-response,267,706713,learnblock1,909.9000000059605,img/planet15_left.png,15,Community 2,NA,TRUE,f,f,NA,NA,NA,1,6,"4,8,3,14,7,13,9,15,1,10,12,5,11,2,6"
14652,commdev-image-keyboard-response,268,707966,learnblock1,695.4000000059605,img/planet9_left.png,9,Community 2,NA,TRUE,f,f,NA,NA,NA,1,6,"4,8,3,14,7,13,9,15,1,10,12,5,11,2,6"
14652,commdev-image-keyboard-response,269,709218,learnblock1,738.1999999880791,img/planet15_left.png,15,Community 2,NA,TRUE,f,f,NA,NA,NA,1,6,"4,8,3,14,7,13,9,15,1,10,12,5,11,2,6"
14652,commdev-image-keyboard-response,270,710469,learnblock1,873,img/planet5_left.png,5,Community 3,NA,TRUE,f,f,NA,NA,NA,1,6,"4,8,3,14,7,13,9,15,1,10,12,5,11,2,6"
14652,commdev-image-keyboard-response,271,711722,learnblock1,744,img/planet11_right.png,11,Community 3,NA,FALSE,f,j,NA,NA,NA,1,6,"4,8,3,14,7,13,9,15,1,10,12,5,11,2,6"
14652,commdev-image-keyboard-response,272,712974,learnblock1,1023.7000000178814,img/planet5_right.png,5,Community 3,NA,TRUE,j,j,NA,NA,NA,1,6,"4,8,3,14,7,13,9,15,1,10,12,5,11,2,6"
14652,commdev-image-keyboard-response,273,714225,learnblock1,803,img/planet15_left.png,15,Community 2,NA,TRUE,f,f,NA,NA,NA,1,6,"4,8,3,14,7,13,9,15,1,10,12,5,11,2,6"
14652,commdev-image-keyboard-response,274,715478,learnblock1,728.7999999821186,img/planet5_right.png,5,Community 3,NA,TRUE,j,j,NA,NA,NA,1,6,"4,8,3,14,7,13,9,15,1,10,12,5,11,2,6"
14652,commdev-image-keyboard-response,275,716730,learnblock1,null,img/planet6_right.png,6,Community 3,NA,FALSE,null,j,NA,NA,NA,1,6,"4,8,3,14,7,13,9,15,1,10,12,5,11,2,6"
14652,commdev-image-keyboard-response,276,717981,learnblock1,210.19999998807907,img/planet12_right.png,12,Community 3,NA,FALSE,f,j,NA,NA,NA,1,6,"4,8,3,14,7,13,9,15,1,10,12,5,11,2,6"
14652,commdev-image-keyboard-response,277,719234,learnblock1,348.10000002384186,img/planet2_left.png,2,Community 3,NA,TRUE,f,f,NA,NA,NA,1,6,"4,8,3,14,7,13,9,15,1,10,12,5,11,2,6"
14652,commdev-image-keyboard-response,278,720486,learnblock1,354.39999997615814,img/planet11_right.png,11,Community 3,NA,TRUE,j,j,NA,NA,NA,1,6,"4,8,3,14,7,13,9,15,1,10,12,5,11,2,6"
14652,commdev-image-keyboard-response,279,721737,learnblock1,464,img/planet12_left.png,12,Community 3,NA,TRUE,f,f,NA,NA,NA,1,6,"4,8,3,14,7,13,9,15,1,10,12,5,11,2,6"
14652,commdev-image-keyboard-response,280,722989,learnblock1,397.59999999403954,img/planet11_left.png,11,Community 3,NA,FALSE,j,f,NA,NA,NA,1,6,"4,8,3,14,7,13,9,15,1,10,12,5,11,2,6"
14652,commdev-image-keyboard-response,281,724242,learnblock1,373.2000000178814,img/planet2_right.png,2,Community 3,NA,FALSE,f,j,NA,NA,NA,1,6,"4,8,3,14,7,13,9,15,1,10,12,5,11,2,6"
14652,commdev-image-keyboard-response,282,725495,learnblock1,650.0999999940395,img/planet11_left.png,11,Community 3,NA,TRUE,f,f,NA,NA,NA,1,6,"4,8,3,14,7,13,9,15,1,10,12,5,11,2,6"
14652,commdev-image-keyboard-response,283,726747,learnblock1,559.6999999880791,img/planet12_right.png,12,Community 3,NA,TRUE,j,j,NA,NA,NA,1,6,"4,8,3,14,7,13,9,15,1,10,12,5,11,2,6"
14652,commdev-image-keyboard-response,284,727999,learnblock1,734.5,img/planet7_left.png,7,Community 1,NA,TRUE,f,f,NA,NA,NA,1,6,"4,8,3,14,7,13,9,15,1,10,12,5,11,2,6"
14652,commdev-image-keyboard-response,285,729252,learnblock1,450.80000001192093,img/planet12_right.png,12,Community 3,NA,TRUE,j,j,NA,NA,NA,1,6,"4,8,3,14,7,13,9,15,1,10,12,5,11,2,6"
14652,commdev-image-keyboard-response,286,730503,learnblock1,786.5,img/planet2_right.png,2,Community 3,NA,TRUE,j,j,NA,NA,NA,1,6,"4,8,3,14,7,13,9,15,1,10,12,5,11,2,6"
14652,commdev-image-keyboard-response,287,731755,learnblock1,585.1999999880791,img/planet11_left.png,11,Community 3,NA,FALSE,j,f,NA,NA,NA,1,6,"4,8,3,14,7,13,9,15,1,10,12,5,11,2,6"
14652,commdev-image-keyboard-response,288,733008,learnblock1,484.19999998807907,img/planet2_left.png,2,Community 3,NA,FALSE,j,f,NA,NA,NA,1,6,"4,8,3,14,7,13,9,15,1,10,12,5,11,2,6"
14652,commdev-image-keyboard-response,289,734260,learnblock1,766.4000000059605,img/planet5_right.png,5,Community 3,NA,TRUE,j,j,NA,NA,NA,1,6,"4,8,3,14,7,13,9,15,1,10,12,5,11,2,6"
14652,commdev-image-keyboard-response,290,735513,learnblock1,769.6999999880791,img/planet6_right.png,6,Community 3,NA,TRUE,j,j,NA,NA,NA,1,6,"4,8,3,14,7,13,9,15,1,10,12,5,11,2,6"
14652,commdev-image-keyboard-response,291,736765,learnblock1,628.3000000119209,img/planet12_right.png,12,Community 3,NA,TRUE,j,j,NA,NA,NA,1,6,"4,8,3,14,7,13,9,15,1,10,12,5,11,2,6"
14652,commdev-image-keyboard-response,292,738018,learnblock1,753.8999999761581,img/planet2_right.png,2,Community 3,NA,TRUE,j,j,NA,NA,NA,1,6,"4,8,3,14,7,13,9,15,1,10,12,5,11,2,6"
14652,commdev-image-keyboard-response,293,739270,learnblock1,551.3000000119209,img/planet12_left.png,12,Community 3,NA,FALSE,j,f,NA,NA,NA,1,6,"4,8,3,14,7,13,9,15,1,10,12,5,11,2,6"
14652,commdev-image-keyboard-response,294,740522,learnblock1,615.7999999821186,img/planet6_left.png,6,Community 3,NA,TRUE,f,f,NA,NA,NA,1,6,"4,8,3,14,7,13,9,15,1,10,12,5,11,2,6"
14652,commdev-image-keyboard-response,295,741775,learnblock1,890.2999999821186,img/planet2_right.png,2,Community 3,NA,FALSE,f,j,NA,NA,NA,1,6,"4,8,3,14,7,13,9,15,1,10,12,5,11,2,6"
14652,commdev-image-keyboard-response,296,743027,learnblock1,784.8000000119209,img/planet6_left.png,6,Community 3,NA,FALSE,j,f,NA,NA,NA,1,6,"4,8,3,14,7,13,9,15,1,10,12,5,11,2,6"
14652,commdev-image-keyboard-response,297,744280,learnblock1,616.7000000178814,img/planet11_right.png,11,Community 3,NA,FALSE,f,j,NA,NA,NA,1,6,"4,8,3,14,7,13,9,15,1,10,12,5,11,2,6"
14652,commdev-image-keyboard-response,298,745531,learnblock1,431.2999999821186,img/planet2_right.png,2,Community 3,NA,TRUE,j,j,NA,NA,NA,1,6,"4,8,3,14,7,13,9,15,1,10,12,5,11,2,6"
14652,commdev-image-keyboard-response,299,746784,learnblock1,472.2999999821186,img/planet5_left.png,5,Community 3,NA,TRUE,f,f,NA,NA,NA,1,6,"4,8,3,14,7,13,9,15,1,10,12,5,11,2,6"
14652,commdev-image-keyboard-response,300,748037,learnblock1,435.30000001192093,img/planet15_right.png,15,Community 2,NA,FALSE,f,j,NA,NA,NA,1,6,"4,8,3,14,7,13,9,15,1,10,12,5,11,2,6"
14652,commdev-image-keyboard-response,301,749288,learnblock1,493.5,img/planet1_left.png,1,Community 2,NA,TRUE,f,f,NA,NA,NA,1,6,"4,8,3,14,7,13,9,15,1,10,12,5,11,2,6"
14652,commdev-image-keyboard-response,302,750541,learnblock1,411.40000000596046,img/planet9_left.png,9,Community 2,NA,TRUE,f,f,NA,NA,NA,1,6,"4,8,3,14,7,13,9,15,1,10,12,5,11,2,6"
14652,commdev-image-keyboard-response,303,751793,learnblock1,318.09999999403954,img/planet13_left.png,13,Community 2,NA,TRUE,f,f,NA,NA,NA,1,6,"4,8,3,14,7,13,9,15,1,10,12,5,11,2,6"
14652,commdev-image-keyboard-response,304,753044,learnblock1,384.80000001192093,img/planet9_left.png,9,Community 2,NA,TRUE,f,f,NA,NA,NA,1,6,"4,8,3,14,7,13,9,15,1,10,12,5,11,2,6"
14652,commdev-image-keyboard-response,305,754297,learnblock1,357.40000000596046,img/planet13_right.png,13,Community 2,NA,FALSE,f,j,NA,NA,NA,1,6,"4,8,3,14,7,13,9,15,1,10,12,5,11,2,6"
14652,commdev-image-keyboard-response,306,755549,learnblock1,379.09999999403954,img/planet10_left.png,10,Community 2,NA,TRUE,f,f,NA,NA,NA,1,6,"4,8,3,14,7,13,9,15,1,10,12,5,11,2,6"
14652,commdev-image-keyboard-response,307,756801,learnblock1,358.7000000178814,img/planet15_left.png,15,Community 2,NA,TRUE,f,f,NA,NA,NA,1,6,"4,8,3,14,7,13,9,15,1,10,12,5,11,2,6"
14652,commdev-image-keyboard-response,308,758053,learnblock1,336.2999999821186,img/planet10_right.png,10,Community 2,NA,FALSE,f,j,NA,NA,NA,1,6,"4,8,3,14,7,13,9,15,1,10,12,5,11,2,6"
14652,commdev-image-keyboard-response,309,759304,learnblock1,941.5,img/planet1_left.png,1,Community 2,NA,TRUE,f,f,NA,NA,NA,1,6,"4,8,3,14,7,13,9,15,1,10,12,5,11,2,6"
14652,commdev-image-keyboard-response,310,760556,learnblock1,834.9000000059605,img/planet13_left.png,13,Community 2,NA,TRUE,f,f,NA,NA,NA,1,6,"4,8,3,14,7,13,9,15,1,10,12,5,11,2,6"
14652,commdev-image-keyboard-response,311,761808,learnblock1,792.7000000178814,img/planet14_left.png,14,Community 1,NA,TRUE,f,f,NA,NA,NA,1,6,"4,8,3,14,7,13,9,15,1,10,12,5,11,2,6"
14652,commdev-image-keyboard-response,312,763060,learnblock1,712.6999999880791,img/planet3_right.png,3,Community 1,NA,FALSE,f,j,NA,NA,NA,1,6,"4,8,3,14,7,13,9,15,1,10,12,5,11,2,6"
14652,commdev-image-keyboard-response,313,764311,learnblock1,785.0999999940395,img/planet14_right.png,14,Community 1,NA,FALSE,f,j,NA,NA,NA,1,6,"4,8,3,14,7,13,9,15,1,10,12,5,11,2,6"
14652,commdev-image-keyboard-response,314,765564,learnblock1,751.2999999821186,img/planet8_left.png,8,Community 1,NA,FALSE,j,f,NA,NA,NA,1,6,"4,8,3,14,7,13,9,15,1,10,12,5,11,2,6"
14652,commdev-image-keyboard-response,315,766816,learnblock1,471.30000001192093,img/planet7_left.png,7,Community 1,NA,TRUE,f,f,NA,NA,NA,1,6,"4,8,3,14,7,13,9,15,1,10,12,5,11,2,6"
14652,commdev-image-keyboard-response,316,768068,learnblock1,365.80000001192093,img/planet12_right.png,12,Community 3,NA,FALSE,f,j,NA,NA,NA,1,6,"4,8,3,14,7,13,9,15,1,10,12,5,11,2,6"
14652,commdev-image-keyboard-response,317,769320,learnblock1,858.3999999761581,img/planet6_right.png,6,Community 3,NA,TRUE,j,j,NA,NA,NA,1,6,"4,8,3,14,7,13,9,15,1,10,12,5,11,2,6"
14652,commdev-image-keyboard-response,318,770572,learnblock1,592,img/planet5_right.png,5,Community 3,NA,TRUE,j,j,NA,NA,NA,1,6,"4,8,3,14,7,13,9,15,1,10,12,5,11,2,6"
14652,commdev-image-keyboard-response,319,771824,learnblock1,550.2999999821186,img/planet11_right.png,11,Community 3,NA,TRUE,j,j,NA,NA,NA,1,6,"4,8,3,14,7,13,9,15,1,10,12,5,11,2,6"
14652,commdev-image-keyboard-response,320,773076,learnblock1,605.5,img/planet6_left.png,6,Community 3,NA,FALSE,j,f,NA,NA,NA,1,6,"4,8,3,14,7,13,9,15,1,10,12,5,11,2,6"
14652,commdev-image-keyboard-response,321,774329,learnblock1,461.40000000596046,img/planet12_right.png,12,Community 3,NA,TRUE,j,j,NA,NA,NA,1,6,"4,8,3,14,7,13,9,15,1,10,12,5,11,2,6"
14652,commdev-image-keyboard-response,322,775581,learnblock1,419.90000000596046,img/planet2_left.png,2,Community 3,NA,FALSE,j,f,NA,NA,NA,1,6,"4,8,3,14,7,13,9,15,1,10,12,5,11,2,6"
14652,commdev-image-keyboard-response,323,776833,learnblock1,397.90000000596046,img/planet6_left.png,6,Community 3,NA,FALSE,j,f,NA,NA,NA,1,6,"4,8,3,14,7,13,9,15,1,10,12,5,11,2,6"
14652,commdev-image-keyboard-response,324,778085,learnblock1,416.2000000178814,img/planet2_right.png,2,Community 3,NA,TRUE,j,j,NA,NA,NA,1,6,"4,8,3,14,7,13,9,15,1,10,12,5,11,2,6"
14652,commdev-image-keyboard-response,325,779337,learnblock1,569.7999999821186,img/planet11_left.png,11,Community 3,NA,FALSE,j,f,NA,NA,NA,1,6,"4,8,3,14,7,13,9,15,1,10,12,5,11,2,6"
14652,commdev-image-keyboard-response,326,780590,learnblock1,358.80000001192093,img/planet6_left.png,6,Community 3,NA,FALSE,j,f,NA,NA,NA,1,6,"4,8,3,14,7,13,9,15,1,10,12,5,11,2,6"
14652,commdev-image-keyboard-response,327,781842,learnblock1,441.2000000178814,img/planet12_right.png,12,Community 3,NA,TRUE,j,j,NA,NA,NA,1,6,"4,8,3,14,7,13,9,15,1,10,12,5,11,2,6"
14652,commdev-image-keyboard-response,328,783095,learnblock1,351.40000000596046,img/planet6_right.png,6,Community 3,NA,TRUE,j,j,NA,NA,NA,1,6,"4,8,3,14,7,13,9,15,1,10,12,5,11,2,6"
14652,commdev-image-keyboard-response,329,784347,learnblock1,366.19999998807907,img/planet5_left.png,5,Community 3,NA,FALSE,j,f,NA,NA,NA,1,6,"4,8,3,14,7,13,9,15,1,10,12,5,11,2,6"
14652,commdev-image-keyboard-response,330,785599,learnblock1,417.5,img/planet6_left.png,6,Community 3,NA,TRUE,f,f,NA,NA,NA,1,6,"4,8,3,14,7,13,9,15,1,10,12,5,11,2,6"
14652,commdev-image-keyboard-response,331,786851,learnblock1,386.90000000596046,img/planet12_right.png,12,Community 3,NA,FALSE,f,j,NA,NA,NA,1,6,"4,8,3,14,7,13,9,15,1,10,12,5,11,2,6"
14652,commdev-image-keyboard-response,332,788103,learnblock1,669.5,img/planet6_right.png,6,Community 3,NA,FALSE,f,j,NA,NA,NA,1,6,"4,8,3,14,7,13,9,15,1,10,12,5,11,2,6"
14652,commdev-image-keyboard-response,333,789355,learnblock1,703.5,img/planet5_left.png,5,Community 3,NA,TRUE,f,f,NA,NA,NA,1,6,"4,8,3,14,7,13,9,15,1,10,12,5,11,2,6"
14652,commdev-image-keyboard-response,334,790608,learnblock1,519,img/planet2_left.png,2,Community 3,NA,TRUE,f,f,NA,NA,NA,1,6,"4,8,3,14,7,13,9,15,1,10,12,5,11,2,6"
14652,commdev-image-keyboard-response,335,791861,learnblock1,506.69999998807907,img/planet12_right.png,12,Community 3,NA,FALSE,f,j,NA,NA,NA,1,6,"4,8,3,14,7,13,9,15,1,10,12,5,11,2,6"
14652,commdev-image-keyboard-response,336,793113,learnblock1,742.4000000059605,img/planet11_right.png,11,Community 3,NA,FALSE,f,j,NA,NA,NA,1,6,"4,8,3,14,7,13,9,15,1,10,12,5,11,2,6"
14652,commdev-image-keyboard-response,337,794365,learnblock1,618.4000000059605,img/planet6_right.png,6,Community 3,NA,TRUE,j,j,NA,NA,NA,1,6,"4,8,3,14,7,13,9,15,1,10,12,5,11,2,6"
14652,commdev-image-keyboard-response,338,795617,learnblock1,449.5,img/planet2_right.png,2,Community 3,NA,FALSE,f,j,NA,NA,NA,1,6,"4,8,3,14,7,13,9,15,1,10,12,5,11,2,6"
14652,commdev-image-keyboard-response,339,796869,learnblock1,636.8000000119209,img/planet11_left.png,11,Community 3,NA,TRUE,f,f,NA,NA,NA,1,6,"4,8,3,14,7,13,9,15,1,10,12,5,11,2,6"
14652,commdev-image-keyboard-response,340,798121,learnblock1,765.5,img/planet12_right.png,12,Community 3,NA,TRUE,j,j,NA,NA,NA,1,6,"4,8,3,14,7,13,9,15,1,10,12,5,11,2,6"
14652,commdev-image-keyboard-response,341,799372,learnblock1,945.3999999761581,img/planet2_right.png,2,Community 3,NA,TRUE,j,j,NA,NA,NA,1,6,"4,8,3,14,7,13,9,15,1,10,12,5,11,2,6"
14652,commdev-image-keyboard-response,342,800624,learnblock1,623.5999999940395,img/planet12_right.png,12,Community 3,NA,TRUE,j,j,NA,NA,NA,1,6,"4,8,3,14,7,13,9,15,1,10,12,5,11,2,6"
14652,commdev-image-keyboard-response,343,801877,learnblock1,531.5999999940395,img/planet6_left.png,6,Community 3,NA,FALSE,j,f,NA,NA,NA,1,6,"4,8,3,14,7,13,9,15,1,10,12,5,11,2,6"
14652,commdev-image-keyboard-response,344,803129,learnblock1,776.9000000059605,img/planet12_right.png,12,Community 3,NA,TRUE,j,j,NA,NA,NA,1,6,"4,8,3,14,7,13,9,15,1,10,12,5,11,2,6"
14652,commdev-image-keyboard-response,345,804381,learnblock1,933.1999999880791,img/planet11_right.png,11,Community 3,NA,TRUE,j,j,NA,NA,NA,1,6,"4,8,3,14,7,13,9,15,1,10,12,5,11,2,6"
14652,commdev-image-keyboard-response,346,805633,learnblock1,860,img/planet12_left.png,12,Community 3,NA,FALSE,j,f,NA,NA,NA,1,6,"4,8,3,14,7,13,9,15,1,10,12,5,11,2,6"
14652,commdev-image-keyboard-response,347,806885,learnblock1,962.5,img/planet6_left.png,6,Community 3,NA,TRUE,f,f,NA,NA,NA,1,6,"4,8,3,14,7,13,9,15,1,10,12,5,11,2,6"
14652,commdev-image-keyboard-response,348,808137,learnblock1,803.1999999880791,img/planet2_right.png,2,Community 3,NA,TRUE,j,j,NA,NA,NA,1,6,"4,8,3,14,7,13,9,15,1,10,12,5,11,2,6"
14652,commdev-image-keyboard-response,349,809389,learnblock1,829.9000000059605,img/planet11_right.png,11,Community 3,NA,TRUE,j,j,NA,NA,NA,1,6,"4,8,3,14,7,13,9,15,1,10,12,5,11,2,6"
14652,commdev-image-keyboard-response,350,810641,learnblock1,473.40000000596046,img/planet6_left.png,6,Community 3,NA,FALSE,j,f,NA,NA,NA,1,6,"4,8,3,14,7,13,9,15,1,10,12,5,11,2,6"
14652,commdev-image-keyboard-response,351,811893,learnblock1,74.90000000596046,img/planet2_left.png,2,Community 3,NA,TRUE,f,f,NA,NA,NA,1,6,"4,8,3,14,7,13,9,15,1,10,12,5,11,2,6"
14652,commdev-image-keyboard-response,352,813146,learnblock1,508.80000001192093,img/planet12_left.png,12,Community 3,NA,TRUE,f,f,NA,NA,NA,1,6,"4,8,3,14,7,13,9,15,1,10,12,5,11,2,6"
14652,commdev-image-keyboard-response,353,814398,learnblock1,414.09999999403954,img/planet2_left.png,2,Community 3,NA,TRUE,f,f,NA,NA,NA,1,6,"4,8,3,14,7,13,9,15,1,10,12,5,11,2,6"
14652,commdev-image-keyboard-response,354,815650,learnblock1,454.90000000596046,img/planet12_right.png,12,Community 3,NA,FALSE,f,j,NA,NA,NA,1,6,"4,8,3,14,7,13,9,15,1,10,12,5,11,2,6"
14652,commdev-image-keyboard-response,355,816903,learnblock1,553,img/planet11_right.png,11,Community 3,NA,TRUE,j,j,NA,NA,NA,1,6,"4,8,3,14,7,13,9,15,1,10,12,5,11,2,6"
14652,commdev-image-keyboard-response,356,818155,learnblock1,509.2999999821186,img/planet12_right.png,12,Community 3,NA,TRUE,j,j,NA,NA,NA,1,6,"4,8,3,14,7,13,9,15,1,10,12,5,11,2,6"
14652,commdev-image-keyboard-response,357,819407,learnblock1,980.9000000059605,img/planet6_left.png,6,Community 3,NA,TRUE,f,f,NA,NA,NA,1,6,"4,8,3,14,7,13,9,15,1,10,12,5,11,2,6"
14652,commdev-image-keyboard-response,358,820659,learnblock1,892.9000000059605,img/planet5_left.png,5,Community 3,NA,TRUE,f,f,NA,NA,NA,1,6,"4,8,3,14,7,13,9,15,1,10,12,5,11,2,6"
14652,commdev-image-keyboard-response,359,821910,learnblock1,680.8000000119209,img/planet6_left.png,6,Community 3,NA,TRUE,f,f,NA,NA,NA,1,6,"4,8,3,14,7,13,9,15,1,10,12,5,11,2,6"
14652,commdev-image-keyboard-response,360,823163,learnblock1,825.8999999761581,img/planet2_left.png,2,Community 3,NA,TRUE,f,f,NA,NA,NA,1,6,"4,8,3,14,7,13,9,15,1,10,12,5,11,2,6"
14652,commdev-image-keyboard-response,361,824415,learnblock1,788.5999999940395,img/planet11_right.png,11,Community 3,NA,TRUE,j,j,NA,NA,NA,1,6,"4,8,3,14,7,13,9,15,1,10,12,5,11,2,6"
14652,commdev-image-keyboard-response,362,825666,learnblock1,null,img/planet2_right.png,2,Community 3,NA,FALSE,null,j,NA,NA,NA,1,6,"4,8,3,14,7,13,9,15,1,10,12,5,11,2,6"
14652,commdev-image-keyboard-response,363,826919,learnblock1,67.40000000596046,img/planet5_left.png,5,Community 3,NA,FALSE,j,f,NA,NA,NA,1,6,"4,8,3,14,7,13,9,15,1,10,12,5,11,2,6"
14652,commdev-image-keyboard-response,364,828171,learnblock1,733.6999999880791,img/planet15_left.png,15,Community 2,NA,TRUE,f,f,NA,NA,NA,1,6,"4,8,3,14,7,13,9,15,1,10,12,5,11,2,6"
14652,commdev-image-keyboard-response,365,829423,learnblock1,781.5999999940395,img/planet9_right.png,9,Community 2,NA,TRUE,j,j,NA,NA,NA,1,6,"4,8,3,14,7,13,9,15,1,10,12,5,11,2,6"
14652,commdev-image-keyboard-response,366,830676,learnblock1,773.0999999940395,img/planet10_right.png,10,Community 2,NA,TRUE,j,j,NA,NA,NA,1,6,"4,8,3,14,7,13,9,15,1,10,12,5,11,2,6"
14652,commdev-image-keyboard-response,367,831928,learnblock1,816.2000000178814,img/planet15_right.png,15,Community 2,NA,FALSE,f,j,NA,NA,NA,1,6,"4,8,3,14,7,13,9,15,1,10,12,5,11,2,6"
14652,commdev-image-keyboard-response,368,833181,learnblock1,820.6999999880791,img/planet1_left.png,1,Community 2,NA,FALSE,j,f,NA,NA,NA,1,6,"4,8,3,14,7,13,9,15,1,10,12,5,11,2,6"
14652,commdev-image-keyboard-response,369,834433,learnblock1,988,img/planet15_right.png,15,Community 2,NA,TRUE,j,j,NA,NA,NA,1,6,"4,8,3,14,7,13,9,15,1,10,12,5,11,2,6"
14652,commdev-image-keyboard-response,370,835686,learnblock1,852.9000000059605,img/planet9_right.png,9,Community 2,NA,TRUE,j,j,NA,NA,NA,1,6,"4,8,3,14,7,13,9,15,1,10,12,5,11,2,6"
14652,commdev-image-keyboard-response,371,836938,learnblock1,732.8000000119209,img/planet13_left.png,13,Community 2,NA,FALSE,j,f,NA,NA,NA,1,6,"4,8,3,14,7,13,9,15,1,10,12,5,11,2,6"
14652,commdev-image-keyboard-response,372,838190,learnblock1,844,img/planet1_right.png,1,Community 2,NA,TRUE,j,j,NA,NA,NA,1,6,"4,8,3,14,7,13,9,15,1,10,12,5,11,2,6"
14652,commdev-image-keyboard-response,373,839443,learnblock1,769.7999999821186,img/planet10_right.png,10,Community 2,NA,FALSE,f,j,NA,NA,NA,1,6,"4,8,3,14,7,13,9,15,1,10,12,5,11,2,6"
14652,commdev-image-keyboard-response,374,840694,learnblock1,976.8000000119209,img/planet1_left.png,1,Community 2,NA,TRUE,f,f,NA,NA,NA,1,6,"4,8,3,14,7,13,9,15,1,10,12,5,11,2,6"
14652,commdev-image-keyboard-response,375,841946,learnblock1,689.3000000119209,img/planet9_left.png,9,Community 2,NA,TRUE,f,f,NA,NA,NA,1,6,"4,8,3,14,7,13,9,15,1,10,12,5,11,2,6"
14652,commdev-image-keyboard-response,376,843198,learnblock1,733.5999999940395,img/planet13_right.png,13,Community 2,NA,TRUE,j,j,NA,NA,NA,1,6,"4,8,3,14,7,13,9,15,1,10,12,5,11,2,6"
14652,commdev-image-keyboard-response,377,844451,learnblock1,699.0999999940395,img/planet10_right.png,10,Community 2,NA,TRUE,j,j,NA,NA,NA,1,6,"4,8,3,14,7,13,9,15,1,10,12,5,11,2,6"
14652,commdev-image-keyboard-response,378,845703,learnblock1,826.0999999940395,img/planet15_left.png,15,Community 2,NA,TRUE,f,f,NA,NA,NA,1,6,"4,8,3,14,7,13,9,15,1,10,12,5,11,2,6"
14652,commdev-image-keyboard-response,379,846956,learnblock1,913.2999999821186,img/planet5_left.png,5,Community 3,NA,TRUE,f,f,NA,NA,NA,1,6,"4,8,3,14,7,13,9,15,1,10,12,5,11,2,6"
14652,commdev-image-keyboard-response,380,848208,learnblock1,816.7000000178814,img/planet11_right.png,11,Community 3,NA,TRUE,j,j,NA,NA,NA,1,6,"4,8,3,14,7,13,9,15,1,10,12,5,11,2,6"
14652,commdev-image-keyboard-response,381,849460,learnblock1,1015.7000000178814,img/planet12_right.png,12,Community 3,NA,TRUE,j,j,NA,NA,NA,1,6,"4,8,3,14,7,13,9,15,1,10,12,5,11,2,6"
14652,commdev-image-keyboard-response,382,850713,learnblock1,null,img/planet6_right.png,6,Community 3,NA,FALSE,null,j,NA,NA,NA,1,6,"4,8,3,14,7,13,9,15,1,10,12,5,11,2,6"
14652,commdev-image-keyboard-response,383,851964,learnblock1,334.10000002384186,img/planet12_left.png,12,Community 3,NA,FALSE,j,f,NA,NA,NA,1,6,"4,8,3,14,7,13,9,15,1,10,12,5,11,2,6"
14652,commdev-image-keyboard-response,384,853216,learnblock1,90.30000001192093,img/planet6_left.png,6,Community 3,NA,TRUE,f,f,NA,NA,NA,1,6,"4,8,3,14,7,13,9,15,1,10,12,5,11,2,6"
14652,commdev-image-keyboard-response,385,854468,learnblock1,941.1999999880791,img/planet11_left.png,11,Community 3,NA,TRUE,f,f,NA,NA,NA,1,6,"4,8,3,14,7,13,9,15,1,10,12,5,11,2,6"
14652,commdev-image-keyboard-response,386,855721,learnblock1,766.9000000059605,img/planet6_left.png,6,Community 3,NA,TRUE,f,f,NA,NA,NA,1,6,"4,8,3,14,7,13,9,15,1,10,12,5,11,2,6"
14652,commdev-image-keyboard-response,387,856973,learnblock1,560.9000000059605,img/planet12_left.png,12,Community 3,NA,TRUE,f,f,NA,NA,NA,1,6,"4,8,3,14,7,13,9,15,1,10,12,5,11,2,6"
14652,commdev-image-keyboard-response,388,858225,learnblock1,1060.8999999761581,img/planet2_right.png,2,Community 3,NA,TRUE,j,j,NA,NA,NA,1,6,"4,8,3,14,7,13,9,15,1,10,12,5,11,2,6"
14652,commdev-image-keyboard-response,389,859478,learnblock1,886.8000000119209,img/planet5_right.png,5,Community 3,NA,TRUE,j,j,NA,NA,NA,1,6,"4,8,3,14,7,13,9,15,1,10,12,5,11,2,6"
14652,commdev-image-keyboard-response,390,860731,learnblock1,975.6000000238419,img/planet2_left.png,2,Community 3,NA,TRUE,f,f,NA,NA,NA,1,6,"4,8,3,14,7,13,9,15,1,10,12,5,11,2,6"
14652,commdev-image-keyboard-response,391,861983,learnblock1,857.7000000178814,img/planet11_right.png,11,Community 3,NA,TRUE,j,j,NA,NA,NA,1,6,"4,8,3,14,7,13,9,15,1,10,12,5,11,2,6"
14652,commdev-image-keyboard-response,392,863236,learnblock1,799.0999999940395,img/planet2_left.png,2,Community 3,NA,FALSE,j,f,NA,NA,NA,1,6,"4,8,3,14,7,13,9,15,1,10,12,5,11,2,6"
14652,commdev-image-keyboard-response,393,864488,learnblock1,746.2999999821186,img/planet5_left.png,5,Community 3,NA,FALSE,j,f,NA,NA,NA,1,6,"4,8,3,14,7,13,9,15,1,10,12,5,11,2,6"
14652,commdev-image-keyboard-response,394,865739,learnblock1,720,img/planet15_left.png,15,Community 2,NA,FALSE,j,f,NA,NA,NA,1,6,"4,8,3,14,7,13,9,15,1,10,12,5,11,2,6"
14652,commdev-image-keyboard-response,395,866991,learnblock1,640,img/planet5_left.png,5,Community 3,NA,FALSE,j,f,NA,NA,NA,1,6,"4,8,3,14,7,13,9,15,1,10,12,5,11,2,6"
14652,commdev-image-keyboard-response,396,868244,learnblock1,889.4000000059605,img/planet6_right.png,6,Community 3,NA,TRUE,j,j,NA,NA,NA,1,6,"4,8,3,14,7,13,9,15,1,10,12,5,11,2,6"
14652,commdev-image-keyboard-response,397,869497,learnblock1,63.900000005960464,img/planet12_right.png,12,Community 3,NA,FALSE,f,j,NA,NA,NA,1,6,"4,8,3,14,7,13,9,15,1,10,12,5,11,2,6"
14652,commdev-image-keyboard-response,398,870749,learnblock1,594.4000000059605,img/planet2_left.png,2,Community 3,NA,FALSE,j,f,NA,NA,NA,1,6,"4,8,3,14,7,13,9,15,1,10,12,5,11,2,6"
14652,commdev-image-keyboard-response,399,872002,learnblock1,434.80000001192093,img/planet6_left.png,6,Community 3,NA,FALSE,j,f,NA,NA,NA,1,6,"4,8,3,14,7,13,9,15,1,10,12,5,11,2,6"
14652,commdev-image-keyboard-response,400,873255,learnblock1,349.5,img/planet12_left.png,12,Community 3,NA,FALSE,j,f,NA,NA,NA,1,6,"4,8,3,14,7,13,9,15,1,10,12,5,11,2,6"
14652,commdev-image-keyboard-response,401,874507,learnblock1,367.2999999821186,img/planet11_left.png,11,Community 3,NA,FALSE,j,f,NA,NA,NA,1,6,"4,8,3,14,7,13,9,15,1,10,12,5,11,2,6"
14652,commdev-image-keyboard-response,402,875759,learnblock1,240.59999999403954,img/planet12_right.png,12,Community 3,NA,TRUE,j,j,NA,NA,NA,1,6,"4,8,3,14,7,13,9,15,1,10,12,5,11,2,6"
14652,commdev-image-keyboard-response,403,877011,learnblock1,625.8999999761581,img/planet6_left.png,6,Community 3,NA,TRUE,f,f,NA,NA,NA,1,6,"4,8,3,14,7,13,9,15,1,10,12,5,11,2,6"
14652,commdev-image-keyboard-response,404,878263,learnblock1,581.0999999940395,img/planet12_left.png,12,Community 3,NA,TRUE,f,f,NA,NA,NA,1,6,"4,8,3,14,7,13,9,15,1,10,12,5,11,2,6"
14652,commdev-image-keyboard-response,405,879516,learnblock1,459.40000000596046,img/planet2_right.png,2,Community 3,NA,TRUE,j,j,NA,NA,NA,1,6,"4,8,3,14,7,13,9,15,1,10,12,5,11,2,6"
14652,commdev-image-keyboard-response,406,880768,learnblock1,734.2999999821186,img/planet5_right.png,5,Community 3,NA,TRUE,j,j,NA,NA,NA,1,6,"4,8,3,14,7,13,9,15,1,10,12,5,11,2,6"
14652,commdev-image-keyboard-response,407,882021,learnblock1,679.0999999940395,img/planet15_right.png,15,Community 2,NA,FALSE,f,j,NA,NA,NA,1,6,"4,8,3,14,7,13,9,15,1,10,12,5,11,2,6"
14652,commdev-image-keyboard-response,408,883273,learnblock1,932.6000000238419,img/planet1_left.png,1,Community 2,NA,FALSE,j,f,NA,NA,NA,1,6,"4,8,3,14,7,13,9,15,1,10,12,5,11,2,6"
14652,commdev-image-keyboard-response,409,884526,learnblock1,552.8000000119209,img/planet9_right.png,9,Community 2,NA,FALSE,f,j,NA,NA,NA,1,6,"4,8,3,14,7,13,9,15,1,10,12,5,11,2,6"
14652,commdev-image-keyboard-response,410,885778,learnblock1,954.5,img/planet10_left.png,10,Community 2,NA,TRUE,f,f,NA,NA,NA,1,6,"4,8,3,14,7,13,9,15,1,10,12,5,11,2,6"
14652,commdev-image-keyboard-response,411,887031,learnblock1,673.9000000059605,img/planet9_right.png,9,Community 2,NA,TRUE,j,j,NA,NA,NA,1,6,"4,8,3,14,7,13,9,15,1,10,12,5,11,2,6"
14652,commdev-image-keyboard-response,412,888283,learnblock1,784.2000000178814,img/planet15_right.png,15,Community 2,NA,FALSE,f,j,NA,NA,NA,1,6,"4,8,3,14,7,13,9,15,1,10,12,5,11,2,6"
14652,commdev-image-keyboard-response,413,889535,learnblock1,724.8999999761581,img/planet1_left.png,1,Community 2,NA,FALSE,j,f,NA,NA,NA,1,6,"4,8,3,14,7,13,9,15,1,10,12,5,11,2,6"
14652,commdev-image-keyboard-response,414,890786,learnblock1,636,img/planet13_right.png,13,Community 2,NA,FALSE,f,j,NA,NA,NA,1,6,"4,8,3,14,7,13,9,15,1,10,12,5,11,2,6"
14652,commdev-image-keyboard-response,415,892039,learnblock1,784.9000000059605,img/planet1_right.png,1,Community 2,NA,FALSE,f,j,NA,NA,NA,1,6,"4,8,3,14,7,13,9,15,1,10,12,5,11,2,6"
14652,commdev-image-keyboard-response,416,893290,learnblock1,870.8000000119209,img/planet15_right.png,15,Community 2,NA,TRUE,j,j,NA,NA,NA,1,6,"4,8,3,14,7,13,9,15,1,10,12,5,11,2,6"
14652,commdev-image-keyboard-response,417,894542,learnblock1,708.5,img/planet1_left.png,1,Community 2,NA,FALSE,j,f,NA,NA,NA,1,6,"4,8,3,14,7,13,9,15,1,10,12,5,11,2,6"
14652,commdev-image-keyboard-response,418,895795,learnblock1,798.3000000119209,img/planet9_left.png,9,Community 2,NA,TRUE,f,f,NA,NA,NA,1,6,"4,8,3,14,7,13,9,15,1,10,12,5,11,2,6"
14652,commdev-image-keyboard-response,419,897046,learnblock1,725.7000000178814,img/planet13_right.png,13,Community 2,NA,TRUE,j,j,NA,NA,NA,1,6,"4,8,3,14,7,13,9,15,1,10,12,5,11,2,6"
14652,commdev-image-keyboard-response,420,898297,learnblock1,737.5999999940395,img/planet1_left.png,1,Community 2,NA,TRUE,f,f,NA,NA,NA,1,6,"4,8,3,14,7,13,9,15,1,10,12,5,11,2,6"
14652,commdev-image-keyboard-response,421,899550,learnblock1,929.5,img/planet15_right.png,15,Community 2,NA,TRUE,j,j,NA,NA,NA,1,6,"4,8,3,14,7,13,9,15,1,10,12,5,11,2,6"
14652,commdev-image-keyboard-response,422,900802,learnblock1,562.6000000238419,img/planet1_left.png,1,Community 2,NA,TRUE,f,f,NA,NA,NA,1,6,"4,8,3,14,7,13,9,15,1,10,12,5,11,2,6"
14652,commdev-image-keyboard-response,423,902054,learnblock1,731.8000000119209,img/planet15_right.png,15,Community 2,NA,FALSE,f,j,NA,NA,NA,1,6,"4,8,3,14,7,13,9,15,1,10,12,5,11,2,6"
14652,commdev-image-keyboard-response,424,903306,learnblock1,733.2999999821186,img/planet5_left.png,5,Community 3,NA,TRUE,f,f,NA,NA,NA,1,6,"4,8,3,14,7,13,9,15,1,10,12,5,11,2,6"
14652,commdev-image-keyboard-response,425,904558,learnblock1,625.0999999940395,img/planet6_right.png,6,Community 3,NA,TRUE,j,j,NA,NA,NA,1,6,"4,8,3,14,7,13,9,15,1,10,12,5,11,2,6"
14652,commdev-image-keyboard-response,426,905810,learnblock1,890,img/planet11_left.png,11,Community 3,NA,TRUE,f,f,NA,NA,NA,1,6,"4,8,3,14,7,13,9,15,1,10,12,5,11,2,6"
14652,commdev-image-keyboard-response,427,907062,learnblock1,811.8000000119209,img/planet6_left.png,6,Community 3,NA,TRUE,f,f,NA,NA,NA,1,6,"4,8,3,14,7,13,9,15,1,10,12,5,11,2,6"
14652,commdev-image-keyboard-response,428,908314,learnblock1,887.3000000119209,img/planet12_left.png,12,Community 3,NA,TRUE,f,f,NA,NA,NA,1,6,"4,8,3,14,7,13,9,15,1,10,12,5,11,2,6"
14652,commdev-image-keyboard-response,429,909567,learnblock1,756.5,img/planet11_left.png,11,Community 3,NA,TRUE,f,f,NA,NA,NA,1,6,"4,8,3,14,7,13,9,15,1,10,12,5,11,2,6"
14652,commdev-image-keyboard-response,430,910820,learnblock1,785.3000000119209,img/planet12_right.png,12,Community 3,NA,TRUE,j,j,NA,NA,NA,1,6,"4,8,3,14,7,13,9,15,1,10,12,5,11,2,6"
14652,commdev-image-keyboard-response,431,912071,learnblock1,688.5,img/planet2_right.png,2,Community 3,NA,TRUE,j,j,NA,NA,NA,1,6,"4,8,3,14,7,13,9,15,1,10,12,5,11,2,6"
14652,commdev-image-keyboard-response,432,913324,learnblock1,817.3000000119209,img/planet12_left.png,12,Community 3,NA,TRUE,f,f,NA,NA,NA,1,6,"4,8,3,14,7,13,9,15,1,10,12,5,11,2,6"
14652,commdev-image-keyboard-response,433,914577,learnblock1,679,img/planet2_right.png,2,Community 3,NA,TRUE,j,j,NA,NA,NA,1,6,"4,8,3,14,7,13,9,15,1,10,12,5,11,2,6"
14652,commdev-image-keyboard-response,434,915828,learnblock1,1112,img/planet6_right.png,6,Community 3,NA,FALSE,f,j,NA,NA,NA,1,6,"4,8,3,14,7,13,9,15,1,10,12,5,11,2,6"
14652,commdev-image-keyboard-response,435,917080,learnblock1,849.9000000059605,img/planet2_left.png,2,Community 3,NA,TRUE,f,f,NA,NA,NA,1,6,"4,8,3,14,7,13,9,15,1,10,12,5,11,2,6"
14652,commdev-image-keyboard-response,436,918333,learnblock1,789.3000000119209,img/planet11_left.png,11,Community 3,NA,TRUE,f,f,NA,NA,NA,1,6,"4,8,3,14,7,13,9,15,1,10,12,5,11,2,6"
14652,commdev-image-keyboard-response,437,919584,learnblock1,770.9000000059605,img/planet6_left.png,6,Community 3,NA,TRUE,f,f,NA,NA,NA,1,6,"4,8,3,14,7,13,9,15,1,10,12,5,11,2,6"
14652,commdev-image-keyboard-response,438,920835,learnblock1,726.6999999880791,img/planet5_right.png,5,Community 3,NA,TRUE,j,j,NA,NA,NA,1,6,"4,8,3,14,7,13,9,15,1,10,12,5,11,2,6"
14652,commdev-image-keyboard-response,439,922088,learnblock1,736.1999999880791,img/planet11_right.png,11,Community 3,NA,FALSE,f,j,NA,NA,NA,1,6,"4,8,3,14,7,13,9,15,1,10,12,5,11,2,6"
14652,commdev-image-keyboard-response,440,923341,learnblock1,802.9000000059605,img/planet6_left.png,6,Community 3,NA,TRUE,f,f,NA,NA,NA,1,6,"4,8,3,14,7,13,9,15,1,10,12,5,11,2,6"
14652,commdev-image-keyboard-response,441,924593,learnblock1,794.5,img/planet2_right.png,2,Community 3,NA,TRUE,j,j,NA,NA,NA,1,6,"4,8,3,14,7,13,9,15,1,10,12,5,11,2,6"
14652,commdev-image-keyboard-response,442,925845,learnblock1,817.2000000178814,img/planet6_right.png,6,Community 3,NA,FALSE,f,j,NA,NA,NA,1,6,"4,8,3,14,7,13,9,15,1,10,12,5,11,2,6"
14652,commdev-image-keyboard-response,443,927096,learnblock1,800.2000000178814,img/planet2_right.png,2,Community 3,NA,TRUE,j,j,NA,NA,NA,1,6,"4,8,3,14,7,13,9,15,1,10,12,5,11,2,6"
14652,commdev-image-keyboard-response,444,928349,learnblock1,1056.5999999940395,img/planet12_right.png,12,Community 3,NA,TRUE,j,j,NA,NA,NA,1,6,"4,8,3,14,7,13,9,15,1,10,12,5,11,2,6"
14652,commdev-image-keyboard-response,445,929601,learnblock1,817.1000000238419,img/planet2_right.png,2,Community 3,NA,TRUE,j,j,NA,NA,NA,1,6,"4,8,3,14,7,13,9,15,1,10,12,5,11,2,6"
14652,commdev-image-keyboard-response,446,930854,learnblock1,790.1000000238419,img/planet11_left.png,11,Community 3,NA,FALSE,j,f,NA,NA,NA,1,6,"4,8,3,14,7,13,9,15,1,10,12,5,11,2,6"
14652,commdev-image-keyboard-response,447,932106,learnblock1,814.7999999821186,img/planet6_left.png,6,Community 3,NA,TRUE,f,f,NA,NA,NA,1,6,"4,8,3,14,7,13,9,15,1,10,12,5,11,2,6"
14652,commdev-image-keyboard-response,448,933358,learnblock1,839.5,img/planet5_right.png,5,Community 3,NA,TRUE,j,j,NA,NA,NA,1,6,"4,8,3,14,7,13,9,15,1,10,12,5,11,2,6"
14652,commdev-image-keyboard-response,449,934610,learnblock1,797.5999999940395,img/planet6_left.png,6,Community 3,NA,TRUE,f,f,NA,NA,NA,1,6,"4,8,3,14,7,13,9,15,1,10,12,5,11,2,6"
14652,commdev-image-keyboard-response,450,935862,learnblock1,817.1999999880791,img/planet12_left.png,12,Community 3,NA,TRUE,f,f,NA,NA,NA,1,6,"4,8,3,14,7,13,9,15,1,10,12,5,11,2,6"
14652,commdev-image-keyboard-response,451,937115,learnblock1,708.5999999940395,img/planet11_left.png,11,Community 3,NA,TRUE,f,f,NA,NA,NA,1,6,"4,8,3,14,7,13,9,15,1,10,12,5,11,2,6"
14652,commdev-image-keyboard-response,452,938367,learnblock1,670.5999999940395,img/planet12_right.png,12,Community 3,NA,TRUE,j,j,NA,NA,NA,1,6,"4,8,3,14,7,13,9,15,1,10,12,5,11,2,6"
14652,commdev-image-keyboard-response,453,939620,learnblock1,930.8000000119209,img/planet7_left.png,7,Community 1,NA,TRUE,f,f,NA,NA,NA,1,6,"4,8,3,14,7,13,9,15,1,10,12,5,11,2,6"
14652,commdev-image-keyboard-response,454,940873,learnblock1,982.5,img/planet4_left.png,4,Community 1,NA,TRUE,f,f,NA,NA,NA,1,6,"4,8,3,14,7,13,9,15,1,10,12,5,11,2,6"
14652,commdev-image-keyboard-response,455,942125,learnblock1,717.8000000119209,img/planet8_right.png,8,Community 1,NA,TRUE,j,j,NA,NA,NA,1,6,"4,8,3,14,7,13,9,15,1,10,12,5,11,2,6"
14652,commdev-image-keyboard-response,456,943377,learnblock1,1099.0999999940395,img/planet7_left.png,7,Community 1,NA,FALSE,j,f,NA,NA,NA,1,6,"4,8,3,14,7,13,9,15,1,10,12,5,11,2,6"
14652,commdev-image-keyboard-response,457,944630,learnblock1,783.2999999821186,img/planet3_right.png,3,Community 1,NA,FALSE,f,j,NA,NA,NA,1,6,"4,8,3,14,7,13,9,15,1,10,12,5,11,2,6"
14652,commdev-image-keyboard-response,458,945882,learnblock1,825.9000000059605,img/planet7_right.png,7,Community 1,NA,TRUE,j,j,NA,NA,NA,1,6,"4,8,3,14,7,13,9,15,1,10,12,5,11,2,6"
14652,commdev-image-keyboard-response,459,947135,learnblock1,672.7999999821186,img/planet12_right.png,12,Community 3,NA,TRUE,j,j,NA,NA,NA,1,6,"4,8,3,14,7,13,9,15,1,10,12,5,11,2,6"
14652,commdev-image-keyboard-response,460,948386,learnblock1,526.5,img/planet6_left.png,6,Community 3,NA,TRUE,f,f,NA,NA,NA,1,6,"4,8,3,14,7,13,9,15,1,10,12,5,11,2,6"
14652,commdev-image-keyboard-response,461,949638,learnblock1,715.4000000059605,img/planet11_left.png,11,Community 3,NA,TRUE,f,f,NA,NA,NA,1,6,"4,8,3,14,7,13,9,15,1,10,12,5,11,2,6"
14652,commdev-image-keyboard-response,462,950892,learnblock1,588.0999999940395,img/planet6_right.png,6,Community 3,NA,FALSE,f,j,NA,NA,NA,1,6,"4,8,3,14,7,13,9,15,1,10,12,5,11,2,6"
14652,commdev-image-keyboard-response,463,952144,learnblock1,609.5999999940395,img/planet12_left.png,12,Community 3,NA,TRUE,f,f,NA,NA,NA,1,6,"4,8,3,14,7,13,9,15,1,10,12,5,11,2,6"
14652,commdev-image-keyboard-response,464,953397,learnblock1,724.5999999940395,img/planet2_right.png,2,Community 3,NA,FALSE,f,j,NA,NA,NA,1,6,"4,8,3,14,7,13,9,15,1,10,12,5,11,2,6"
14652,commdev-image-keyboard-response,465,954649,learnblock1,350.7999999821186,img/planet6_right.png,6,Community 3,NA,TRUE,j,j,NA,NA,NA,1,6,"4,8,3,14,7,13,9,15,1,10,12,5,11,2,6"
14652,commdev-image-keyboard-response,466,955902,learnblock1,1119.800000011921,img/planet11_left.png,11,Community 3,NA,TRUE,f,f,NA,NA,NA,1,6,"4,8,3,14,7,13,9,15,1,10,12,5,11,2,6"
14652,commdev-image-keyboard-response,467,957153,learnblock1,792.5,img/planet6_right.png,6,Community 3,NA,FALSE,f,j,NA,NA,NA,1,6,"4,8,3,14,7,13,9,15,1,10,12,5,11,2,6"
14652,commdev-image-keyboard-response,468,958404,learnblock1,585.5999999940395,img/planet11_left.png,11,Community 3,NA,TRUE,f,f,NA,NA,NA,1,6,"4,8,3,14,7,13,9,15,1,10,12,5,11,2,6"
14652,commdev-image-keyboard-response,469,959656,learnblock1,420.80000001192093,img/planet6_right.png,6,Community 3,NA,FALSE,f,j,NA,NA,NA,1,6,"4,8,3,14,7,13,9,15,1,10,12,5,11,2,6"
14652,commdev-image-keyboard-response,470,960908,learnblock1,445.40000000596046,img/planet5_right.png,5,Community 3,NA,TRUE,j,j,NA,NA,NA,1,6,"4,8,3,14,7,13,9,15,1,10,12,5,11,2,6"
14652,commdev-image-keyboard-response,471,962161,learnblock1,442.40000000596046,img/planet15_right.png,15,Community 2,NA,TRUE,j,j,NA,NA,NA,1,6,"4,8,3,14,7,13,9,15,1,10,12,5,11,2,6"
14652,commdev-image-keyboard-response,472,963414,learnblock1,712.3000000119209,img/planet10_right.png,10,Community 2,NA,TRUE,j,j,NA,NA,NA,1,6,"4,8,3,14,7,13,9,15,1,10,12,5,11,2,6"
14652,commdev-image-keyboard-response,473,964666,learnblock1,633.6000000238419,img/planet1_right.png,1,Community 2,NA,FALSE,f,j,NA,NA,NA,1,6,"4,8,3,14,7,13,9,15,1,10,12,5,11,2,6"
14652,commdev-image-keyboard-response,474,965918,learnblock1,449.69999998807907,img/planet9_right.png,9,Community 2,NA,TRUE,j,j,NA,NA,NA,1,6,"4,8,3,14,7,13,9,15,1,10,12,5,11,2,6"
14652,commdev-image-keyboard-response,475,967171,learnblock1,409.30000001192093,img/planet10_right.png,10,Community 2,NA,TRUE,j,j,NA,NA,NA,1,6,"4,8,3,14,7,13,9,15,1,10,12,5,11,2,6"
14652,commdev-image-keyboard-response,476,968423,learnblock1,505.80000001192093,img/planet9_right.png,9,Community 2,NA,TRUE,j,j,NA,NA,NA,1,6,"4,8,3,14,7,13,9,15,1,10,12,5,11,2,6"
14652,commdev-image-keyboard-response,477,969676,learnblock1,463.7000000178814,img/planet1_right.png,1,Community 2,NA,TRUE,j,j,NA,NA,NA,1,6,"4,8,3,14,7,13,9,15,1,10,12,5,11,2,6"
14652,commdev-image-keyboard-response,478,970928,learnblock1,803.3999999761581,img/planet13_right.png,13,Community 2,NA,TRUE,j,j,NA,NA,NA,1,6,"4,8,3,14,7,13,9,15,1,10,12,5,11,2,6"
14652,commdev-image-keyboard-response,479,972179,learnblock1,null,img/planet14_left.png,14,Community 1,NA,FALSE,null,f,NA,NA,NA,1,6,"4,8,3,14,7,13,9,15,1,10,12,5,11,2,6"
14652,commdev-image-keyboard-response,480,973431,learnblock1,555.7000000178814,img/planet4_right.png,4,Community 1,NA,FALSE,f,j,NA,NA,NA,1,6,"4,8,3,14,7,13,9,15,1,10,12,5,11,2,6"
14652,commdev-image-keyboard-response,481,974683,learnblock1,135.2000000178814,img/planet7_right.png,7,Community 1,NA,FALSE,f,j,NA,NA,NA,1,6,"4,8,3,14,7,13,9,15,1,10,12,5,11,2,6"
14652,commdev-image-keyboard-response,482,975936,learnblock1,309.40000000596046,img/planet3_left.png,3,Community 1,NA,FALSE,j,f,NA,NA,NA,1,6,"4,8,3,14,7,13,9,15,1,10,12,5,11,2,6"
14652,commdev-image-keyboard-response,483,977188,learnblock1,21.599999994039536,img/planet7_right.png,7,Community 1,NA,FALSE,f,j,NA,NA,NA,1,6,"4,8,3,14,7,13,9,15,1,10,12,5,11,2,6"
14652,commdev-image-keyboard-response,484,978440,learnblock1,1034,img/planet12_right.png,12,Community 3,NA,TRUE,j,j,NA,NA,NA,1,6,"4,8,3,14,7,13,9,15,1,10,12,5,11,2,6"
14652,commdev-image-keyboard-response,485,979692,learnblock1,629.9000000059605,img/planet7_right.png,7,Community 1,NA,FALSE,f,j,NA,NA,NA,1,6,"4,8,3,14,7,13,9,15,1,10,12,5,11,2,6"
14652,commdev-image-keyboard-response,486,980943,learnblock1,506.7999999821186,img/planet4_right.png,4,Community 1,NA,FALSE,f,j,NA,NA,NA,1,6,"4,8,3,14,7,13,9,15,1,10,12,5,11,2,6"
14652,commdev-image-keyboard-response,487,982196,learnblock1,637.5,img/planet14_left.png,14,Community 1,NA,FALSE,j,f,NA,NA,NA,1,6,"4,8,3,14,7,13,9,15,1,10,12,5,11,2,6"
14652,commdev-image-keyboard-response,488,983448,learnblock1,708.3999999761581,img/planet8_right.png,8,Community 1,NA,FALSE,f,j,NA,NA,NA,1,6,"4,8,3,14,7,13,9,15,1,10,12,5,11,2,6"
14652,commdev-image-keyboard-response,489,984701,learnblock1,646.3000000119209,img/planet7_left.png,7,Community 1,NA,TRUE,f,f,NA,NA,NA,1,6,"4,8,3,14,7,13,9,15,1,10,12,5,11,2,6"
14652,commdev-image-keyboard-response,490,985953,learnblock1,554.4000000059605,img/planet3_left.png,3,Community 1,NA,TRUE,f,f,NA,NA,NA,1,6,"4,8,3,14,7,13,9,15,1,10,12,5,11,2,6"
14652,commdev-image-keyboard-response,491,987206,learnblock1,638.7000000178814,img/planet4_left.png,4,Community 1,NA,TRUE,f,f,NA,NA,NA,1,6,"4,8,3,14,7,13,9,15,1,10,12,5,11,2,6"
14652,commdev-image-keyboard-response,492,988457,learnblock1,839,img/planet7_left.png,7,Community 1,NA,TRUE,f,f,NA,NA,NA,1,6,"4,8,3,14,7,13,9,15,1,10,12,5,11,2,6"
14652,commdev-image-keyboard-response,493,989709,learnblock1,909.7000000178814,img/planet8_left.png,8,Community 1,NA,TRUE,f,f,NA,NA,NA,1,6,"4,8,3,14,7,13,9,15,1,10,12,5,11,2,6"
14652,commdev-image-keyboard-response,494,990961,learnblock1,706.2999999821186,img/planet7_left.png,7,Community 1,NA,TRUE,f,f,NA,NA,NA,1,6,"4,8,3,14,7,13,9,15,1,10,12,5,11,2,6"
14652,commdev-image-keyboard-response,495,992213,learnblock1,736.5999999940395,img/planet8_left.png,8,Community 1,NA,FALSE,j,f,NA,NA,NA,1,6,"4,8,3,14,7,13,9,15,1,10,12,5,11,2,6"
14652,commdev-image-keyboard-response,496,993465,learnblock1,732.9000000059605,img/planet4_right.png,4,Community 1,NA,TRUE,j,j,NA,NA,NA,1,6,"4,8,3,14,7,13,9,15,1,10,12,5,11,2,6"
14652,commdev-image-keyboard-response,497,994717,learnblock1,465.69999998807907,img/planet8_left.png,8,Community 1,NA,FALSE,j,f,NA,NA,NA,1,6,"4,8,3,14,7,13,9,15,1,10,12,5,11,2,6"
14652,commdev-image-keyboard-response,498,995969,learnblock1,375.19999998807907,img/planet14_right.png,14,Community 1,NA,TRUE,j,j,NA,NA,NA,1,6,"4,8,3,14,7,13,9,15,1,10,12,5,11,2,6"
14652,commdev-image-keyboard-response,499,997221,learnblock1,345.09999999403954,img/planet4_right.png,4,Community 1,NA,TRUE,j,j,NA,NA,NA,1,6,"4,8,3,14,7,13,9,15,1,10,12,5,11,2,6"
14652,commdev-image-keyboard-response,500,998473,learnblock1,367.19999998807907,img/planet7_left.png,7,Community 1,NA,FALSE,j,f,NA,NA,NA,1,6,"4,8,3,14,7,13,9,15,1,10,12,5,11,2,6"
14652,commdev-image-keyboard-response,501,999725,learnblock1,98.69999998807907,img/planet3_right.png,3,Community 1,NA,TRUE,j,j,NA,NA,NA,1,6,"4,8,3,14,7,13,9,15,1,10,12,5,11,2,6"
14652,commdev-image-keyboard-response,502,1000977,learnblock1,730.6999999880791,img/planet8_right.png,8,Community 1,NA,TRUE,j,j,NA,NA,NA,1,6,"4,8,3,14,7,13,9,15,1,10,12,5,11,2,6"
14652,commdev-image-keyboard-response,503,1002229,learnblock1,394.2999999821186,img/planet14_left.png,14,Community 1,NA,FALSE,j,f,NA,NA,NA,1,6,"4,8,3,14,7,13,9,15,1,10,12,5,11,2,6"
14652,commdev-image-keyboard-response,504,1003481,learnblock1,290.40000000596046,img/planet13_right.png,13,Community 2,NA,TRUE,j,j,NA,NA,NA,1,6,"4,8,3,14,7,13,9,15,1,10,12,5,11,2,6"
14652,commdev-image-keyboard-response,505,1004734,learnblock1,347.5,img/planet14_left.png,14,Community 1,NA,TRUE,f,f,NA,NA,NA,1,6,"4,8,3,14,7,13,9,15,1,10,12,5,11,2,6"
14652,commdev-image-keyboard-response,506,1005986,learnblock1,299.7999999821186,img/planet8_right.png,8,Community 1,NA,TRUE,j,j,NA,NA,NA,1,6,"4,8,3,14,7,13,9,15,1,10,12,5,11,2,6"
14652,commdev-image-keyboard-response,507,1007237,learnblock1,243.60000002384186,img/planet7_right.png,7,Community 1,NA,TRUE,j,j,NA,NA,NA,1,6,"4,8,3,14,7,13,9,15,1,10,12,5,11,2,6"
14652,commdev-image-keyboard-response,508,1008490,learnblock1,379.09999999403954,img/planet8_right.png,8,Community 1,NA,TRUE,j,j,NA,NA,NA,1,6,"4,8,3,14,7,13,9,15,1,10,12,5,11,2,6"
14652,commdev-image-keyboard-response,509,1009741,learnblock1,401.59999999403954,img/planet7_left.png,7,Community 1,NA,FALSE,j,f,NA,NA,NA,1,6,"4,8,3,14,7,13,9,15,1,10,12,5,11,2,6"
14652,commdev-image-keyboard-response,510,1010994,learnblock1,422.30000001192093,img/planet3_right.png,3,Community 1,NA,TRUE,j,j,NA,NA,NA,1,6,"4,8,3,14,7,13,9,15,1,10,12,5,11,2,6"
14652,commdev-image-keyboard-response,511,1012246,learnblock1,389.7999999821186,img/planet14_right.png,14,Community 1,NA,TRUE,j,j,NA,NA,NA,1,6,"4,8,3,14,7,13,9,15,1,10,12,5,11,2,6"
14652,commdev-image-keyboard-response,512,1013497,learnblock1,419.2000000178814,img/planet8_right.png,8,Community 1,NA,TRUE,j,j,NA,NA,NA,1,6,"4,8,3,14,7,13,9,15,1,10,12,5,11,2,6"
14652,commdev-image-keyboard-response,513,1014749,learnblock1,387.5,img/planet14_left.png,14,Community 1,NA,FALSE,j,f,NA,NA,NA,1,6,"4,8,3,14,7,13,9,15,1,10,12,5,11,2,6"
14652,commdev-image-keyboard-response,514,1016001,learnblock1,734.5999999940395,img/planet13_left.png,13,Community 2,NA,TRUE,f,f,NA,NA,NA,1,6,"4,8,3,14,7,13,9,15,1,10,12,5,11,2,6"
14652,commdev-image-keyboard-response,515,1017253,learnblock1,624,img/planet9_left.png,9,Community 2,NA,FALSE,j,f,NA,NA,NA,1,6,"4,8,3,14,7,13,9,15,1,10,12,5,11,2,6"
14652,commdev-image-keyboard-response,516,1018505,learnblock1,751.3000000119209,img/planet10_left.png,10,Community 2,NA,TRUE,f,f,NA,NA,NA,1,6,"4,8,3,14,7,13,9,15,1,10,12,5,11,2,6"
14652,commdev-image-keyboard-response,517,1019757,learnblock1,684.6999999880791,img/planet15_right.png,15,Community 2,NA,FALSE,f,j,NA,NA,NA,1,6,"4,8,3,14,7,13,9,15,1,10,12,5,11,2,6"
14652,commdev-image-keyboard-response,518,1021009,learnblock1,676.8000000119209,img/planet1_left.png,1,Community 2,NA,FALSE,j,f,NA,NA,NA,1,6,"4,8,3,14,7,13,9,15,1,10,12,5,11,2,6"
14652,commdev-image-keyboard-response,522,1046668,learnblock2,92,img/planet7_left.png,7,Community 1,NA,FALSE,j,f,NA,NA,NA,1,6,"4,8,3,14,7,13,9,15,1,10,12,5,11,2,6"
14652,commdev-image-keyboard-response,523,1047921,learnblock2,65.59999999403954,img/planet8_right.png,8,Community 1,NA,FALSE,f,j,NA,NA,NA,1,6,"4,8,3,14,7,13,9,15,1,10,12,5,11,2,6"
14652,commdev-image-keyboard-response,524,1049173,learnblock2,136.7999999821186,img/planet7_right.png,7,Community 1,NA,FALSE,f,j,NA,NA,NA,1,6,"4,8,3,14,7,13,9,15,1,10,12,5,11,2,6"
14652,commdev-image-keyboard-response,525,1050425,learnblock2,12.5,img/planet4_left.png,4,Community 1,NA,TRUE,f,f,NA,NA,NA,1,6,"4,8,3,14,7,13,9,15,1,10,12,5,11,2,6"
14652,commdev-image-keyboard-response,526,1051677,learnblock2,69,img/planet8_left.png,8,Community 1,NA,TRUE,f,f,NA,NA,NA,1,6,"4,8,3,14,7,13,9,15,1,10,12,5,11,2,6"
14652,commdev-image-keyboard-response,527,1052930,learnblock2,117.7999999821186,img/planet14_left.png,14,Community 1,NA,FALSE,j,f,NA,NA,NA,1,6,"4,8,3,14,7,13,9,15,1,10,12,5,11,2,6"
14652,commdev-image-keyboard-response,528,1054183,learnblock2,78.7999999821186,img/planet13_left.png,13,Community 2,NA,TRUE,f,f,NA,NA,NA,1,6,"4,8,3,14,7,13,9,15,1,10,12,5,11,2,6"
14652,commdev-image-keyboard-response,529,1055434,learnblock2,113.30000001192093,img/planet9_right.png,9,Community 2,NA,FALSE,f,j,NA,NA,NA,1,6,"4,8,3,14,7,13,9,15,1,10,12,5,11,2,6"
14652,commdev-image-keyboard-response,530,1056687,learnblock2,96.59999999403954,img/planet10_left.png,10,Community 2,NA,FALSE,j,f,NA,NA,NA,1,6,"4,8,3,14,7,13,9,15,1,10,12,5,11,2,6"
14652,commdev-image-keyboard-response,531,1057939,learnblock2,142,img/planet15_right.png,15,Community 2,NA,FALSE,f,j,NA,NA,NA,1,6,"4,8,3,14,7,13,9,15,1,10,12,5,11,2,6"
14652,commdev-image-keyboard-response,532,1059191,learnblock2,55.599999994039536,img/planet9_right.png,9,Community 2,NA,FALSE,f,j,NA,NA,NA,1,6,"4,8,3,14,7,13,9,15,1,10,12,5,11,2,6"
14652,commdev-image-keyboard-response,533,1060443,learnblock2,94,img/planet15_left.png,15,Community 2,NA,FALSE,j,f,NA,NA,NA,1,6,"4,8,3,14,7,13,9,15,1,10,12,5,11,2,6"
14652,commdev-image-keyboard-response,534,1061696,learnblock2,185.80000001192093,img/planet9_right.png,9,Community 2,NA,FALSE,f,j,NA,NA,NA,1,6,"4,8,3,14,7,13,9,15,1,10,12,5,11,2,6"
14652,commdev-image-keyboard-response,535,1062949,learnblock2,196.89999997615814,img/planet15_left.png,15,Community 2,NA,FALSE,j,f,NA,NA,NA,1,6,"4,8,3,14,7,13,9,15,1,10,12,5,11,2,6"
14652,commdev-image-keyboard-response,536,1064202,learnblock2,75.5,img/planet5_right.png,5,Community 3,NA,TRUE,j,j,NA,NA,NA,1,6,"4,8,3,14,7,13,9,15,1,10,12,5,11,2,6"
14652,commdev-image-keyboard-response,537,1065453,learnblock2,126,img/planet6_right.png,6,Community 3,NA,FALSE,f,j,NA,NA,NA,1,6,"4,8,3,14,7,13,9,15,1,10,12,5,11,2,6"
14652,commdev-image-keyboard-response,538,1066704,learnblock2,71.59999999403954,img/planet5_left.png,5,Community 3,NA,FALSE,j,f,NA,NA,NA,1,6,"4,8,3,14,7,13,9,15,1,10,12,5,11,2,6"
14652,commdev-image-keyboard-response,539,1067955,learnblock2,141.5,img/planet11_right.png,11,Community 3,NA,TRUE,j,j,NA,NA,NA,1,6,"4,8,3,14,7,13,9,15,1,10,12,5,11,2,6"
14652,commdev-image-keyboard-response,540,1069207,learnblock2,113.69999998807907,img/planet12_right.png,12,Community 3,NA,TRUE,j,j,NA,NA,NA,1,6,"4,8,3,14,7,13,9,15,1,10,12,5,11,2,6"
14652,commdev-image-keyboard-response,541,1070460,learnblock2,113.69999998807907,img/planet11_left.png,11,Community 3,NA,FALSE,j,f,NA,NA,NA,1,6,"4,8,3,14,7,13,9,15,1,10,12,5,11,2,6"
14652,commdev-image-keyboard-response,542,1071711,learnblock2,264,img/planet2_right.png,2,Community 3,NA,TRUE,j,j,NA,NA,NA,1,6,"4,8,3,14,7,13,9,15,1,10,12,5,11,2,6"
14652,commdev-image-keyboard-response,543,1072963,learnblock2,74.5,img/planet12_right.png,12,Community 3,NA,TRUE,j,j,NA,NA,NA,1,6,"4,8,3,14,7,13,9,15,1,10,12,5,11,2,6"
14652,commdev-image-keyboard-response,544,1074216,learnblock2,197.40000000596046,img/planet6_right.png,6,Community 3,NA,FALSE,f,j,NA,NA,NA,1,6,"4,8,3,14,7,13,9,15,1,10,12,5,11,2,6"
14652,commdev-image-keyboard-response,545,1075468,learnblock2,86.19999998807907,img/planet11_right.png,11,Community 3,NA,TRUE,j,j,NA,NA,NA,1,6,"4,8,3,14,7,13,9,15,1,10,12,5,11,2,6"
14652,commdev-image-keyboard-response,546,1076720,learnblock2,84.59999999403954,img/planet6_left.png,6,Community 3,NA,FALSE,j,f,NA,NA,NA,1,6,"4,8,3,14,7,13,9,15,1,10,12,5,11,2,6"
14652,commdev-image-keyboard-response,547,1077971,learnblock2,85,img/planet11_right.png,11,Community 3,NA,TRUE,j,j,NA,NA,NA,1,6,"4,8,3,14,7,13,9,15,1,10,12,5,11,2,6"
14652,commdev-image-keyboard-response,548,1079223,learnblock2,72.40000000596046,img/planet12_left.png,12,Community 3,NA,FALSE,j,f,NA,NA,NA,1,6,"4,8,3,14,7,13,9,15,1,10,12,5,11,2,6"
14652,commdev-image-keyboard-response,549,1080475,learnblock2,175.69999998807907,img/planet11_right.png,11,Community 3,NA,TRUE,j,j,NA,NA,NA,1,6,"4,8,3,14,7,13,9,15,1,10,12,5,11,2,6"
14652,commdev-image-keyboard-response,550,1081726,learnblock2,69.7000000178814,img/planet12_left.png,12,Community 3,NA,FALSE,j,f,NA,NA,NA,1,6,"4,8,3,14,7,13,9,15,1,10,12,5,11,2,6"
14652,commdev-image-keyboard-response,551,1082979,learnblock2,76.90000000596046,img/planet11_right.png,11,Community 3,NA,FALSE,f,j,NA,NA,NA,1,6,"4,8,3,14,7,13,9,15,1,10,12,5,11,2,6"
14652,commdev-image-keyboard-response,552,1084230,learnblock2,65.09999999403954,img/planet6_right.png,6,Community 3,NA,TRUE,j,j,NA,NA,NA,1,6,"4,8,3,14,7,13,9,15,1,10,12,5,11,2,6"
14652,commdev-image-keyboard-response,553,1085483,learnblock2,72.30000001192093,img/planet5_left.png,5,Community 3,NA,TRUE,f,f,NA,NA,NA,1,6,"4,8,3,14,7,13,9,15,1,10,12,5,11,2,6"
14652,commdev-image-keyboard-response,554,1086734,learnblock2,162.19999998807907,img/planet15_left.png,15,Community 2,NA,TRUE,f,f,NA,NA,NA,1,6,"4,8,3,14,7,13,9,15,1,10,12,5,11,2,6"
14652,commdev-image-keyboard-response,555,1087987,learnblock2,67.40000000596046,img/planet9_right.png,9,Community 2,NA,FALSE,f,j,NA,NA,NA,1,6,"4,8,3,14,7,13,9,15,1,10,12,5,11,2,6"
14652,commdev-image-keyboard-response,556,1089240,learnblock2,136.80000001192093,img/planet10_right.png,10,Community 2,NA,TRUE,j,j,NA,NA,NA,1,6,"4,8,3,14,7,13,9,15,1,10,12,5,11,2,6"
14652,commdev-image-keyboard-response,557,1090493,learnblock2,572.5999999940395,img/planet9_right.png,9,Community 2,NA,TRUE,j,j,NA,NA,NA,1,6,"4,8,3,14,7,13,9,15,1,10,12,5,11,2,6"
14652,commdev-image-keyboard-response,558,1091744,learnblock2,67.40000000596046,img/planet10_left.png,10,Community 2,NA,FALSE,j,f,NA,NA,NA,1,6,"4,8,3,14,7,13,9,15,1,10,12,5,11,2,6"
14652,commdev-image-keyboard-response,559,1092997,learnblock2,74.09999999403954,img/planet1_left.png,1,Community 2,NA,TRUE,f,f,NA,NA,NA,1,6,"4,8,3,14,7,13,9,15,1,10,12,5,11,2,6"
14652,commdev-image-keyboard-response,560,1094250,learnblock2,189.90000000596046,img/planet13_left.png,13,Community 2,NA,TRUE,f,f,NA,NA,NA,1,6,"4,8,3,14,7,13,9,15,1,10,12,5,11,2,6"
14652,commdev-image-keyboard-response,561,1095503,learnblock2,148.30000001192093,img/planet9_right.png,9,Community 2,NA,FALSE,f,j,NA,NA,NA,1,6,"4,8,3,14,7,13,9,15,1,10,12,5,11,2,6"
14652,commdev-image-keyboard-response,562,1096754,learnblock2,74.5,img/planet1_left.png,1,Community 2,NA,TRUE,f,f,NA,NA,NA,1,6,"4,8,3,14,7,13,9,15,1,10,12,5,11,2,6"
14652,commdev-image-keyboard-response,563,1098006,learnblock2,112.80000001192093,img/planet9_left.png,9,Community 2,NA,FALSE,j,f,NA,NA,NA,1,6,"4,8,3,14,7,13,9,15,1,10,12,5,11,2,6"
14652,commdev-image-keyboard-response,564,1099259,learnblock2,3.199999988079071,img/planet13_right.png,13,Community 2,NA,TRUE,j,j,NA,NA,NA,1,6,"4,8,3,14,7,13,9,15,1,10,12,5,11,2,6"
14652,commdev-image-keyboard-response,565,1100510,learnblock2,78.5,img/planet14_right.png,14,Community 1,NA,FALSE,f,j,NA,NA,NA,1,6,"4,8,3,14,7,13,9,15,1,10,12,5,11,2,6"
14652,commdev-image-keyboard-response,566,1101763,learnblock2,99.7999999821186,img/planet3_right.png,3,Community 1,NA,TRUE,j,j,NA,NA,NA,1,6,"4,8,3,14,7,13,9,15,1,10,12,5,11,2,6"
14652,commdev-image-keyboard-response,567,1103015,learnblock2,163,img/planet14_right.png,14,Community 1,NA,FALSE,f,j,NA,NA,NA,1,6,"4,8,3,14,7,13,9,15,1,10,12,5,11,2,6"
14652,commdev-image-keyboard-response,568,1104268,learnblock2,78,img/planet13_right.png,13,Community 2,NA,FALSE,f,j,NA,NA,NA,1,6,"4,8,3,14,7,13,9,15,1,10,12,5,11,2,6"
14652,commdev-image-keyboard-response,569,1105520,learnblock2,49.900000005960464,img/planet9_left.png,9,Community 2,NA,TRUE,f,f,NA,NA,NA,1,6,"4,8,3,14,7,13,9,15,1,10,12,5,11,2,6"
14652,commdev-image-keyboard-response,570,1106772,learnblock2,137.59999999403954,img/planet15_left.png,15,Community 2,NA,FALSE,j,f,NA,NA,NA,1,6,"4,8,3,14,7,13,9,15,1,10,12,5,11,2,6"
14652,commdev-image-keyboard-response,571,1108025,learnblock2,116.59999999403954,img/planet1_left.png,1,Community 2,NA,FALSE,j,f,NA,NA,NA,1,6,"4,8,3,14,7,13,9,15,1,10,12,5,11,2,6"
14652,commdev-image-keyboard-response,572,1109278,learnblock2,103.90000000596046,img/planet10_left.png,10,Community 2,NA,FALSE,j,f,NA,NA,NA,1,6,"4,8,3,14,7,13,9,15,1,10,12,5,11,2,6"
14652,commdev-image-keyboard-response,573,1110530,learnblock2,73.90000000596046,img/planet9_left.png,9,Community 2,NA,FALSE,j,f,NA,NA,NA,1,6,"4,8,3,14,7,13,9,15,1,10,12,5,11,2,6"
14652,commdev-image-keyboard-response,574,1111782,learnblock2,17.200000017881393,img/planet13_right.png,13,Community 2,NA,FALSE,f,j,NA,NA,NA,1,6,"4,8,3,14,7,13,9,15,1,10,12,5,11,2,6"
14652,commdev-image-keyboard-response,575,1113033,learnblock2,5.800000011920929,img/planet10_left.png,10,Community 2,NA,FALSE,j,f,NA,NA,NA,1,6,"4,8,3,14,7,13,9,15,1,10,12,5,11,2,6"
14652,commdev-image-keyboard-response,576,1114286,learnblock2,4,img/planet1_left.png,1,Community 2,NA,TRUE,f,f,NA,NA,NA,1,6,"4,8,3,14,7,13,9,15,1,10,12,5,11,2,6"
14652,commdev-image-keyboard-response,577,1115538,learnblock2,27,img/planet10_left.png,10,Community 2,NA,FALSE,j,f,NA,NA,NA,1,6,"4,8,3,14,7,13,9,15,1,10,12,5,11,2,6"
14652,commdev-image-keyboard-response,578,1116791,learnblock2,21.19999998807907,img/planet15_left.png,15,Community 2,NA,TRUE,f,f,NA,NA,NA,1,6,"4,8,3,14,7,13,9,15,1,10,12,5,11,2,6"
14652,commdev-image-keyboard-response,579,1118043,learnblock2,140.90000000596046,img/planet1_right.png,1,Community 2,NA,TRUE,j,j,NA,NA,NA,1,6,"4,8,3,14,7,13,9,15,1,10,12,5,11,2,6"
14652,commdev-image-keyboard-response,580,1119294,learnblock2,4,img/planet13_left.png,13,Community 2,NA,FALSE,j,f,NA,NA,NA,1,6,"4,8,3,14,7,13,9,15,1,10,12,5,11,2,6"
14652,commdev-image-keyboard-response,581,1120547,learnblock2,198,img/planet1_left.png,1,Community 2,NA,FALSE,j,f,NA,NA,NA,1,6,"4,8,3,14,7,13,9,15,1,10,12,5,11,2,6"
14652,commdev-image-keyboard-response,582,1121799,learnblock2,130.2999999821186,img/planet13_right.png,13,Community 2,NA,TRUE,j,j,NA,NA,NA,1,6,"4,8,3,14,7,13,9,15,1,10,12,5,11,2,6"
14652,commdev-image-keyboard-response,583,1123050,learnblock2,114.80000001192093,img/planet10_right.png,10,Community 2,NA,FALSE,f,j,NA,NA,NA,1,6,"4,8,3,14,7,13,9,15,1,10,12,5,11,2,6"
14652,commdev-image-keyboard-response,584,1124302,learnblock2,71.40000000596046,img/planet1_left.png,1,Community 2,NA,FALSE,j,f,NA,NA,NA,1,6,"4,8,3,14,7,13,9,15,1,10,12,5,11,2,6"
14652,commdev-image-keyboard-response,585,1125554,learnblock2,162.19999998807907,img/planet15_left.png,15,Community 2,NA,FALSE,j,f,NA,NA,NA,1,6,"4,8,3,14,7,13,9,15,1,10,12,5,11,2,6"
14652,commdev-image-keyboard-response,586,1126805,learnblock2,81.80000001192093,img/planet9_left.png,9,Community 2,NA,TRUE,f,f,NA,NA,NA,1,6,"4,8,3,14,7,13,9,15,1,10,12,5,11,2,6"
14652,commdev-image-keyboard-response,587,1128057,learnblock2,176.60000002384186,img/planet10_right.png,10,Community 2,NA,FALSE,f,j,NA,NA,NA,1,6,"4,8,3,14,7,13,9,15,1,10,12,5,11,2,6"
14652,commdev-image-keyboard-response,588,1129309,learnblock2,150.5,img/planet9_right.png,9,Community 2,NA,TRUE,j,j,NA,NA,NA,1,6,"4,8,3,14,7,13,9,15,1,10,12,5,11,2,6"
14652,commdev-image-keyboard-response,589,1130562,learnblock2,121.5,img/planet13_right.png,13,Community 2,NA,FALSE,f,j,NA,NA,NA,1,6,"4,8,3,14,7,13,9,15,1,10,12,5,11,2,6"
14652,commdev-image-keyboard-response,590,1131815,learnblock2,160.59999999403954,img/planet9_right.png,9,Community 2,NA,TRUE,j,j,NA,NA,NA,1,6,"4,8,3,14,7,13,9,15,1,10,12,5,11,2,6"
14652,commdev-image-keyboard-response,591,1133067,learnblock2,76.30000001192093,img/planet13_left.png,13,Community 2,NA,FALSE,j,f,NA,NA,NA,1,6,"4,8,3,14,7,13,9,15,1,10,12,5,11,2,6"
14652,commdev-image-keyboard-response,592,1134319,learnblock2,64.19999998807907,img/planet10_left.png,10,Community 2,NA,FALSE,j,f,NA,NA,NA,1,6,"4,8,3,14,7,13,9,15,1,10,12,5,11,2,6"
14652,commdev-image-keyboard-response,593,1135572,learnblock2,71.7000000178814,img/planet15_left.png,15,Community 2,NA,FALSE,j,f,NA,NA,NA,1,6,"4,8,3,14,7,13,9,15,1,10,12,5,11,2,6"
14652,commdev-image-keyboard-response,594,1136825,learnblock2,1122.6000000238419,img/planet1_left.png,1,Community 2,NA,FALSE,j,f,NA,NA,NA,1,6,"4,8,3,14,7,13,9,15,1,10,12,5,11,2,6"
14652,commdev-image-keyboard-response,595,1138077,learnblock2,65.5,img/planet15_left.png,15,Community 2,NA,TRUE,f,f,NA,NA,NA,1,6,"4,8,3,14,7,13,9,15,1,10,12,5,11,2,6"
14652,commdev-image-keyboard-response,596,1139329,learnblock2,116.5,img/planet9_right.png,9,Community 2,NA,FALSE,f,j,NA,NA,NA,1,6,"4,8,3,14,7,13,9,15,1,10,12,5,11,2,6"
14652,commdev-image-keyboard-response,597,1140581,learnblock2,5.5999999940395355,img/planet15_left.png,15,Community 2,NA,FALSE,j,f,NA,NA,NA,1,6,"4,8,3,14,7,13,9,15,1,10,12,5,11,2,6"
14652,commdev-image-keyboard-response,598,1141832,learnblock2,53.5,img/planet10_left.png,10,Community 2,NA,FALSE,j,f,NA,NA,NA,1,6,"4,8,3,14,7,13,9,15,1,10,12,5,11,2,6"
14652,commdev-image-keyboard-response,599,1143085,learnblock2,160.90000000596046,img/planet9_right.png,9,Community 2,NA,TRUE,j,j,NA,NA,NA,1,6,"4,8,3,14,7,13,9,15,1,10,12,5,11,2,6"
14652,commdev-image-keyboard-response,600,1144337,learnblock2,82.5,img/planet10_right.png,10,Community 2,NA,FALSE,f,j,NA,NA,NA,1,6,"4,8,3,14,7,13,9,15,1,10,12,5,11,2,6"
14652,commdev-image-keyboard-response,601,1145589,learnblock2,56.5,img/planet1_left.png,1,Community 2,NA,FALSE,j,f,NA,NA,NA,1,6,"4,8,3,14,7,13,9,15,1,10,12,5,11,2,6"
14652,commdev-image-keyboard-response,602,1146841,learnblock2,129.90000000596046,img/planet9_left.png,9,Community 2,NA,FALSE,j,f,NA,NA,NA,1,6,"4,8,3,14,7,13,9,15,1,10,12,5,11,2,6"
14652,commdev-image-keyboard-response,603,1148094,learnblock2,121.59999999403954,img/planet10_left.png,10,Community 2,NA,TRUE,f,f,NA,NA,NA,1,6,"4,8,3,14,7,13,9,15,1,10,12,5,11,2,6"
14652,commdev-image-keyboard-response,604,1149346,learnblock2,125.7999999821186,img/planet13_left.png,13,Community 2,NA,FALSE,j,f,NA,NA,NA,1,6,"4,8,3,14,7,13,9,15,1,10,12,5,11,2,6"
14652,commdev-image-keyboard-response,605,1150597,learnblock2,105.59999999403954,img/planet9_right.png,9,Community 2,NA,FALSE,f,j,NA,NA,NA,1,6,"4,8,3,14,7,13,9,15,1,10,12,5,11,2,6"
14652,commdev-image-keyboard-response,606,1151850,learnblock2,71.5,img/planet13_right.png,13,Community 2,NA,TRUE,j,j,NA,NA,NA,1,6,"4,8,3,14,7,13,9,15,1,10,12,5,11,2,6"
14652,commdev-image-keyboard-response,607,1153101,learnblock2,113.40000000596046,img/planet1_left.png,1,Community 2,NA,FALSE,j,f,NA,NA,NA,1,6,"4,8,3,14,7,13,9,15,1,10,12,5,11,2,6"
14652,commdev-image-keyboard-response,608,1154353,learnblock2,69.7999999821186,img/planet15_left.png,15,Community 2,NA,TRUE,f,f,NA,NA,NA,1,6,"4,8,3,14,7,13,9,15,1,10,12,5,11,2,6"
14652,commdev-image-keyboard-response,609,1155605,learnblock2,73.60000002384186,img/planet10_right.png,10,Community 2,NA,TRUE,j,j,NA,NA,NA,1,6,"4,8,3,14,7,13,9,15,1,10,12,5,11,2,6"
14652,commdev-image-keyboard-response,610,1156857,learnblock2,144.89999997615814,img/planet9_left.png,9,Community 2,NA,FALSE,j,f,NA,NA,NA,1,6,"4,8,3,14,7,13,9,15,1,10,12,5,11,2,6"
14652,commdev-image-keyboard-response,611,1158109,learnblock2,87.40000000596046,img/planet13_right.png,13,Community 2,NA,FALSE,f,j,NA,NA,NA,1,6,"4,8,3,14,7,13,9,15,1,10,12,5,11,2,6"
14652,commdev-image-keyboard-response,612,1159361,learnblock2,11.5,img/planet14_left.png,14,Community 1,NA,FALSE,j,f,NA,NA,NA,1,6,"4,8,3,14,7,13,9,15,1,10,12,5,11,2,6"
14652,commdev-image-keyboard-response,613,1160613,learnblock2,67.5,img/planet13_left.png,13,Community 2,NA,FALSE,j,f,NA,NA,NA,1,6,"4,8,3,14,7,13,9,15,1,10,12,5,11,2,6"
14652,commdev-image-keyboard-response,614,1161864,learnblock2,142.59999999403954,img/planet10_right.png,10,Community 2,NA,TRUE,j,j,NA,NA,NA,1,6,"4,8,3,14,7,13,9,15,1,10,12,5,11,2,6"
14652,commdev-image-keyboard-response,615,1163116,learnblock2,115.19999998807907,img/planet9_right.png,9,Community 2,NA,FALSE,f,j,NA,NA,NA,1,6,"4,8,3,14,7,13,9,15,1,10,12,5,11,2,6"
14652,commdev-image-keyboard-response,616,1164369,learnblock2,53.5,img/planet10_left.png,10,Community 2,NA,FALSE,j,f,NA,NA,NA,1,6,"4,8,3,14,7,13,9,15,1,10,12,5,11,2,6"
14652,commdev-image-keyboard-response,617,1165621,learnblock2,102.59999999403954,img/planet1_left.png,1,Community 2,NA,FALSE,j,f,NA,NA,NA,1,6,"4,8,3,14,7,13,9,15,1,10,12,5,11,2,6"
14652,commdev-image-keyboard-response,618,1166872,learnblock2,115.5,img/planet10_right.png,10,Community 2,NA,TRUE,j,j,NA,NA,NA,1,6,"4,8,3,14,7,13,9,15,1,10,12,5,11,2,6"
14652,commdev-image-keyboard-response,619,1168125,learnblock2,140,img/planet1_left.png,1,Community 2,NA,FALSE,j,f,NA,NA,NA,1,6,"4,8,3,14,7,13,9,15,1,10,12,5,11,2,6"
14652,commdev-image-keyboard-response,620,1169376,learnblock2,86.60000002384186,img/planet10_right.png,10,Community 2,NA,FALSE,f,j,NA,NA,NA,1,6,"4,8,3,14,7,13,9,15,1,10,12,5,11,2,6"
14652,commdev-image-keyboard-response,621,1170628,learnblock2,109.19999998807907,img/planet13_right.png,13,Community 2,NA,FALSE,f,j,NA,NA,NA,1,6,"4,8,3,14,7,13,9,15,1,10,12,5,11,2,6"
14652,commdev-image-keyboard-response,622,1171880,learnblock2,147.90000000596046,img/planet1_right.png,1,Community 2,NA,FALSE,f,j,NA,NA,NA,1,6,"4,8,3,14,7,13,9,15,1,10,12,5,11,2,6"
14652,commdev-image-keyboard-response,623,1173132,learnblock2,65.90000000596046,img/planet9_left.png,9,Community 2,NA,FALSE,j,f,NA,NA,NA,1,6,"4,8,3,14,7,13,9,15,1,10,12,5,11,2,6"
14652,commdev-image-keyboard-response,624,1174385,learnblock2,123.7999999821186,img/planet13_left.png,13,Community 2,NA,FALSE,j,f,NA,NA,NA,1,6,"4,8,3,14,7,13,9,15,1,10,12,5,11,2,6"
14652,commdev-image-keyboard-response,625,1175637,learnblock2,15.699999988079071,img/planet9_left.png,9,Community 2,NA,TRUE,f,f,NA,NA,NA,1,6,"4,8,3,14,7,13,9,15,1,10,12,5,11,2,6"
14652,commdev-image-keyboard-response,626,1176888,learnblock2,52.70000001788139,img/planet1_left.png,1,Community 2,NA,TRUE,f,f,NA,NA,NA,1,6,"4,8,3,14,7,13,9,15,1,10,12,5,11,2,6"
14652,commdev-image-keyboard-response,627,1178141,learnblock2,72.90000000596046,img/planet9_left.png,9,Community 2,NA,TRUE,f,f,NA,NA,NA,1,6,"4,8,3,14,7,13,9,15,1,10,12,5,11,2,6"
14652,commdev-image-keyboard-response,628,1179393,learnblock2,64.80000001192093,img/planet10_left.png,10,Community 2,NA,TRUE,f,f,NA,NA,NA,1,6,"4,8,3,14,7,13,9,15,1,10,12,5,11,2,6"
14652,commdev-image-keyboard-response,629,1180644,learnblock2,57.30000001192093,img/planet9_right.png,9,Community 2,NA,FALSE,f,j,NA,NA,NA,1,6,"4,8,3,14,7,13,9,15,1,10,12,5,11,2,6"
14652,commdev-image-keyboard-response,630,1181897,learnblock2,65.09999999403954,img/planet10_left.png,10,Community 2,NA,TRUE,f,f,NA,NA,NA,1,6,"4,8,3,14,7,13,9,15,1,10,12,5,11,2,6"
14652,commdev-image-keyboard-response,631,1183149,learnblock2,106.59999999403954,img/planet9_left.png,9,Community 2,NA,TRUE,f,f,NA,NA,NA,1,6,"4,8,3,14,7,13,9,15,1,10,12,5,11,2,6"
14652,commdev-image-keyboard-response,632,1184402,learnblock2,130,img/planet10_left.png,10,Community 2,NA,TRUE,f,f,NA,NA,NA,1,6,"4,8,3,14,7,13,9,15,1,10,12,5,11,2,6"
14652,commdev-image-keyboard-response,633,1185654,learnblock2,7,img/planet1_left.png,1,Community 2,NA,FALSE,j,f,NA,NA,NA,1,6,"4,8,3,14,7,13,9,15,1,10,12,5,11,2,6"
14652,commdev-image-keyboard-response,634,1186906,learnblock2,4.199999988079071,img/planet9_right.png,9,Community 2,NA,TRUE,j,j,NA,NA,NA,1,6,"4,8,3,14,7,13,9,15,1,10,12,5,11,2,6"
14652,commdev-image-keyboard-response,635,1188158,learnblock2,72.5,img/planet10_left.png,10,Community 2,NA,FALSE,j,f,NA,NA,NA,1,6,"4,8,3,14,7,13,9,15,1,10,12,5,11,2,6"
14652,commdev-image-keyboard-response,636,1189410,learnblock2,64.80000001192093,img/planet1_right.png,1,Community 2,NA,TRUE,j,j,NA,NA,NA,1,6,"4,8,3,14,7,13,9,15,1,10,12,5,11,2,6"
14652,commdev-image-keyboard-response,637,1190662,learnblock2,52.900000005960464,img/planet15_left.png,15,Community 2,NA,FALSE,j,f,NA,NA,NA,1,6,"4,8,3,14,7,13,9,15,1,10,12,5,11,2,6"
14652,commdev-image-keyboard-response,638,1191914,learnblock2,123,img/planet10_right.png,10,Community 2,NA,FALSE,f,j,NA,NA,NA,1,6,"4,8,3,14,7,13,9,15,1,10,12,5,11,2,6"
14652,commdev-image-keyboard-response,639,1193166,learnblock2,120.69999998807907,img/planet1_left.png,1,Community 2,NA,TRUE,f,f,NA,NA,NA,1,6,"4,8,3,14,7,13,9,15,1,10,12,5,11,2,6"
14652,commdev-image-keyboard-response,640,1194419,learnblock2,170.7000000178814,img/planet13_right.png,13,Community 2,NA,FALSE,f,j,NA,NA,NA,1,6,"4,8,3,14,7,13,9,15,1,10,12,5,11,2,6"
14652,commdev-image-keyboard-response,641,1195671,learnblock2,8.900000005960464,img/planet10_left.png,10,Community 2,NA,FALSE,j,f,NA,NA,NA,1,6,"4,8,3,14,7,13,9,15,1,10,12,5,11,2,6"
14652,commdev-image-keyboard-response,642,1196922,learnblock2,134.2999999821186,img/planet1_left.png,1,Community 2,NA,TRUE,f,f,NA,NA,NA,1,6,"4,8,3,14,7,13,9,15,1,10,12,5,11,2,6"
14652,commdev-image-keyboard-response,643,1198174,learnblock2,138.7000000178814,img/planet15_left.png,15,Community 2,NA,TRUE,f,f,NA,NA,NA,1,6,"4,8,3,14,7,13,9,15,1,10,12,5,11,2,6"
14652,commdev-image-keyboard-response,644,1199427,learnblock2,160.7000000178814,img/planet1_right.png,1,Community 2,NA,FALSE,f,j,NA,NA,NA,1,6,"4,8,3,14,7,13,9,15,1,10,12,5,11,2,6"
14652,commdev-image-keyboard-response,645,1200678,learnblock2,54,img/planet13_left.png,13,Community 2,NA,TRUE,f,f,NA,NA,NA,1,6,"4,8,3,14,7,13,9,15,1,10,12,5,11,2,6"
14652,commdev-image-keyboard-response,646,1201930,learnblock2,76.60000002384186,img/planet1_left.png,1,Community 2,NA,FALSE,j,f,NA,NA,NA,1,6,"4,8,3,14,7,13,9,15,1,10,12,5,11,2,6"
14652,commdev-image-keyboard-response,647,1203183,learnblock2,146.40000000596046,img/planet10_left.png,10,Community 2,NA,TRUE,f,f,NA,NA,NA,1,6,"4,8,3,14,7,13,9,15,1,10,12,5,11,2,6"
14652,commdev-image-keyboard-response,648,1204436,learnblock2,85.90000000596046,img/planet1_left.png,1,Community 2,NA,TRUE,f,f,NA,NA,NA,1,6,"4,8,3,14,7,13,9,15,1,10,12,5,11,2,6"
14652,commdev-image-keyboard-response,649,1205688,learnblock2,74.90000000596046,img/planet13_left.png,13,Community 2,NA,TRUE,f,f,NA,NA,NA,1,6,"4,8,3,14,7,13,9,15,1,10,12,5,11,2,6"
14652,commdev-image-keyboard-response,650,1206939,learnblock2,84.60000002384186,img/planet14_left.png,14,Community 1,NA,FALSE,j,f,NA,NA,NA,1,6,"4,8,3,14,7,13,9,15,1,10,12,5,11,2,6"
14652,commdev-image-keyboard-response,651,1208191,learnblock2,74.5,img/planet8_left.png,8,Community 1,NA,FALSE,j,f,NA,NA,NA,1,6,"4,8,3,14,7,13,9,15,1,10,12,5,11,2,6"
14652,commdev-image-keyboard-response,652,1209443,learnblock2,4.800000011920929,img/planet14_left.png,14,Community 1,NA,TRUE,f,f,NA,NA,NA,1,6,"4,8,3,14,7,13,9,15,1,10,12,5,11,2,6"
14652,commdev-image-keyboard-response,653,1210694,learnblock2,4.299999982118607,img/planet4_left.png,4,Community 1,NA,FALSE,j,f,NA,NA,NA,1,6,"4,8,3,14,7,13,9,15,1,10,12,5,11,2,6"
14652,commdev-image-keyboard-response,654,1211946,learnblock2,0.5,img/planet7_left.png,7,Community 1,NA,FALSE,j,f,NA,NA,NA,1,6,"4,8,3,14,7,13,9,15,1,10,12,5,11,2,6"
14652,commdev-image-keyboard-response,655,1213198,learnblock2,85.90000000596046,img/planet12_left.png,12,Community 3,NA,TRUE,f,f,NA,NA,NA,1,6,"4,8,3,14,7,13,9,15,1,10,12,5,11,2,6"
14652,commdev-image-keyboard-response,656,1214450,learnblock2,136.90000000596046,img/planet2_left.png,2,Community 3,NA,FALSE,j,f,NA,NA,NA,1,6,"4,8,3,14,7,13,9,15,1,10,12,5,11,2,6"
14652,commdev-image-keyboard-response,657,1215702,learnblock2,3.5,img/planet6_right.png,6,Community 3,NA,FALSE,f,j,NA,NA,NA,1,6,"4,8,3,14,7,13,9,15,1,10,12,5,11,2,6"
14652,commdev-image-keyboard-response,658,1216954,learnblock2,101.59999999403954,img/planet5_left.png,5,Community 3,NA,FALSE,j,f,NA,NA,NA,1,6,"4,8,3,14,7,13,9,15,1,10,12,5,11,2,6"
14652,commdev-image-keyboard-response,659,1218206,learnblock2,80,img/planet15_left.png,15,Community 2,NA,FALSE,j,f,NA,NA,NA,1,6,"4,8,3,14,7,13,9,15,1,10,12,5,11,2,6"
14652,commdev-image-keyboard-response,660,1219458,learnblock2,134.80000001192093,img/planet1_right.png,1,Community 2,NA,FALSE,f,j,NA,NA,NA,1,6,"4,8,3,14,7,13,9,15,1,10,12,5,11,2,6"
14652,commdev-image-keyboard-response,661,1220710,learnblock2,74.5,img/planet13_right.png,13,Community 2,NA,FALSE,f,j,NA,NA,NA,1,6,"4,8,3,14,7,13,9,15,1,10,12,5,11,2,6"
14652,commdev-image-keyboard-response,662,1221961,learnblock2,96.2999999821186,img/planet1_left.png,1,Community 2,NA,FALSE,j,f,NA,NA,NA,1,6,"4,8,3,14,7,13,9,15,1,10,12,5,11,2,6"
14652,commdev-image-keyboard-response,663,1223213,learnblock2,187.2999999821186,img/planet9_right.png,9,Community 2,NA,FALSE,f,j,NA,NA,NA,1,6,"4,8,3,14,7,13,9,15,1,10,12,5,11,2,6"
14652,commdev-image-keyboard-response,664,1224465,learnblock2,90.69999998807907,img/planet1_left.png,1,Community 2,NA,TRUE,f,f,NA,NA,NA,1,6,"4,8,3,14,7,13,9,15,1,10,12,5,11,2,6"
14652,commdev-image-keyboard-response,665,1225717,learnblock2,67.40000000596046,img/planet9_right.png,9,Community 2,NA,TRUE,j,j,NA,NA,NA,1,6,"4,8,3,14,7,13,9,15,1,10,12,5,11,2,6"
14652,commdev-image-keyboard-response,666,1226969,learnblock2,128,img/planet10_right.png,10,Community 2,NA,FALSE,f,j,NA,NA,NA,1,6,"4,8,3,14,7,13,9,15,1,10,12,5,11,2,6"
14652,commdev-image-keyboard-response,667,1228221,learnblock2,61.69999998807907,img/planet9_right.png,9,Community 2,NA,FALSE,f,j,NA,NA,NA,1,6,"4,8,3,14,7,13,9,15,1,10,12,5,11,2,6"
14652,commdev-image-keyboard-response,668,1229474,learnblock2,60.099999994039536,img/planet10_right.png,10,Community 2,NA,TRUE,j,j,NA,NA,NA,1,6,"4,8,3,14,7,13,9,15,1,10,12,5,11,2,6"
14652,commdev-image-keyboard-response,669,1230726,learnblock2,119.59999999403954,img/planet9_right.png,9,Community 2,NA,FALSE,f,j,NA,NA,NA,1,6,"4,8,3,14,7,13,9,15,1,10,12,5,11,2,6"
14652,commdev-image-keyboard-response,670,1231978,learnblock2,78.2000000178814,img/planet13_right.png,13,Community 2,NA,FALSE,f,j,NA,NA,NA,1,6,"4,8,3,14,7,13,9,15,1,10,12,5,11,2,6"
14652,commdev-image-keyboard-response,671,1233231,learnblock2,70.09999999403954,img/planet1_right.png,1,Community 2,NA,TRUE,j,j,NA,NA,NA,1,6,"4,8,3,14,7,13,9,15,1,10,12,5,11,2,6"
14652,commdev-image-keyboard-response,672,1234483,learnblock2,143.19999998807907,img/planet9_right.png,9,Community 2,NA,FALSE,f,j,NA,NA,NA,1,6,"4,8,3,14,7,13,9,15,1,10,12,5,11,2,6"
14652,commdev-image-keyboard-response,673,1235735,learnblock2,64.39999997615814,img/planet1_left.png,1,Community 2,NA,TRUE,f,f,NA,NA,NA,1,6,"4,8,3,14,7,13,9,15,1,10,12,5,11,2,6"
14652,commdev-image-keyboard-response,674,1236988,learnblock2,70.2999999821186,img/planet15_left.png,15,Community 2,NA,TRUE,f,f,NA,NA,NA,1,6,"4,8,3,14,7,13,9,15,1,10,12,5,11,2,6"
14652,commdev-image-keyboard-response,675,1238240,learnblock2,129,img/planet1_left.png,1,Community 2,NA,TRUE,f,f,NA,NA,NA,1,6,"4,8,3,14,7,13,9,15,1,10,12,5,11,2,6"
14652,commdev-image-keyboard-response,676,1239491,learnblock2,158.30000001192093,img/planet15_left.png,15,Community 2,NA,TRUE,f,f,NA,NA,NA,1,6,"4,8,3,14,7,13,9,15,1,10,12,5,11,2,6"
14652,commdev-image-keyboard-response,677,1240742,learnblock2,58,img/planet1_left.png,1,Community 2,NA,FALSE,j,f,NA,NA,NA,1,6,"4,8,3,14,7,13,9,15,1,10,12,5,11,2,6"
14652,commdev-image-keyboard-response,678,1241995,learnblock2,80.89999997615814,img/planet9_left.png,9,Community 2,NA,FALSE,j,f,NA,NA,NA,1,6,"4,8,3,14,7,13,9,15,1,10,12,5,11,2,6"
14652,commdev-image-keyboard-response,679,1243247,learnblock2,102.2000000178814,img/planet10_right.png,10,Community 2,NA,TRUE,j,j,NA,NA,NA,1,6,"4,8,3,14,7,13,9,15,1,10,12,5,11,2,6"
14652,commdev-image-keyboard-response,680,1244498,learnblock2,101.30000001192093,img/planet13_left.png,13,Community 2,NA,FALSE,j,f,NA,NA,NA,1,6,"4,8,3,14,7,13,9,15,1,10,12,5,11,2,6"
14652,commdev-image-keyboard-response,681,1245750,learnblock2,52,img/planet10_left.png,10,Community 2,NA,FALSE,j,f,NA,NA,NA,1,6,"4,8,3,14,7,13,9,15,1,10,12,5,11,2,6"
14652,commdev-image-keyboard-response,682,1247002,learnblock2,91.69999998807907,img/planet13_right.png,13,Community 2,NA,TRUE,j,j,NA,NA,NA,1,6,"4,8,3,14,7,13,9,15,1,10,12,5,11,2,6"
14652,commdev-image-keyboard-response,683,1248254,learnblock2,98.2000000178814,img/planet9_left.png,9,Community 2,NA,FALSE,j,f,NA,NA,NA,1,6,"4,8,3,14,7,13,9,15,1,10,12,5,11,2,6"
14652,commdev-image-keyboard-response,684,1249507,learnblock2,151.2999999821186,img/planet1_right.png,1,Community 2,NA,TRUE,j,j,NA,NA,NA,1,6,"4,8,3,14,7,13,9,15,1,10,12,5,11,2,6"
14652,commdev-image-keyboard-response,685,1250760,learnblock2,88.80000001192093,img/planet13_left.png,13,Community 2,NA,FALSE,j,f,NA,NA,NA,1,6,"4,8,3,14,7,13,9,15,1,10,12,5,11,2,6"
14652,commdev-image-keyboard-response,686,1252012,learnblock2,175,img/planet1_left.png,1,Community 2,NA,TRUE,f,f,NA,NA,NA,1,6,"4,8,3,14,7,13,9,15,1,10,12,5,11,2,6"
14652,commdev-image-keyboard-response,687,1253265,learnblock2,172.69999998807907,img/planet10_right.png,10,Community 2,NA,TRUE,j,j,NA,NA,NA,1,6,"4,8,3,14,7,13,9,15,1,10,12,5,11,2,6"
14652,commdev-image-keyboard-response,688,1254517,learnblock2,240.5,img/planet1_right.png,1,Community 2,NA,TRUE,j,j,NA,NA,NA,1,6,"4,8,3,14,7,13,9,15,1,10,12,5,11,2,6"
14652,commdev-image-keyboard-response,689,1255769,learnblock2,65.59999999403954,img/planet10_left.png,10,Community 2,NA,TRUE,f,f,NA,NA,NA,1,6,"4,8,3,14,7,13,9,15,1,10,12,5,11,2,6"
14652,commdev-image-keyboard-response,690,1257021,learnblock2,166.2000000178814,img/planet15_left.png,15,Community 2,NA,TRUE,f,f,NA,NA,NA,1,6,"4,8,3,14,7,13,9,15,1,10,12,5,11,2,6"
14652,commdev-image-keyboard-response,691,1258273,learnblock2,261,img/planet5_right.png,5,Community 3,NA,TRUE,j,j,NA,NA,NA,1,6,"4,8,3,14,7,13,9,15,1,10,12,5,11,2,6"
14652,commdev-image-keyboard-response,692,1259526,learnblock2,176.2999999821186,img/planet15_right.png,15,Community 2,NA,TRUE,j,j,NA,NA,NA,1,6,"4,8,3,14,7,13,9,15,1,10,12,5,11,2,6"
14652,commdev-image-keyboard-response,693,1260778,learnblock2,74.30000001192093,img/planet9_left.png,9,Community 2,NA,FALSE,j,f,NA,NA,NA,1,6,"4,8,3,14,7,13,9,15,1,10,12,5,11,2,6"
14652,commdev-image-keyboard-response,694,1262030,learnblock2,171.30000001192093,img/planet10_left.png,10,Community 2,NA,FALSE,j,f,NA,NA,NA,1,6,"4,8,3,14,7,13,9,15,1,10,12,5,11,2,6"
14652,commdev-image-keyboard-response,695,1263283,learnblock2,71.5,img/planet13_right.png,13,Community 2,NA,FALSE,f,j,NA,NA,NA,1,6,"4,8,3,14,7,13,9,15,1,10,12,5,11,2,6"
14652,commdev-image-keyboard-response,696,1264534,learnblock2,117.09999999403954,img/planet9_left.png,9,Community 2,NA,FALSE,j,f,NA,NA,NA,1,6,"4,8,3,14,7,13,9,15,1,10,12,5,11,2,6"
14652,commdev-image-keyboard-response,697,1265787,learnblock2,68.39999997615814,img/planet10_left.png,10,Community 2,NA,FALSE,j,f,NA,NA,NA,1,6,"4,8,3,14,7,13,9,15,1,10,12,5,11,2,6"
14652,commdev-image-keyboard-response,698,1267040,learnblock2,74.40000000596046,img/planet13_left.png,13,Community 2,NA,TRUE,f,f,NA,NA,NA,1,6,"4,8,3,14,7,13,9,15,1,10,12,5,11,2,6"
14652,commdev-image-keyboard-response,699,1268292,learnblock2,11.399999976158142,img/planet14_left.png,14,Community 1,NA,TRUE,f,f,NA,NA,NA,1,6,"4,8,3,14,7,13,9,15,1,10,12,5,11,2,6"
14652,commdev-image-keyboard-response,700,1269544,learnblock2,139.90000000596046,img/planet8_left.png,8,Community 1,NA,FALSE,j,f,NA,NA,NA,1,6,"4,8,3,14,7,13,9,15,1,10,12,5,11,2,6"
14652,commdev-image-keyboard-response,701,1270795,learnblock2,77.90000000596046,img/planet14_left.png,14,Community 1,NA,TRUE,f,f,NA,NA,NA,1,6,"4,8,3,14,7,13,9,15,1,10,12,5,11,2,6"
14652,commdev-image-keyboard-response,702,1272048,learnblock2,85.90000000596046,img/planet8_right.png,8,Community 1,NA,FALSE,f,j,NA,NA,NA,1,6,"4,8,3,14,7,13,9,15,1,10,12,5,11,2,6"
14652,commdev-image-keyboard-response,703,1273300,learnblock2,93.40000000596046,img/planet14_right.png,14,Community 1,NA,FALSE,f,j,NA,NA,NA,1,6,"4,8,3,14,7,13,9,15,1,10,12,5,11,2,6"
14652,commdev-image-keyboard-response,704,1274553,learnblock2,83,img/planet3_left.png,3,Community 1,NA,TRUE,f,f,NA,NA,NA,1,6,"4,8,3,14,7,13,9,15,1,10,12,5,11,2,6"
14652,commdev-image-keyboard-response,705,1275805,learnblock2,72.2000000178814,img/planet14_left.png,14,Community 1,NA,TRUE,f,f,NA,NA,NA,1,6,"4,8,3,14,7,13,9,15,1,10,12,5,11,2,6"
14652,commdev-image-keyboard-response,706,1277058,learnblock2,77.59999999403954,img/planet13_right.png,13,Community 2,NA,FALSE,f,j,NA,NA,NA,1,6,"4,8,3,14,7,13,9,15,1,10,12,5,11,2,6"
14652,commdev-image-keyboard-response,707,1278310,learnblock2,64.60000002384186,img/planet1_left.png,1,Community 2,NA,TRUE,f,f,NA,NA,NA,1,6,"4,8,3,14,7,13,9,15,1,10,12,5,11,2,6"
14652,commdev-image-keyboard-response,708,1279562,learnblock2,74.40000000596046,img/planet13_left.png,13,Community 2,NA,TRUE,f,f,NA,NA,NA,1,6,"4,8,3,14,7,13,9,15,1,10,12,5,11,2,6"
14652,commdev-image-keyboard-response,709,1280813,learnblock2,80.59999999403954,img/planet9_right.png,9,Community 2,NA,FALSE,f,j,NA,NA,NA,1,6,"4,8,3,14,7,13,9,15,1,10,12,5,11,2,6"
14652,commdev-image-keyboard-response,710,1282065,learnblock2,56.599999994039536,img/planet13_right.png,13,Community 2,NA,TRUE,j,j,NA,NA,NA,1,6,"4,8,3,14,7,13,9,15,1,10,12,5,11,2,6"
14652,commdev-image-keyboard-response,711,1283318,learnblock2,77.10000002384186,img/planet14_left.png,14,Community 1,NA,FALSE,j,f,NA,NA,NA,1,6,"4,8,3,14,7,13,9,15,1,10,12,5,11,2,6"
14652,commdev-image-keyboard-response,712,1284570,learnblock2,66.7999999821186,img/planet8_left.png,8,Community 1,NA,FALSE,j,f,NA,NA,NA,1,6,"4,8,3,14,7,13,9,15,1,10,12,5,11,2,6"
14652,commdev-image-keyboard-response,713,1285821,learnblock2,132.59999999403954,img/planet14_right.png,14,Community 1,NA,TRUE,j,j,NA,NA,NA,1,6,"4,8,3,14,7,13,9,15,1,10,12,5,11,2,6"
14652,commdev-image-keyboard-response,714,1287073,learnblock2,168.09999999403954,img/planet8_right.png,8,Community 1,NA,TRUE,j,j,NA,NA,NA,1,6,"4,8,3,14,7,13,9,15,1,10,12,5,11,2,6"
14652,commdev-image-keyboard-response,715,1288326,learnblock2,87,img/planet3_right.png,3,Community 1,NA,TRUE,j,j,NA,NA,NA,1,6,"4,8,3,14,7,13,9,15,1,10,12,5,11,2,6"
14652,commdev-image-keyboard-response,716,1289579,learnblock2,4.800000011920929,img/planet4_left.png,4,Community 1,NA,FALSE,j,f,NA,NA,NA,1,6,"4,8,3,14,7,13,9,15,1,10,12,5,11,2,6"
14652,commdev-image-keyboard-response,717,1290831,learnblock2,257.5,img/planet8_left.png,8,Community 1,NA,FALSE,j,f,NA,NA,NA,1,6,"4,8,3,14,7,13,9,15,1,10,12,5,11,2,6"
14652,commdev-image-keyboard-response,718,1292084,learnblock2,85.2999999821186,img/planet4_right.png,4,Community 1,NA,FALSE,f,j,NA,NA,NA,1,6,"4,8,3,14,7,13,9,15,1,10,12,5,11,2,6"
14652,commdev-image-keyboard-response,719,1293336,learnblock2,75.39999997615814,img/planet7_left.png,7,Community 1,NA,TRUE,f,f,NA,NA,NA,1,6,"4,8,3,14,7,13,9,15,1,10,12,5,11,2,6"
14652,commdev-image-keyboard-response,720,1294587,learnblock2,82.59999999403954,img/planet12_left.png,12,Community 3,NA,FALSE,j,f,NA,NA,NA,1,6,"4,8,3,14,7,13,9,15,1,10,12,5,11,2,6"
14652,commdev-image-keyboard-response,721,1295840,learnblock2,57.19999998807907,img/planet6_right.png,6,Community 3,NA,FALSE,f,j,NA,NA,NA,1,6,"4,8,3,14,7,13,9,15,1,10,12,5,11,2,6"
14652,commdev-image-keyboard-response,722,1297092,learnblock2,175.60000002384186,img/planet11_right.png,11,Community 3,NA,FALSE,f,j,NA,NA,NA,1,6,"4,8,3,14,7,13,9,15,1,10,12,5,11,2,6"
14652,commdev-image-keyboard-response,723,1298343,learnblock2,85.40000000596046,img/planet2_left.png,2,Community 3,NA,TRUE,f,f,NA,NA,NA,1,6,"4,8,3,14,7,13,9,15,1,10,12,5,11,2,6"
14652,commdev-image-keyboard-response,724,1299595,learnblock2,84.7000000178814,img/planet5_right.png,5,Community 3,NA,TRUE,j,j,NA,NA,NA,1,6,"4,8,3,14,7,13,9,15,1,10,12,5,11,2,6"
14652,commdev-image-keyboard-response,725,1300847,learnblock2,83.59999999403954,img/planet6_left.png,6,Community 3,NA,FALSE,j,f,NA,NA,NA,1,6,"4,8,3,14,7,13,9,15,1,10,12,5,11,2,6"
14652,commdev-image-keyboard-response,726,1302099,learnblock2,124.40000000596046,img/planet12_right.png,12,Community 3,NA,FALSE,f,j,NA,NA,NA,1,6,"4,8,3,14,7,13,9,15,1,10,12,5,11,2,6"
14652,commdev-image-keyboard-response,727,1303352,learnblock2,18.299999982118607,img/planet6_right.png,6,Community 3,NA,FALSE,f,j,NA,NA,NA,1,6,"4,8,3,14,7,13,9,15,1,10,12,5,11,2,6"
14652,commdev-image-keyboard-response,728,1304604,learnblock2,50.69999998807907,img/planet12_right.png,12,Community 3,NA,TRUE,j,j,NA,NA,NA,1,6,"4,8,3,14,7,13,9,15,1,10,12,5,11,2,6"
14652,commdev-image-keyboard-response,729,1305855,learnblock2,91.09999999403954,img/planet2_left.png,2,Community 3,NA,FALSE,j,f,NA,NA,NA,1,6,"4,8,3,14,7,13,9,15,1,10,12,5,11,2,6"
14652,commdev-image-keyboard-response,730,1307108,learnblock2,88.40000000596046,img/planet12_right.png,12,Community 3,NA,FALSE,f,j,NA,NA,NA,1,6,"4,8,3,14,7,13,9,15,1,10,12,5,11,2,6"
14652,commdev-image-keyboard-response,731,1308361,learnblock2,115.80000001192093,img/planet7_right.png,7,Community 1,NA,TRUE,j,j,NA,NA,NA,1,6,"4,8,3,14,7,13,9,15,1,10,12,5,11,2,6"
14652,commdev-image-keyboard-response,732,1309612,learnblock2,157,img/planet8_right.png,8,Community 1,NA,FALSE,f,j,NA,NA,NA,1,6,"4,8,3,14,7,13,9,15,1,10,12,5,11,2,6"
14652,commdev-image-keyboard-response,733,1310866,learnblock2,92.40000000596046,img/planet14_left.png,14,Community 1,NA,FALSE,j,f,NA,NA,NA,1,6,"4,8,3,14,7,13,9,15,1,10,12,5,11,2,6"
14652,commdev-image-keyboard-response,734,1312118,learnblock2,84.80000001192093,img/planet3_left.png,3,Community 1,NA,TRUE,f,f,NA,NA,NA,1,6,"4,8,3,14,7,13,9,15,1,10,12,5,11,2,6"
14652,commdev-image-keyboard-response,735,1313371,learnblock2,27.80000001192093,img/planet8_left.png,8,Community 1,NA,FALSE,j,f,NA,NA,NA,1,6,"4,8,3,14,7,13,9,15,1,10,12,5,11,2,6"
14652,commdev-image-keyboard-response,736,1314622,learnblock2,103.2999999821186,img/planet3_right.png,3,Community 1,NA,TRUE,j,j,NA,NA,NA,1,6,"4,8,3,14,7,13,9,15,1,10,12,5,11,2,6"
14652,commdev-image-keyboard-response,737,1315875,learnblock2,71.7000000178814,img/planet8_right.png,8,Community 1,NA,TRUE,j,j,NA,NA,NA,1,6,"4,8,3,14,7,13,9,15,1,10,12,5,11,2,6"
14652,commdev-image-keyboard-response,738,1317126,learnblock2,60,img/planet4_right.png,4,Community 1,NA,TRUE,j,j,NA,NA,NA,1,6,"4,8,3,14,7,13,9,15,1,10,12,5,11,2,6"
14652,commdev-image-keyboard-response,739,1318378,learnblock2,152.59999999403954,img/planet14_left.png,14,Community 1,NA,TRUE,f,f,NA,NA,NA,1,6,"4,8,3,14,7,13,9,15,1,10,12,5,11,2,6"
14652,commdev-image-keyboard-response,740,1319630,learnblock2,104.69999998807907,img/planet3_left.png,3,Community 1,NA,FALSE,j,f,NA,NA,NA,1,6,"4,8,3,14,7,13,9,15,1,10,12,5,11,2,6"
14652,commdev-image-keyboard-response,741,1320881,learnblock2,130.40000000596046,img/planet4_left.png,4,Community 1,NA,TRUE,f,f,NA,NA,NA,1,6,"4,8,3,14,7,13,9,15,1,10,12,5,11,2,6"
14652,commdev-image-keyboard-response,742,1322133,learnblock2,71.80000001192093,img/planet3_right.png,3,Community 1,NA,FALSE,f,j,NA,NA,NA,1,6,"4,8,3,14,7,13,9,15,1,10,12,5,11,2,6"
14652,commdev-image-keyboard-response,743,1323385,learnblock2,62.89999997615814,img/planet4_left.png,4,Community 1,NA,FALSE,j,f,NA,NA,NA,1,6,"4,8,3,14,7,13,9,15,1,10,12,5,11,2,6"
14652,commdev-image-keyboard-response,744,1324637,learnblock2,51.900000005960464,img/planet7_right.png,7,Community 1,NA,FALSE,f,j,NA,NA,NA,1,6,"4,8,3,14,7,13,9,15,1,10,12,5,11,2,6"
14652,commdev-image-keyboard-response,745,1325889,learnblock2,4.799999982118607,img/planet8_left.png,8,Community 1,NA,TRUE,f,f,NA,NA,NA,1,6,"4,8,3,14,7,13,9,15,1,10,12,5,11,2,6"
14652,commdev-image-keyboard-response,746,1327141,learnblock2,66.5,img/planet4_right.png,4,Community 1,NA,TRUE,j,j,NA,NA,NA,1,6,"4,8,3,14,7,13,9,15,1,10,12,5,11,2,6"
14652,commdev-image-keyboard-response,747,1328393,learnblock2,71.90000000596046,img/planet7_right.png,7,Community 1,NA,TRUE,j,j,NA,NA,NA,1,6,"4,8,3,14,7,13,9,15,1,10,12,5,11,2,6"
