subject_id,trial_type,trial_index,time_elapsed,block,rt,stimulus,planet,community,response,correct,key_press,learning_correct_response,parse,init_locations,final_locations,browser_interactions,num_comp,planet_map
14612,commdev-instructions,7,77795,NA,30067.400000000373,"<p>In this game, you are a scientist on board a space shuttle. </p><p> On each mission, you will visit planets all across the universe.</p><img src=""img/controlroom.jpg"" width=300vw>",NA,NA,NA,NA,NA,NA,NA,NA,NA,11,8,"10,7,12,5,3,2,15,6,9,11,1,14,8,13,4"
14612,commdev-instructions,8,81473,NA,1615.4000000003725,"<p>Here are a few planets you might see:</p><img src=""img/practice1.png"" width=200vw><img src=""img/practice2.png"" width=200vw><img src=""img/practice3.png"" width=200vw>",NA,NA,NA,NA,NA,NA,NA,NA,NA,11,8,"10,7,12,5,3,2,15,6,9,11,1,14,8,13,4"
14612,commdev-instructions,9,92693,NA,3824.2000000011176,"<p>Your job as a scientist is to record which direction the winds are moving on each planet.</p><p>There are two types of wind directions:</p><img src=""img/practice1_left.png"" width=200vw><img src=""img/practice1_right.png"" width=200vw>",NA,NA,NA,NA,NA,NA,NA,NA,NA,11,8,"10,7,12,5,3,2,15,6,9,11,1,14,8,13,4"
14612,commdev-instructions,10,108318,NA,10747.799999998882,"<p>If the winds are moving this way, press the letter <strong>F</strong> on the keyboard as fast as you can.</p><img src=""img/leftwind.png"" width=250vw>",NA,NA,NA,NA,NA,NA,NA,NA,NA,11,8,"10,7,12,5,3,2,15,6,9,11,1,14,8,13,4"
14612,commdev-instructions,11,116613,NA,3785.5,"<p>If the winds are moving this way, press the letter <strong>J</strong> on the keyboard as fast as you can.</p><img src=""img/rightwind.png"" width=350vw>",NA,NA,NA,NA,NA,NA,NA,NA,NA,11,8,"10,7,12,5,3,2,15,6,9,11,1,14,8,13,4"
14612,commdev-instructions,12,123153,NA,2116.300000000745,<p>You will have 1 second to respond. Try to respond before the time runs out!,NA,NA,NA,NA,NA,NA,NA,NA,NA,11,8,"10,7,12,5,3,2,15,6,9,11,1,14,8,13,4"
14612,commdev-instructions,13,135328,NA,6741.299999998882,<p>The planets you will visit will look different from each other.</p><p>You should respond <strong>only</strong> based on wind direction.,NA,NA,NA,NA,NA,NA,NA,NA,NA,11,8,"10,7,12,5,3,2,15,6,9,11,1,14,8,13,4"
14612,commdev-instructions,14,145067,NA,4569.700000001118,"<p> Ready to start the practice round? </p><p> Remember, press <strong>F</strong> or <strong>J</strong> depending on the wind direction.<br><img src=""img/categorize_planet_example.png""",NA,NA,NA,NA,NA,NA,NA,NA,NA,11,8,"10,7,12,5,3,2,15,6,9,11,1,14,8,13,4"
14612,commdev-instructions,26,218325,NA,7100,"<p>Great, now try a short practice mission. </p><p> This time, you will have 1 second to respond and you won't know whether you pressed the right or wrong key for each planet.</p>",NA,NA,NA,NA,NA,NA,NA,NA,NA,11,8,"10,7,12,5,3,2,15,6,9,11,1,14,8,13,4"
14612,commdev-image-keyboard-response,27,219684,practice,null,img/practice3_left.png,NA,Number not found in mappings,NA,FALSE,null,f,NA,NA,NA,11,8,"10,7,12,5,3,2,15,6,9,11,1,14,8,13,4"
14612,commdev-image-keyboard-response,28,220937,practice,467.30000000074506,img/practice2_left.png,NA,Number not found in mappings,NA,FALSE,j,f,NA,NA,NA,11,8,"10,7,12,5,3,2,15,6,9,11,1,14,8,13,4"
14612,commdev-image-keyboard-response,29,222189,practice,472.2000000011176,img/practice4_left.png,NA,Number not found in mappings,NA,FALSE,j,f,NA,NA,NA,11,8,"10,7,12,5,3,2,15,6,9,11,1,14,8,13,4"
14612,commdev-image-keyboard-response,30,223444,practice,73.70000000111759,img/practice3_left.png,NA,Number not found in mappings,NA,TRUE,f,f,NA,NA,NA,11,8,"10,7,12,5,3,2,15,6,9,11,1,14,8,13,4"
14612,commdev-image-keyboard-response,31,224704,practice,122.09999999962747,img/practice1_left.png,NA,Number not found in mappings,NA,TRUE,f,f,NA,NA,NA,11,8,"10,7,12,5,3,2,15,6,9,11,1,14,8,13,4"
14612,commdev-image-keyboard-response,32,225957,practice,78.89999999850988,img/practice4_left.png,NA,Number not found in mappings,NA,TRUE,f,f,NA,NA,NA,11,8,"10,7,12,5,3,2,15,6,9,11,1,14,8,13,4"
14612,commdev-image-keyboard-response,33,227214,practice,34.30000000074506,img/practice1_right.png,NA,Number not found in mappings,NA,FALSE,f,j,NA,NA,NA,11,8,"10,7,12,5,3,2,15,6,9,11,1,14,8,13,4"
14612,commdev-image-keyboard-response,34,228474,practice,17.199999999254942,img/practice3_right.png,NA,Number not found in mappings,NA,FALSE,f,j,NA,NA,NA,11,8,"10,7,12,5,3,2,15,6,9,11,1,14,8,13,4"
14612,commdev-instructions,35,256029,NA,17994.799999998882,"<p>Great job with the practice round.</p><p>During real missions, you won't know whether you pressed the right or wrong key for each planet.</p><p>But between missions, we will tell you how you did overall.</p>",NA,NA,NA,NA,NA,NA,NA,NA,NA,11,8,"10,7,12,5,3,2,15,6,9,11,1,14,8,13,4"
14612,commdev-instructions,36,267383,NA,3118.699999999255,<p>Try your best! You will be paid a bonus based on how many correct responses you make!</p><p>Responses that are too slow will not count toward your bonus.</p>,NA,NA,NA,NA,NA,NA,NA,NA,NA,11,8,"10,7,12,5,3,2,15,6,9,11,1,14,8,13,4"
14612,commdev-instructions,37,278670,NA,5085.800000000745,"<p>You are almost ready to start the real game.</p><p> First, we are going to ask you some questions about how the game works.</p>",NA,NA,NA,NA,NA,NA,NA,NA,NA,11,8,"10,7,12,5,3,2,15,6,9,11,1,14,8,13,4"
14612,commdev-instructions,46,411130,NA,19666.099999999627,"<p> Nice work! It is now time to start the real game.<p></p>You will go on two missions to record wind directions of different planets.<p></p>Each one will take about 5 minutes. You will get to take a break between missions.<p><p> Remember, press <strong>F</strong> or <strong>J</strong> depending on the wind direction. Good luck!<br><img src=""img/categorize_planet_example.png""",NA,NA,NA,NA,NA,NA,NA,NA,NA,11,8,"10,7,12,5,3,2,15,6,9,11,1,14,8,13,4"
14612,commdev-image-keyboard-response,48,425066,learnblock1,null,img/planet10_right.png,10,Community 1,NA,FALSE,null,j,NA,NA,NA,11,8,"10,7,12,5,3,2,15,6,9,11,1,14,8,13,4"
14612,commdev-image-keyboard-response,49,426317,learnblock1,395.40000000037253,img/planet7_left.png,7,Community 1,NA,FALSE,j,f,NA,NA,NA,11,8,"10,7,12,5,3,2,15,6,9,11,1,14,8,13,4"
14612,commdev-image-keyboard-response,50,427569,learnblock1,54.70000000111759,img/planet5_left.png,5,Community 1,NA,FALSE,j,f,NA,NA,NA,11,8,"10,7,12,5,3,2,15,6,9,11,1,14,8,13,4"
14612,commdev-image-keyboard-response,51,428821,learnblock1,192.69999999925494,img/planet12_right.png,12,Community 1,NA,FALSE,f,j,NA,NA,NA,11,8,"10,7,12,5,3,2,15,6,9,11,1,14,8,13,4"
14612,commdev-image-keyboard-response,52,430072,learnblock1,84.20000000111759,img/planet5_right.png,5,Community 1,NA,FALSE,f,j,NA,NA,NA,11,8,"10,7,12,5,3,2,15,6,9,11,1,14,8,13,4"
14612,commdev-image-keyboard-response,53,431323,learnblock1,297.59999999962747,img/planet7_right.png,7,Community 1,NA,FALSE,f,j,NA,NA,NA,11,8,"10,7,12,5,3,2,15,6,9,11,1,14,8,13,4"
14612,commdev-image-keyboard-response,54,432575,learnblock1,179.59999999962747,img/planet12_right.png,12,Community 1,NA,TRUE,j,j,NA,NA,NA,11,8,"10,7,12,5,3,2,15,6,9,11,1,14,8,13,4"
14612,commdev-image-keyboard-response,55,433826,learnblock1,97.09999999962747,img/planet5_right.png,5,Community 1,NA,TRUE,j,j,NA,NA,NA,11,8,"10,7,12,5,3,2,15,6,9,11,1,14,8,13,4"
14612,commdev-image-keyboard-response,56,435078,learnblock1,110.19999999925494,img/planet7_right.png,7,Community 1,NA,TRUE,j,j,NA,NA,NA,11,8,"10,7,12,5,3,2,15,6,9,11,1,14,8,13,4"
14612,commdev-image-keyboard-response,57,436329,learnblock1,157.80000000074506,img/planet12_right.png,12,Community 1,NA,TRUE,j,j,NA,NA,NA,11,8,"10,7,12,5,3,2,15,6,9,11,1,14,8,13,4"
14612,commdev-image-keyboard-response,58,437580,learnblock1,134.69999999925494,img/planet7_left.png,7,Community 1,NA,FALSE,j,f,NA,NA,NA,11,8,"10,7,12,5,3,2,15,6,9,11,1,14,8,13,4"
14612,commdev-image-keyboard-response,59,438832,learnblock1,59.69999999925494,img/planet12_right.png,12,Community 1,NA,FALSE,f,j,NA,NA,NA,11,8,"10,7,12,5,3,2,15,6,9,11,1,14,8,13,4"
14612,commdev-image-keyboard-response,60,440084,learnblock1,158.30000000074506,img/planet7_right.png,7,Community 1,NA,TRUE,j,j,NA,NA,NA,11,8,"10,7,12,5,3,2,15,6,9,11,1,14,8,13,4"
14612,commdev-image-keyboard-response,61,441335,learnblock1,116.09999999962747,img/planet3_right.png,3,Community 1,NA,TRUE,j,j,NA,NA,NA,11,8,"10,7,12,5,3,2,15,6,9,11,1,14,8,13,4"
14612,commdev-image-keyboard-response,62,442588,learnblock1,122.09999999962747,img/planet10_right.png,10,Community 1,NA,TRUE,j,j,NA,NA,NA,11,8,"10,7,12,5,3,2,15,6,9,11,1,14,8,13,4"
14612,commdev-image-keyboard-response,63,443840,learnblock1,205.59999999962747,img/planet5_left.png,5,Community 1,NA,TRUE,f,f,NA,NA,NA,11,8,"10,7,12,5,3,2,15,6,9,11,1,14,8,13,4"
14612,commdev-image-keyboard-response,64,445091,learnblock1,18.59999999962747,img/planet10_right.png,10,Community 1,NA,TRUE,j,j,NA,NA,NA,11,8,"10,7,12,5,3,2,15,6,9,11,1,14,8,13,4"
14612,commdev-image-keyboard-response,65,446342,learnblock1,163.7999999988824,img/planet7_left.png,7,Community 1,NA,FALSE,j,f,NA,NA,NA,11,8,"10,7,12,5,3,2,15,6,9,11,1,14,8,13,4"
14612,commdev-image-keyboard-response,66,447594,learnblock1,40.5,img/planet12_right.png,12,Community 1,NA,FALSE,f,j,NA,NA,NA,11,8,"10,7,12,5,3,2,15,6,9,11,1,14,8,13,4"
14612,commdev-image-keyboard-response,67,448845,learnblock1,424,img/planet7_left.png,7,Community 1,NA,FALSE,j,f,NA,NA,NA,11,8,"10,7,12,5,3,2,15,6,9,11,1,14,8,13,4"
14612,commdev-image-keyboard-response,68,450097,learnblock1,198,img/planet3_right.png,3,Community 1,NA,FALSE,f,j,NA,NA,NA,11,8,"10,7,12,5,3,2,15,6,9,11,1,14,8,13,4"
14612,commdev-image-keyboard-response,69,451349,learnblock1,235.40000000037253,img/planet10_left.png,10,Community 1,NA,FALSE,j,f,NA,NA,NA,11,8,"10,7,12,5,3,2,15,6,9,11,1,14,8,13,4"
14612,commdev-image-keyboard-response,70,452601,learnblock1,602.6999999992549,img/planet5_left.png,5,Community 1,NA,TRUE,f,f,NA,NA,NA,11,8,"10,7,12,5,3,2,15,6,9,11,1,14,8,13,4"
14612,commdev-image-keyboard-response,71,453852,learnblock1,29.5,img/planet10_right.png,10,Community 1,NA,TRUE,j,j,NA,NA,NA,11,8,"10,7,12,5,3,2,15,6,9,11,1,14,8,13,4"
14612,commdev-image-keyboard-response,72,455104,learnblock1,null,img/planet5_right.png,5,Community 1,NA,FALSE,null,j,NA,NA,NA,11,8,"10,7,12,5,3,2,15,6,9,11,1,14,8,13,4"
14612,commdev-image-keyboard-response,73,456356,learnblock1,103.40000000037253,img/planet2_left.png,2,Community 2,NA,FALSE,j,f,NA,NA,NA,11,8,"10,7,12,5,3,2,15,6,9,11,1,14,8,13,4"
14612,commdev-image-keyboard-response,74,457607,learnblock1,143.80000000074506,img/planet11_right.png,11,Community 2,NA,TRUE,j,j,NA,NA,NA,11,8,"10,7,12,5,3,2,15,6,9,11,1,14,8,13,4"
14612,commdev-image-keyboard-response,75,458858,learnblock1,118.5,img/planet6_left.png,6,Community 2,NA,TRUE,f,f,NA,NA,NA,11,8,"10,7,12,5,3,2,15,6,9,11,1,14,8,13,4"
14612,commdev-image-keyboard-response,76,460110,learnblock1,59.90000000037253,img/planet15_right.png,15,Community 2,NA,FALSE,f,j,NA,NA,NA,11,8,"10,7,12,5,3,2,15,6,9,11,1,14,8,13,4"
14612,commdev-image-keyboard-response,77,461362,learnblock1,4,img/planet6_right.png,6,Community 2,NA,TRUE,j,j,NA,NA,NA,11,8,"10,7,12,5,3,2,15,6,9,11,1,14,8,13,4"
14612,commdev-image-keyboard-response,78,462613,learnblock1,60.5,img/planet15_right.png,15,Community 2,NA,FALSE,f,j,NA,NA,NA,11,8,"10,7,12,5,3,2,15,6,9,11,1,14,8,13,4"
14612,commdev-image-keyboard-response,79,463865,learnblock1,30.299999998882413,img/planet6_left.png,6,Community 2,NA,TRUE,f,f,NA,NA,NA,11,8,"10,7,12,5,3,2,15,6,9,11,1,14,8,13,4"
14612,commdev-image-keyboard-response,80,465116,learnblock1,25.800000000745058,img/planet15_right.png,15,Community 2,NA,FALSE,f,j,NA,NA,NA,11,8,"10,7,12,5,3,2,15,6,9,11,1,14,8,13,4"
14612,commdev-image-keyboard-response,81,466367,learnblock1,15.5,img/planet11_right.png,11,Community 2,NA,TRUE,j,j,NA,NA,NA,11,8,"10,7,12,5,3,2,15,6,9,11,1,14,8,13,4"
14612,commdev-image-keyboard-response,82,467619,learnblock1,191.40000000037253,img/planet2_right.png,2,Community 2,NA,FALSE,f,j,NA,NA,NA,11,8,"10,7,12,5,3,2,15,6,9,11,1,14,8,13,4"
14612,commdev-image-keyboard-response,83,468870,learnblock1,138.09999999962747,img/planet9_right.png,9,Community 2,NA,TRUE,j,j,NA,NA,NA,11,8,"10,7,12,5,3,2,15,6,9,11,1,14,8,13,4"
14612,commdev-image-keyboard-response,84,470122,learnblock1,81.29999999888241,img/planet2_right.png,2,Community 2,NA,TRUE,j,j,NA,NA,NA,11,8,"10,7,12,5,3,2,15,6,9,11,1,14,8,13,4"
14612,commdev-image-keyboard-response,85,471374,learnblock1,162.40000000037253,img/planet5_left.png,5,Community 1,NA,FALSE,j,f,NA,NA,NA,11,8,"10,7,12,5,3,2,15,6,9,11,1,14,8,13,4"
14612,commdev-image-keyboard-response,86,472625,learnblock1,7.900000000372529,img/planet7_left.png,7,Community 1,NA,FALSE,j,f,NA,NA,NA,11,8,"10,7,12,5,3,2,15,6,9,11,1,14,8,13,4"
14612,commdev-image-keyboard-response,87,473876,learnblock1,53.40000000037253,img/planet12_left.png,12,Community 1,NA,FALSE,j,f,NA,NA,NA,11,8,"10,7,12,5,3,2,15,6,9,11,1,14,8,13,4"
14612,commdev-image-keyboard-response,88,475127,learnblock1,10.699999999254942,img/planet10_right.png,10,Community 1,NA,TRUE,j,j,NA,NA,NA,11,8,"10,7,12,5,3,2,15,6,9,11,1,14,8,13,4"
14612,commdev-image-keyboard-response,89,476379,learnblock1,191.69999999925494,img/planet3_right.png,3,Community 1,NA,TRUE,j,j,NA,NA,NA,11,8,"10,7,12,5,3,2,15,6,9,11,1,14,8,13,4"
14612,commdev-image-keyboard-response,90,477630,learnblock1,574.5,img/planet1_right.png,1,Community 3,NA,TRUE,j,j,NA,NA,NA,11,8,"10,7,12,5,3,2,15,6,9,11,1,14,8,13,4"
14612,commdev-image-keyboard-response,91,478882,learnblock1,521.2000000011176,img/planet8_right.png,8,Community 3,NA,FALSE,f,j,NA,NA,NA,11,8,"10,7,12,5,3,2,15,6,9,11,1,14,8,13,4"
14612,commdev-image-keyboard-response,92,480133,learnblock1,290.80000000074506,img/planet13_left.png,13,Community 3,NA,FALSE,j,f,NA,NA,NA,11,8,"10,7,12,5,3,2,15,6,9,11,1,14,8,13,4"
14612,commdev-image-keyboard-response,93,481384,learnblock1,null,img/planet1_right.png,1,Community 3,NA,FALSE,null,j,NA,NA,NA,11,8,"10,7,12,5,3,2,15,6,9,11,1,14,8,13,4"
14612,commdev-image-keyboard-response,94,482636,learnblock1,680.7999999988824,img/planet4_right.png,4,Community 3,NA,TRUE,j,j,NA,NA,NA,11,8,"10,7,12,5,3,2,15,6,9,11,1,14,8,13,4"
14612,commdev-image-keyboard-response,95,483887,learnblock1,406.09999999962747,img/planet1_right.png,1,Community 3,NA,TRUE,j,j,NA,NA,NA,11,8,"10,7,12,5,3,2,15,6,9,11,1,14,8,13,4"
14612,commdev-image-keyboard-response,96,485139,learnblock1,53.40000000037253,img/planet4_left.png,4,Community 3,NA,FALSE,j,f,NA,NA,NA,11,8,"10,7,12,5,3,2,15,6,9,11,1,14,8,13,4"
14612,commdev-image-keyboard-response,97,486390,learnblock1,155.5,img/planet14_left.png,14,Community 3,NA,FALSE,j,f,NA,NA,NA,11,8,"10,7,12,5,3,2,15,6,9,11,1,14,8,13,4"
14612,commdev-image-keyboard-response,98,487641,learnblock1,254.59999999962747,img/planet4_right.png,4,Community 3,NA,FALSE,f,j,NA,NA,NA,11,8,"10,7,12,5,3,2,15,6,9,11,1,14,8,13,4"
14612,commdev-image-keyboard-response,99,488892,learnblock1,4.700000001117587,img/planet8_left.png,8,Community 3,NA,FALSE,j,f,NA,NA,NA,11,8,"10,7,12,5,3,2,15,6,9,11,1,14,8,13,4"
14612,commdev-image-keyboard-response,100,490144,learnblock1,39.69999999925494,img/planet14_left.png,14,Community 3,NA,TRUE,f,f,NA,NA,NA,11,8,"10,7,12,5,3,2,15,6,9,11,1,14,8,13,4"
14612,commdev-image-keyboard-response,101,491395,learnblock1,136.59999999962747,img/planet4_right.png,4,Community 3,NA,FALSE,f,j,NA,NA,NA,11,8,"10,7,12,5,3,2,15,6,9,11,1,14,8,13,4"
14612,commdev-image-keyboard-response,102,492647,learnblock1,31.800000000745058,img/planet8_right.png,8,Community 3,NA,TRUE,j,j,NA,NA,NA,11,8,"10,7,12,5,3,2,15,6,9,11,1,14,8,13,4"
14612,commdev-image-keyboard-response,103,493899,learnblock1,123.59999999962747,img/planet14_right.png,14,Community 3,NA,FALSE,f,j,NA,NA,NA,11,8,"10,7,12,5,3,2,15,6,9,11,1,14,8,13,4"
14612,commdev-image-keyboard-response,104,495150,learnblock1,303,img/planet6_left.png,6,Community 2,NA,FALSE,j,f,NA,NA,NA,11,8,"10,7,12,5,3,2,15,6,9,11,1,14,8,13,4"
14612,commdev-image-keyboard-response,105,496401,learnblock1,109.5,img/planet15_right.png,15,Community 2,NA,FALSE,f,j,NA,NA,NA,11,8,"10,7,12,5,3,2,15,6,9,11,1,14,8,13,4"
14612,commdev-image-keyboard-response,106,497652,learnblock1,51.5,img/planet2_left.png,2,Community 2,NA,FALSE,j,f,NA,NA,NA,11,8,"10,7,12,5,3,2,15,6,9,11,1,14,8,13,4"
14612,commdev-image-keyboard-response,107,498903,learnblock1,673.8999999985099,img/planet15_right.png,15,Community 2,NA,TRUE,j,j,NA,NA,NA,11,8,"10,7,12,5,3,2,15,6,9,11,1,14,8,13,4"
14612,commdev-image-keyboard-response,108,500155,learnblock1,395,img/planet2_left.png,2,Community 2,NA,FALSE,j,f,NA,NA,NA,11,8,"10,7,12,5,3,2,15,6,9,11,1,14,8,13,4"
14612,commdev-image-keyboard-response,109,501407,learnblock1,54.29999999888241,img/planet11_left.png,11,Community 2,NA,FALSE,j,f,NA,NA,NA,11,8,"10,7,12,5,3,2,15,6,9,11,1,14,8,13,4"
14612,commdev-image-keyboard-response,110,502658,learnblock1,172,img/planet2_right.png,2,Community 2,NA,TRUE,j,j,NA,NA,NA,11,8,"10,7,12,5,3,2,15,6,9,11,1,14,8,13,4"
14612,commdev-image-keyboard-response,111,503909,learnblock1,45.79999999888241,img/planet15_right.png,15,Community 2,NA,TRUE,j,j,NA,NA,NA,11,8,"10,7,12,5,3,2,15,6,9,11,1,14,8,13,4"
14612,commdev-image-keyboard-response,112,505161,learnblock1,877.3000000007451,img/planet2_right.png,2,Community 2,NA,FALSE,f,j,NA,NA,NA,11,8,"10,7,12,5,3,2,15,6,9,11,1,14,8,13,4"
14612,commdev-image-keyboard-response,113,506412,learnblock1,343.7999999988824,img/planet11_right.png,11,Community 2,NA,TRUE,j,j,NA,NA,NA,11,8,"10,7,12,5,3,2,15,6,9,11,1,14,8,13,4"
14612,commdev-image-keyboard-response,114,507663,learnblock1,145.7000000011176,img/planet2_left.png,2,Community 2,NA,TRUE,f,f,NA,NA,NA,11,8,"10,7,12,5,3,2,15,6,9,11,1,14,8,13,4"
14612,commdev-image-keyboard-response,115,508915,learnblock1,295.5,img/planet9_left.png,9,Community 2,NA,TRUE,f,f,NA,NA,NA,11,8,"10,7,12,5,3,2,15,6,9,11,1,14,8,13,4"
14612,commdev-image-keyboard-response,116,510166,learnblock1,200.10000000149012,img/planet15_left.png,15,Community 2,NA,TRUE,f,f,NA,NA,NA,11,8,"10,7,12,5,3,2,15,6,9,11,1,14,8,13,4"
14612,commdev-image-keyboard-response,117,511417,learnblock1,150.09999999962747,img/planet9_right.png,9,Community 2,NA,FALSE,f,j,NA,NA,NA,11,8,"10,7,12,5,3,2,15,6,9,11,1,14,8,13,4"
14612,commdev-image-keyboard-response,118,512669,learnblock1,59.600000001490116,img/planet2_right.png,2,Community 2,NA,FALSE,f,j,NA,NA,NA,11,8,"10,7,12,5,3,2,15,6,9,11,1,14,8,13,4"
14612,commdev-image-keyboard-response,119,513920,learnblock1,232.5,img/planet9_right.png,9,Community 2,NA,TRUE,j,j,NA,NA,NA,11,8,"10,7,12,5,3,2,15,6,9,11,1,14,8,13,4"
14612,commdev-image-keyboard-response,120,515172,learnblock1,null,img/planet6_left.png,6,Community 2,NA,FALSE,null,f,NA,NA,NA,11,8,"10,7,12,5,3,2,15,6,9,11,1,14,8,13,4"
14612,commdev-image-keyboard-response,121,516423,learnblock1,322.5,img/planet15_right.png,15,Community 2,NA,TRUE,j,j,NA,NA,NA,11,8,"10,7,12,5,3,2,15,6,9,11,1,14,8,13,4"
14612,commdev-image-keyboard-response,122,517674,learnblock1,191.69999999925494,img/planet9_right.png,9,Community 2,NA,FALSE,f,j,NA,NA,NA,11,8,"10,7,12,5,3,2,15,6,9,11,1,14,8,13,4"
14612,commdev-image-keyboard-response,123,518926,learnblock1,1129.300000000745,img/planet11_left.png,11,Community 2,NA,TRUE,f,f,NA,NA,NA,11,8,"10,7,12,5,3,2,15,6,9,11,1,14,8,13,4"
14612,commdev-image-keyboard-response,124,520177,learnblock1,757.5,img/planet2_right.png,2,Community 2,NA,TRUE,j,j,NA,NA,NA,11,8,"10,7,12,5,3,2,15,6,9,11,1,14,8,13,4"
14612,commdev-image-keyboard-response,125,521429,learnblock1,33,img/planet5_right.png,5,Community 1,NA,TRUE,j,j,NA,NA,NA,11,8,"10,7,12,5,3,2,15,6,9,11,1,14,8,13,4"
14612,commdev-image-keyboard-response,126,522681,learnblock1,167.89999999850988,img/planet2_left.png,2,Community 2,NA,FALSE,j,f,NA,NA,NA,11,8,"10,7,12,5,3,2,15,6,9,11,1,14,8,13,4"
14612,commdev-image-keyboard-response,127,523933,learnblock1,58.09999999962747,img/planet11_right.png,11,Community 2,NA,FALSE,f,j,NA,NA,NA,11,8,"10,7,12,5,3,2,15,6,9,11,1,14,8,13,4"
14612,commdev-image-keyboard-response,128,525185,learnblock1,89.40000000037253,img/planet2_right.png,2,Community 2,NA,TRUE,j,j,NA,NA,NA,11,8,"10,7,12,5,3,2,15,6,9,11,1,14,8,13,4"
14612,commdev-image-keyboard-response,129,526437,learnblock1,17.199999999254942,img/planet11_left.png,11,Community 2,NA,FALSE,j,f,NA,NA,NA,11,8,"10,7,12,5,3,2,15,6,9,11,1,14,8,13,4"
14612,commdev-image-keyboard-response,130,527688,learnblock1,60.30000000074506,img/planet2_left.png,2,Community 2,NA,FALSE,j,f,NA,NA,NA,11,8,"10,7,12,5,3,2,15,6,9,11,1,14,8,13,4"
14612,commdev-image-keyboard-response,131,528940,learnblock1,69.39999999850988,img/planet15_right.png,15,Community 2,NA,TRUE,j,j,NA,NA,NA,11,8,"10,7,12,5,3,2,15,6,9,11,1,14,8,13,4"
14612,commdev-image-keyboard-response,132,530191,learnblock1,148.69999999925494,img/planet9_left.png,9,Community 2,NA,TRUE,f,f,NA,NA,NA,11,8,"10,7,12,5,3,2,15,6,9,11,1,14,8,13,4"
14612,commdev-image-keyboard-response,133,531443,learnblock1,236.39999999850988,img/planet6_right.png,6,Community 2,NA,FALSE,f,j,NA,NA,NA,11,8,"10,7,12,5,3,2,15,6,9,11,1,14,8,13,4"
14612,commdev-image-keyboard-response,134,532695,learnblock1,445.80000000074506,img/planet9_right.png,9,Community 2,NA,TRUE,j,j,NA,NA,NA,11,8,"10,7,12,5,3,2,15,6,9,11,1,14,8,13,4"
14612,commdev-image-keyboard-response,135,533947,learnblock1,112.70000000111759,img/planet2_left.png,2,Community 2,NA,FALSE,j,f,NA,NA,NA,11,8,"10,7,12,5,3,2,15,6,9,11,1,14,8,13,4"
14612,commdev-image-keyboard-response,136,535199,learnblock1,218.19999999925494,img/planet9_left.png,9,Community 2,NA,FALSE,j,f,NA,NA,NA,11,8,"10,7,12,5,3,2,15,6,9,11,1,14,8,13,4"
14612,commdev-image-keyboard-response,137,536450,learnblock1,813.3000000007451,img/planet11_left.png,11,Community 2,NA,TRUE,f,f,NA,NA,NA,11,8,"10,7,12,5,3,2,15,6,9,11,1,14,8,13,4"
14612,commdev-image-keyboard-response,138,537702,learnblock1,228,img/planet6_right.png,6,Community 2,NA,TRUE,j,j,NA,NA,NA,11,8,"10,7,12,5,3,2,15,6,9,11,1,14,8,13,4"
14612,commdev-image-keyboard-response,139,538954,learnblock1,124.80000000074506,img/planet14_right.png,14,Community 3,NA,TRUE,j,j,NA,NA,NA,11,8,"10,7,12,5,3,2,15,6,9,11,1,14,8,13,4"
14612,commdev-image-keyboard-response,140,540206,learnblock1,104.40000000037253,img/planet6_left.png,6,Community 2,NA,TRUE,f,f,NA,NA,NA,11,8,"10,7,12,5,3,2,15,6,9,11,1,14,8,13,4"
14612,commdev-image-keyboard-response,141,541458,learnblock1,131,img/planet11_right.png,11,Community 2,NA,FALSE,f,j,NA,NA,NA,11,8,"10,7,12,5,3,2,15,6,9,11,1,14,8,13,4"
14612,commdev-image-keyboard-response,142,542709,learnblock1,133.2000000011176,img/planet6_right.png,6,Community 2,NA,TRUE,j,j,NA,NA,NA,11,8,"10,7,12,5,3,2,15,6,9,11,1,14,8,13,4"
14612,commdev-image-keyboard-response,143,543960,learnblock1,39,img/planet15_right.png,15,Community 2,NA,FALSE,f,j,NA,NA,NA,11,8,"10,7,12,5,3,2,15,6,9,11,1,14,8,13,4"
14612,commdev-image-keyboard-response,144,545212,learnblock1,155.69999999925494,img/planet6_right.png,6,Community 2,NA,TRUE,j,j,NA,NA,NA,11,8,"10,7,12,5,3,2,15,6,9,11,1,14,8,13,4"
14612,commdev-image-keyboard-response,145,546463,learnblock1,194.09999999962747,img/planet11_left.png,11,Community 2,NA,TRUE,f,f,NA,NA,NA,11,8,"10,7,12,5,3,2,15,6,9,11,1,14,8,13,4"
14612,commdev-image-keyboard-response,146,547714,learnblock1,122,img/planet9_left.png,9,Community 2,NA,TRUE,f,f,NA,NA,NA,11,8,"10,7,12,5,3,2,15,6,9,11,1,14,8,13,4"
14612,commdev-image-keyboard-response,147,548965,learnblock1,171.60000000149012,img/planet6_left.png,6,Community 2,NA,TRUE,f,f,NA,NA,NA,11,8,"10,7,12,5,3,2,15,6,9,11,1,14,8,13,4"
14612,commdev-image-keyboard-response,148,550217,learnblock1,643.5999999996275,img/planet15_left.png,15,Community 2,NA,FALSE,j,f,NA,NA,NA,11,8,"10,7,12,5,3,2,15,6,9,11,1,14,8,13,4"
14612,commdev-image-keyboard-response,149,551469,learnblock1,33.59999999962747,img/planet9_left.png,9,Community 2,NA,FALSE,j,f,NA,NA,NA,11,8,"10,7,12,5,3,2,15,6,9,11,1,14,8,13,4"
14612,commdev-image-keyboard-response,150,552721,learnblock1,65.5,img/planet15_right.png,15,Community 2,NA,FALSE,f,j,NA,NA,NA,11,8,"10,7,12,5,3,2,15,6,9,11,1,14,8,13,4"
14612,commdev-image-keyboard-response,151,553972,learnblock1,232.40000000037253,img/planet11_left.png,11,Community 2,NA,FALSE,j,f,NA,NA,NA,11,8,"10,7,12,5,3,2,15,6,9,11,1,14,8,13,4"
14612,commdev-image-keyboard-response,152,555224,learnblock1,154.7999999988824,img/planet15_right.png,15,Community 2,NA,TRUE,j,j,NA,NA,NA,11,8,"10,7,12,5,3,2,15,6,9,11,1,14,8,13,4"
14612,commdev-image-keyboard-response,153,556475,learnblock1,472.90000000037253,img/planet11_left.png,11,Community 2,NA,TRUE,f,f,NA,NA,NA,11,8,"10,7,12,5,3,2,15,6,9,11,1,14,8,13,4"
14612,commdev-image-keyboard-response,154,557726,learnblock1,210.5,img/planet2_left.png,2,Community 2,NA,FALSE,j,f,NA,NA,NA,11,8,"10,7,12,5,3,2,15,6,9,11,1,14,8,13,4"
14612,commdev-image-keyboard-response,155,558977,learnblock1,20.59999999962747,img/planet11_left.png,11,Community 2,NA,FALSE,j,f,NA,NA,NA,11,8,"10,7,12,5,3,2,15,6,9,11,1,14,8,13,4"
14612,commdev-image-keyboard-response,156,560228,learnblock1,49.40000000037253,img/planet15_left.png,15,Community 2,NA,FALSE,j,f,NA,NA,NA,11,8,"10,7,12,5,3,2,15,6,9,11,1,14,8,13,4"
14612,commdev-image-keyboard-response,157,561480,learnblock1,109.59999999962747,img/planet2_left.png,2,Community 2,NA,FALSE,j,f,NA,NA,NA,11,8,"10,7,12,5,3,2,15,6,9,11,1,14,8,13,4"
14612,commdev-image-keyboard-response,158,562733,learnblock1,34.79999999888241,img/planet11_right.png,11,Community 2,NA,TRUE,j,j,NA,NA,NA,11,8,"10,7,12,5,3,2,15,6,9,11,1,14,8,13,4"
14612,commdev-image-keyboard-response,159,563985,learnblock1,111.69999999925494,img/planet6_left.png,6,Community 2,NA,TRUE,f,f,NA,NA,NA,11,8,"10,7,12,5,3,2,15,6,9,11,1,14,8,13,4"
14612,commdev-image-keyboard-response,160,565236,learnblock1,362.59999999962747,img/planet9_left.png,9,Community 2,NA,FALSE,j,f,NA,NA,NA,11,8,"10,7,12,5,3,2,15,6,9,11,1,14,8,13,4"
14612,commdev-image-keyboard-response,161,566488,learnblock1,297.19999999925494,img/planet6_left.png,6,Community 2,NA,TRUE,f,f,NA,NA,NA,11,8,"10,7,12,5,3,2,15,6,9,11,1,14,8,13,4"
14612,commdev-image-keyboard-response,162,567739,learnblock1,null,img/planet14_right.png,14,Community 3,NA,FALSE,null,j,NA,NA,NA,11,8,"10,7,12,5,3,2,15,6,9,11,1,14,8,13,4"
14612,commdev-image-keyboard-response,163,568991,learnblock1,202.7000000011176,img/planet8_right.png,8,Community 3,NA,TRUE,j,j,NA,NA,NA,11,8,"10,7,12,5,3,2,15,6,9,11,1,14,8,13,4"
14612,commdev-image-keyboard-response,164,570242,learnblock1,27.700000001117587,img/planet4_left.png,4,Community 3,NA,TRUE,f,f,NA,NA,NA,11,8,"10,7,12,5,3,2,15,6,9,11,1,14,8,13,4"
14612,commdev-image-keyboard-response,165,571493,learnblock1,87.29999999888241,img/planet13_left.png,13,Community 3,NA,FALSE,j,f,NA,NA,NA,11,8,"10,7,12,5,3,2,15,6,9,11,1,14,8,13,4"
14612,commdev-image-keyboard-response,166,572746,learnblock1,38.19999999925494,img/planet8_left.png,8,Community 3,NA,FALSE,j,f,NA,NA,NA,11,8,"10,7,12,5,3,2,15,6,9,11,1,14,8,13,4"
14612,commdev-image-keyboard-response,167,573997,learnblock1,161.69999999925494,img/planet13_left.png,13,Community 3,NA,TRUE,f,f,NA,NA,NA,11,8,"10,7,12,5,3,2,15,6,9,11,1,14,8,13,4"
14612,commdev-image-keyboard-response,168,575249,learnblock1,39.69999999925494,img/planet14_left.png,14,Community 3,NA,FALSE,j,f,NA,NA,NA,11,8,"10,7,12,5,3,2,15,6,9,11,1,14,8,13,4"
14612,commdev-image-keyboard-response,169,576500,learnblock1,248.7000000011176,img/planet6_left.png,6,Community 2,NA,FALSE,j,f,NA,NA,NA,11,8,"10,7,12,5,3,2,15,6,9,11,1,14,8,13,4"
14612,commdev-image-keyboard-response,170,577752,learnblock1,null,img/planet14_left.png,14,Community 3,NA,FALSE,null,f,NA,NA,NA,11,8,"10,7,12,5,3,2,15,6,9,11,1,14,8,13,4"
14612,commdev-image-keyboard-response,171,579003,learnblock1,578.3000000007451,img/planet8_right.png,8,Community 3,NA,TRUE,j,j,NA,NA,NA,11,8,"10,7,12,5,3,2,15,6,9,11,1,14,8,13,4"
14612,commdev-image-keyboard-response,172,580254,learnblock1,72.20000000111759,img/planet4_right.png,4,Community 3,NA,TRUE,j,j,NA,NA,NA,11,8,"10,7,12,5,3,2,15,6,9,11,1,14,8,13,4"
14612,commdev-image-keyboard-response,173,581505,learnblock1,216.59999999962747,img/planet1_left.png,1,Community 3,NA,TRUE,f,f,NA,NA,NA,11,8,"10,7,12,5,3,2,15,6,9,11,1,14,8,13,4"
14612,commdev-image-keyboard-response,174,582757,learnblock1,7.700000001117587,img/planet3_right.png,3,Community 1,NA,FALSE,f,j,NA,NA,NA,11,8,"10,7,12,5,3,2,15,6,9,11,1,14,8,13,4"
14612,commdev-image-keyboard-response,175,584009,learnblock1,190.09999999962747,img/planet7_left.png,7,Community 1,NA,TRUE,f,f,NA,NA,NA,11,8,"10,7,12,5,3,2,15,6,9,11,1,14,8,13,4"
14612,commdev-image-keyboard-response,176,585261,learnblock1,19,img/planet5_left.png,5,Community 1,NA,FALSE,j,f,NA,NA,NA,11,8,"10,7,12,5,3,2,15,6,9,11,1,14,8,13,4"
14612,commdev-image-keyboard-response,177,586514,learnblock1,10.400000000372529,img/planet7_left.png,7,Community 1,NA,FALSE,j,f,NA,NA,NA,11,8,"10,7,12,5,3,2,15,6,9,11,1,14,8,13,4"
14612,commdev-image-keyboard-response,178,587765,learnblock1,78.79999999888241,img/planet10_left.png,10,Community 1,NA,TRUE,f,f,NA,NA,NA,11,8,"10,7,12,5,3,2,15,6,9,11,1,14,8,13,4"
14612,commdev-image-keyboard-response,179,589017,learnblock1,12.300000000745058,img/planet5_right.png,5,Community 1,NA,TRUE,j,j,NA,NA,NA,11,8,"10,7,12,5,3,2,15,6,9,11,1,14,8,13,4"
14612,commdev-image-keyboard-response,180,590268,learnblock1,115,img/planet7_left.png,7,Community 1,NA,TRUE,f,f,NA,NA,NA,11,8,"10,7,12,5,3,2,15,6,9,11,1,14,8,13,4"
14612,commdev-image-keyboard-response,181,591519,learnblock1,454.09999999962747,img/planet5_left.png,5,Community 1,NA,FALSE,j,f,NA,NA,NA,11,8,"10,7,12,5,3,2,15,6,9,11,1,14,8,13,4"
14612,commdev-image-keyboard-response,182,592772,learnblock1,189.7000000011176,img/planet10_left.png,10,Community 1,NA,TRUE,f,f,NA,NA,NA,11,8,"10,7,12,5,3,2,15,6,9,11,1,14,8,13,4"
14612,commdev-image-keyboard-response,183,594023,learnblock1,64.29999999888241,img/planet3_left.png,3,Community 1,NA,TRUE,f,f,NA,NA,NA,11,8,"10,7,12,5,3,2,15,6,9,11,1,14,8,13,4"
14612,commdev-image-keyboard-response,184,595275,learnblock1,125.5,img/planet10_right.png,10,Community 1,NA,TRUE,j,j,NA,NA,NA,11,8,"10,7,12,5,3,2,15,6,9,11,1,14,8,13,4"
14612,commdev-image-keyboard-response,185,596526,learnblock1,null,img/planet7_right.png,7,Community 1,NA,FALSE,null,j,NA,NA,NA,11,8,"10,7,12,5,3,2,15,6,9,11,1,14,8,13,4"
14612,commdev-image-keyboard-response,186,597778,learnblock1,323,img/planet3_right.png,3,Community 1,NA,TRUE,j,j,NA,NA,NA,11,8,"10,7,12,5,3,2,15,6,9,11,1,14,8,13,4"
14612,commdev-image-keyboard-response,187,599029,learnblock1,45.5,img/planet12_left.png,12,Community 1,NA,TRUE,f,f,NA,NA,NA,11,8,"10,7,12,5,3,2,15,6,9,11,1,14,8,13,4"
14612,commdev-image-keyboard-response,188,600281,learnblock1,142.2999999988824,img/planet5_left.png,5,Community 1,NA,TRUE,f,f,NA,NA,NA,11,8,"10,7,12,5,3,2,15,6,9,11,1,14,8,13,4"
14612,commdev-image-keyboard-response,189,601532,learnblock1,72.09999999962747,img/planet2_left.png,2,Community 2,NA,TRUE,f,f,NA,NA,NA,11,8,"10,7,12,5,3,2,15,6,9,11,1,14,8,13,4"
14612,commdev-image-keyboard-response,190,602784,learnblock1,50.09999999962747,img/planet15_left.png,15,Community 2,NA,TRUE,f,f,NA,NA,NA,11,8,"10,7,12,5,3,2,15,6,9,11,1,14,8,13,4"
14612,commdev-image-keyboard-response,191,604035,learnblock1,147.7999999988824,img/planet6_left.png,6,Community 2,NA,TRUE,f,f,NA,NA,NA,11,8,"10,7,12,5,3,2,15,6,9,11,1,14,8,13,4"
14612,commdev-image-keyboard-response,192,605287,learnblock1,69.10000000149012,img/planet9_left.png,9,Community 2,NA,FALSE,j,f,NA,NA,NA,11,8,"10,7,12,5,3,2,15,6,9,11,1,14,8,13,4"
14612,commdev-image-keyboard-response,193,606538,learnblock1,186.40000000037253,img/planet2_right.png,2,Community 2,NA,FALSE,f,j,NA,NA,NA,11,8,"10,7,12,5,3,2,15,6,9,11,1,14,8,13,4"
14612,commdev-image-keyboard-response,194,607790,learnblock1,10.099999999627471,img/planet5_left.png,5,Community 1,NA,FALSE,j,f,NA,NA,NA,11,8,"10,7,12,5,3,2,15,6,9,11,1,14,8,13,4"
14612,commdev-image-keyboard-response,195,609041,learnblock1,44.09999999962747,img/planet2_right.png,2,Community 2,NA,TRUE,j,j,NA,NA,NA,11,8,"10,7,12,5,3,2,15,6,9,11,1,14,8,13,4"
14612,commdev-image-keyboard-response,196,610294,learnblock1,92.59999999962747,img/planet15_left.png,15,Community 2,NA,FALSE,j,f,NA,NA,NA,11,8,"10,7,12,5,3,2,15,6,9,11,1,14,8,13,4"
14612,commdev-image-keyboard-response,197,611545,learnblock1,8.900000000372529,img/planet11_right.png,11,Community 2,NA,TRUE,j,j,NA,NA,NA,11,8,"10,7,12,5,3,2,15,6,9,11,1,14,8,13,4"
14612,commdev-image-keyboard-response,198,612796,learnblock1,90.40000000037253,img/planet2_right.png,2,Community 2,NA,TRUE,j,j,NA,NA,NA,11,8,"10,7,12,5,3,2,15,6,9,11,1,14,8,13,4"
14612,commdev-image-keyboard-response,199,614048,learnblock1,1054.300000000745,img/planet9_left.png,9,Community 2,NA,TRUE,f,f,NA,NA,NA,11,8,"10,7,12,5,3,2,15,6,9,11,1,14,8,13,4"
14612,commdev-image-keyboard-response,200,615300,learnblock1,123.59999999962747,img/planet6_right.png,6,Community 2,NA,FALSE,f,j,NA,NA,NA,11,8,"10,7,12,5,3,2,15,6,9,11,1,14,8,13,4"
14612,commdev-image-keyboard-response,201,616551,learnblock1,43.79999999888241,img/planet14_right.png,14,Community 3,NA,TRUE,j,j,NA,NA,NA,11,8,"10,7,12,5,3,2,15,6,9,11,1,14,8,13,4"
14612,commdev-image-keyboard-response,202,617803,learnblock1,null,img/planet13_left.png,13,Community 3,NA,FALSE,null,f,NA,NA,NA,11,8,"10,7,12,5,3,2,15,6,9,11,1,14,8,13,4"
14612,commdev-image-keyboard-response,203,619055,learnblock1,1073.800000000745,img/planet4_left.png,4,Community 3,NA,FALSE,j,f,NA,NA,NA,11,8,"10,7,12,5,3,2,15,6,9,11,1,14,8,13,4"
14612,commdev-image-keyboard-response,204,620308,learnblock1,273.6000000014901,img/planet8_left.png,8,Community 3,NA,TRUE,f,f,NA,NA,NA,11,8,"10,7,12,5,3,2,15,6,9,11,1,14,8,13,4"
14612,commdev-image-keyboard-response,205,621560,learnblock1,205.59999999962747,img/planet13_left.png,13,Community 3,NA,TRUE,f,f,NA,NA,NA,11,8,"10,7,12,5,3,2,15,6,9,11,1,14,8,13,4"
14612,commdev-image-keyboard-response,206,622811,learnblock1,483.09999999962747,img/planet14_left.png,14,Community 3,NA,FALSE,j,f,NA,NA,NA,11,8,"10,7,12,5,3,2,15,6,9,11,1,14,8,13,4"
14612,commdev-image-keyboard-response,207,624062,learnblock1,38.70000000111759,img/planet4_right.png,4,Community 3,NA,FALSE,f,j,NA,NA,NA,11,8,"10,7,12,5,3,2,15,6,9,11,1,14,8,13,4"
14612,commdev-image-keyboard-response,208,625314,learnblock1,10.5,img/planet1_right.png,1,Community 3,NA,FALSE,f,j,NA,NA,NA,11,8,"10,7,12,5,3,2,15,6,9,11,1,14,8,13,4"
14612,commdev-image-keyboard-response,209,626565,learnblock1,76.09999999962747,img/planet8_right.png,8,Community 3,NA,FALSE,f,j,NA,NA,NA,11,8,"10,7,12,5,3,2,15,6,9,11,1,14,8,13,4"
14612,commdev-image-keyboard-response,210,627816,learnblock1,182.90000000037253,img/planet13_right.png,13,Community 3,NA,TRUE,j,j,NA,NA,NA,11,8,"10,7,12,5,3,2,15,6,9,11,1,14,8,13,4"
14612,commdev-image-keyboard-response,211,629068,learnblock1,524.8999999985099,img/planet4_left.png,4,Community 3,NA,FALSE,j,f,NA,NA,NA,11,8,"10,7,12,5,3,2,15,6,9,11,1,14,8,13,4"
14612,commdev-image-keyboard-response,212,630320,learnblock1,37.90000000037253,img/planet1_right.png,1,Community 3,NA,TRUE,j,j,NA,NA,NA,11,8,"10,7,12,5,3,2,15,6,9,11,1,14,8,13,4"
14612,commdev-image-keyboard-response,213,631572,learnblock1,113.19999999925494,img/planet8_right.png,8,Community 3,NA,TRUE,j,j,NA,NA,NA,11,8,"10,7,12,5,3,2,15,6,9,11,1,14,8,13,4"
14612,commdev-image-keyboard-response,214,632823,learnblock1,57.70000000111759,img/planet14_right.png,14,Community 3,NA,FALSE,f,j,NA,NA,NA,11,8,"10,7,12,5,3,2,15,6,9,11,1,14,8,13,4"
14612,commdev-image-keyboard-response,215,634074,learnblock1,50.29999999888241,img/planet13_right.png,13,Community 3,NA,FALSE,f,j,NA,NA,NA,11,8,"10,7,12,5,3,2,15,6,9,11,1,14,8,13,4"
14612,commdev-image-keyboard-response,216,635325,learnblock1,6.400000000372529,img/planet14_left.png,14,Community 3,NA,FALSE,j,f,NA,NA,NA,11,8,"10,7,12,5,3,2,15,6,9,11,1,14,8,13,4"
14612,commdev-image-keyboard-response,217,636577,learnblock1,56.29999999888241,img/planet6_left.png,6,Community 2,NA,FALSE,j,f,NA,NA,NA,11,8,"10,7,12,5,3,2,15,6,9,11,1,14,8,13,4"
14612,commdev-image-keyboard-response,218,637829,learnblock1,383,img/planet9_right.png,9,Community 2,NA,FALSE,f,j,NA,NA,NA,11,8,"10,7,12,5,3,2,15,6,9,11,1,14,8,13,4"
14612,commdev-image-keyboard-response,219,639080,learnblock1,468.19999999925494,img/planet15_left.png,15,Community 2,NA,FALSE,j,f,NA,NA,NA,11,8,"10,7,12,5,3,2,15,6,9,11,1,14,8,13,4"
14612,commdev-image-keyboard-response,220,640332,learnblock1,1211.300000000745,img/planet11_right.png,11,Community 2,NA,TRUE,j,j,NA,NA,NA,11,8,"10,7,12,5,3,2,15,6,9,11,1,14,8,13,4"
14612,commdev-image-keyboard-response,221,641583,learnblock1,358.5,img/planet9_left.png,9,Community 2,NA,TRUE,f,f,NA,NA,NA,11,8,"10,7,12,5,3,2,15,6,9,11,1,14,8,13,4"
14612,commdev-image-keyboard-response,222,642835,learnblock1,345.7000000011176,img/planet11_right.png,11,Community 2,NA,FALSE,f,j,NA,NA,NA,11,8,"10,7,12,5,3,2,15,6,9,11,1,14,8,13,4"
14612,commdev-image-keyboard-response,223,644086,learnblock1,158.09999999962747,img/planet15_right.png,15,Community 2,NA,FALSE,f,j,NA,NA,NA,11,8,"10,7,12,5,3,2,15,6,9,11,1,14,8,13,4"
14612,commdev-image-keyboard-response,224,645338,learnblock1,150.69999999925494,img/planet6_left.png,6,Community 2,NA,TRUE,f,f,NA,NA,NA,11,8,"10,7,12,5,3,2,15,6,9,11,1,14,8,13,4"
14612,commdev-image-keyboard-response,225,646590,learnblock1,11.5,img/planet11_right.png,11,Community 2,NA,FALSE,f,j,NA,NA,NA,11,8,"10,7,12,5,3,2,15,6,9,11,1,14,8,13,4"
14612,commdev-image-keyboard-response,226,647841,learnblock1,314.7999999988824,img/planet15_left.png,15,Community 2,NA,FALSE,j,f,NA,NA,NA,11,8,"10,7,12,5,3,2,15,6,9,11,1,14,8,13,4"
14612,commdev-image-keyboard-response,227,649092,learnblock1,264.5,img/planet9_left.png,9,Community 2,NA,FALSE,j,f,NA,NA,NA,11,8,"10,7,12,5,3,2,15,6,9,11,1,14,8,13,4"
14612,commdev-image-keyboard-response,228,650344,learnblock1,477.69999999925494,img/planet15_left.png,15,Community 2,NA,FALSE,j,f,NA,NA,NA,11,8,"10,7,12,5,3,2,15,6,9,11,1,14,8,13,4"
14612,commdev-image-keyboard-response,229,651595,learnblock1,376.7999999988824,img/planet11_left.png,11,Community 2,NA,FALSE,j,f,NA,NA,NA,11,8,"10,7,12,5,3,2,15,6,9,11,1,14,8,13,4"
14612,commdev-image-keyboard-response,230,652847,learnblock1,119.90000000037253,img/planet9_left.png,9,Community 2,NA,FALSE,j,f,NA,NA,NA,11,8,"10,7,12,5,3,2,15,6,9,11,1,14,8,13,4"
14612,commdev-image-keyboard-response,231,654099,learnblock1,31.5,img/planet2_left.png,2,Community 2,NA,TRUE,f,f,NA,NA,NA,11,8,"10,7,12,5,3,2,15,6,9,11,1,14,8,13,4"
14612,commdev-image-keyboard-response,232,655352,learnblock1,94.5,img/planet11_right.png,11,Community 2,NA,FALSE,f,j,NA,NA,NA,11,8,"10,7,12,5,3,2,15,6,9,11,1,14,8,13,4"
14612,commdev-image-keyboard-response,233,656603,learnblock1,null,img/planet15_left.png,15,Community 2,NA,FALSE,null,f,NA,NA,NA,11,8,"10,7,12,5,3,2,15,6,9,11,1,14,8,13,4"
14612,commdev-image-keyboard-response,234,657855,learnblock1,null,img/planet11_right.png,11,Community 2,NA,FALSE,null,j,NA,NA,NA,11,8,"10,7,12,5,3,2,15,6,9,11,1,14,8,13,4"
14612,commdev-image-keyboard-response,235,659106,learnblock1,null,img/planet6_right.png,6,Community 2,NA,FALSE,null,j,NA,NA,NA,11,8,"10,7,12,5,3,2,15,6,9,11,1,14,8,13,4"
14612,commdev-image-keyboard-response,236,660357,learnblock1,null,img/planet9_right.png,9,Community 2,NA,FALSE,null,j,NA,NA,NA,11,8,"10,7,12,5,3,2,15,6,9,11,1,14,8,13,4"
14612,commdev-image-keyboard-response,237,661608,learnblock1,1004.3000000007451,img/planet15_right.png,15,Community 2,NA,FALSE,f,j,NA,NA,NA,11,8,"10,7,12,5,3,2,15,6,9,11,1,14,8,13,4"
14612,commdev-image-keyboard-response,238,662860,learnblock1,43.5,img/planet6_left.png,6,Community 2,NA,TRUE,f,f,NA,NA,NA,11,8,"10,7,12,5,3,2,15,6,9,11,1,14,8,13,4"
14612,commdev-image-keyboard-response,239,664112,learnblock1,211.59999999962747,img/planet9_left.png,9,Community 2,NA,TRUE,f,f,NA,NA,NA,11,8,"10,7,12,5,3,2,15,6,9,11,1,14,8,13,4"
14612,commdev-image-keyboard-response,240,665363,learnblock1,4.400000000372529,img/planet2_left.png,2,Community 2,NA,FALSE,j,f,NA,NA,NA,11,8,"10,7,12,5,3,2,15,6,9,11,1,14,8,13,4"
14612,commdev-image-keyboard-response,241,666614,learnblock1,120.40000000037253,img/planet11_left.png,11,Community 2,NA,TRUE,f,f,NA,NA,NA,11,8,"10,7,12,5,3,2,15,6,9,11,1,14,8,13,4"
14612,commdev-image-keyboard-response,242,667866,learnblock1,80.59999999962747,img/planet15_right.png,15,Community 2,NA,TRUE,j,j,NA,NA,NA,11,8,"10,7,12,5,3,2,15,6,9,11,1,14,8,13,4"
14612,commdev-image-keyboard-response,243,669117,learnblock1,107.39999999850988,img/planet6_left.png,6,Community 2,NA,FALSE,j,f,NA,NA,NA,11,8,"10,7,12,5,3,2,15,6,9,11,1,14,8,13,4"
14612,commdev-image-keyboard-response,244,670369,learnblock1,161.40000000037253,img/planet15_left.png,15,Community 2,NA,TRUE,f,f,NA,NA,NA,11,8,"10,7,12,5,3,2,15,6,9,11,1,14,8,13,4"
14612,commdev-image-keyboard-response,245,671620,learnblock1,1.800000000745058,img/planet2_left.png,2,Community 2,NA,FALSE,j,f,NA,NA,NA,11,8,"10,7,12,5,3,2,15,6,9,11,1,14,8,13,4"
14612,commdev-image-keyboard-response,246,672872,learnblock1,273,img/planet5_left.png,5,Community 1,NA,FALSE,j,f,NA,NA,NA,11,8,"10,7,12,5,3,2,15,6,9,11,1,14,8,13,4"
14612,commdev-image-keyboard-response,247,674124,learnblock1,213.5,img/planet2_right.png,2,Community 2,NA,FALSE,f,j,NA,NA,NA,11,8,"10,7,12,5,3,2,15,6,9,11,1,14,8,13,4"
14612,commdev-image-keyboard-response,248,675375,learnblock1,null,img/planet11_left.png,11,Community 2,NA,FALSE,null,f,NA,NA,NA,11,8,"10,7,12,5,3,2,15,6,9,11,1,14,8,13,4"
14612,commdev-image-keyboard-response,249,676627,learnblock1,null,img/planet6_left.png,6,Community 2,NA,FALSE,null,f,NA,NA,NA,11,8,"10,7,12,5,3,2,15,6,9,11,1,14,8,13,4"
14612,commdev-image-keyboard-response,250,677878,learnblock1,null,img/planet11_left.png,11,Community 2,NA,FALSE,null,f,NA,NA,NA,11,8,"10,7,12,5,3,2,15,6,9,11,1,14,8,13,4"
14612,commdev-image-keyboard-response,251,679130,learnblock1,null,img/planet2_left.png,2,Community 2,NA,FALSE,null,f,NA,NA,NA,11,8,"10,7,12,5,3,2,15,6,9,11,1,14,8,13,4"
14612,commdev-image-keyboard-response,252,680382,learnblock1,null,img/planet11_right.png,11,Community 2,NA,FALSE,null,j,NA,NA,NA,11,8,"10,7,12,5,3,2,15,6,9,11,1,14,8,13,4"
14612,commdev-image-keyboard-response,253,681633,learnblock1,null,img/planet15_right.png,15,Community 2,NA,FALSE,null,j,NA,NA,NA,11,8,"10,7,12,5,3,2,15,6,9,11,1,14,8,13,4"
14612,commdev-image-keyboard-response,254,682885,learnblock1,null,img/planet2_right.png,2,Community 2,NA,FALSE,null,j,NA,NA,NA,11,8,"10,7,12,5,3,2,15,6,9,11,1,14,8,13,4"
14612,commdev-image-keyboard-response,255,684137,learnblock1,null,img/planet9_right.png,9,Community 2,NA,FALSE,null,j,NA,NA,NA,11,8,"10,7,12,5,3,2,15,6,9,11,1,14,8,13,4"
14612,commdev-image-keyboard-response,256,685389,learnblock1,null,img/planet11_left.png,11,Community 2,NA,FALSE,null,f,NA,NA,NA,11,8,"10,7,12,5,3,2,15,6,9,11,1,14,8,13,4"
14612,commdev-image-keyboard-response,257,686641,learnblock1,null,img/planet2_right.png,2,Community 2,NA,FALSE,null,j,NA,NA,NA,11,8,"10,7,12,5,3,2,15,6,9,11,1,14,8,13,4"
14612,commdev-image-keyboard-response,258,687892,learnblock1,null,img/planet11_left.png,11,Community 2,NA,FALSE,null,f,NA,NA,NA,11,8,"10,7,12,5,3,2,15,6,9,11,1,14,8,13,4"
14612,commdev-image-keyboard-response,259,689144,learnblock1,null,img/planet2_left.png,2,Community 2,NA,FALSE,null,f,NA,NA,NA,11,8,"10,7,12,5,3,2,15,6,9,11,1,14,8,13,4"
14612,commdev-image-keyboard-response,260,690395,learnblock1,null,img/planet11_right.png,11,Community 2,NA,FALSE,null,j,NA,NA,NA,11,8,"10,7,12,5,3,2,15,6,9,11,1,14,8,13,4"
14612,commdev-image-keyboard-response,261,691646,learnblock1,null,img/planet6_left.png,6,Community 2,NA,FALSE,null,f,NA,NA,NA,11,8,"10,7,12,5,3,2,15,6,9,11,1,14,8,13,4"
14612,commdev-image-keyboard-response,262,692898,learnblock1,null,img/planet11_right.png,11,Community 2,NA,FALSE,null,j,NA,NA,NA,11,8,"10,7,12,5,3,2,15,6,9,11,1,14,8,13,4"
14612,commdev-image-keyboard-response,263,694149,learnblock1,null,img/planet2_right.png,2,Community 2,NA,FALSE,null,j,NA,NA,NA,11,8,"10,7,12,5,3,2,15,6,9,11,1,14,8,13,4"
14612,commdev-image-keyboard-response,264,695401,learnblock1,null,img/planet11_right.png,11,Community 2,NA,FALSE,null,j,NA,NA,NA,11,8,"10,7,12,5,3,2,15,6,9,11,1,14,8,13,4"
14612,commdev-image-keyboard-response,265,696652,learnblock1,null,img/planet2_left.png,2,Community 2,NA,FALSE,null,f,NA,NA,NA,11,8,"10,7,12,5,3,2,15,6,9,11,1,14,8,13,4"
14612,commdev-image-keyboard-response,266,697904,learnblock1,null,img/planet11_right.png,11,Community 2,NA,FALSE,null,j,NA,NA,NA,11,8,"10,7,12,5,3,2,15,6,9,11,1,14,8,13,4"
14612,commdev-image-keyboard-response,267,699155,learnblock1,null,img/planet2_right.png,2,Community 2,NA,FALSE,null,j,NA,NA,NA,11,8,"10,7,12,5,3,2,15,6,9,11,1,14,8,13,4"
14612,commdev-image-keyboard-response,268,700406,learnblock1,null,img/planet11_left.png,11,Community 2,NA,FALSE,null,f,NA,NA,NA,11,8,"10,7,12,5,3,2,15,6,9,11,1,14,8,13,4"
14612,commdev-image-keyboard-response,269,701658,learnblock1,null,img/planet15_left.png,15,Community 2,NA,FALSE,null,f,NA,NA,NA,11,8,"10,7,12,5,3,2,15,6,9,11,1,14,8,13,4"
14612,commdev-image-keyboard-response,270,702910,learnblock1,null,img/planet2_left.png,2,Community 2,NA,FALSE,null,f,NA,NA,NA,11,8,"10,7,12,5,3,2,15,6,9,11,1,14,8,13,4"
14612,commdev-image-keyboard-response,271,704162,learnblock1,null,img/planet9_right.png,9,Community 2,NA,FALSE,null,j,NA,NA,NA,11,8,"10,7,12,5,3,2,15,6,9,11,1,14,8,13,4"
14612,commdev-image-keyboard-response,272,705413,learnblock1,null,img/planet15_left.png,15,Community 2,NA,FALSE,null,f,NA,NA,NA,11,8,"10,7,12,5,3,2,15,6,9,11,1,14,8,13,4"
14612,commdev-image-keyboard-response,273,706664,learnblock1,null,img/planet6_right.png,6,Community 2,NA,FALSE,null,j,NA,NA,NA,11,8,"10,7,12,5,3,2,15,6,9,11,1,14,8,13,4"
14612,commdev-image-keyboard-response,274,707915,learnblock1,null,img/planet11_right.png,11,Community 2,NA,FALSE,null,j,NA,NA,NA,11,8,"10,7,12,5,3,2,15,6,9,11,1,14,8,13,4"
14612,commdev-image-keyboard-response,275,709167,learnblock1,null,img/planet9_right.png,9,Community 2,NA,FALSE,null,j,NA,NA,NA,11,8,"10,7,12,5,3,2,15,6,9,11,1,14,8,13,4"
14612,commdev-image-keyboard-response,276,710418,learnblock1,null,img/planet2_left.png,2,Community 2,NA,FALSE,null,f,NA,NA,NA,11,8,"10,7,12,5,3,2,15,6,9,11,1,14,8,13,4"
14612,commdev-image-keyboard-response,277,711670,learnblock1,null,img/planet11_left.png,11,Community 2,NA,FALSE,null,f,NA,NA,NA,11,8,"10,7,12,5,3,2,15,6,9,11,1,14,8,13,4"
14612,commdev-image-keyboard-response,278,712922,learnblock1,null,img/planet6_left.png,6,Community 2,NA,FALSE,null,f,NA,NA,NA,11,8,"10,7,12,5,3,2,15,6,9,11,1,14,8,13,4"
14612,commdev-image-keyboard-response,279,714173,learnblock1,null,img/planet15_right.png,15,Community 2,NA,FALSE,null,j,NA,NA,NA,11,8,"10,7,12,5,3,2,15,6,9,11,1,14,8,13,4"
14612,commdev-image-keyboard-response,280,715425,learnblock1,null,img/planet11_left.png,11,Community 2,NA,FALSE,null,f,NA,NA,NA,11,8,"10,7,12,5,3,2,15,6,9,11,1,14,8,13,4"
14612,commdev-image-keyboard-response,281,716676,learnblock1,null,img/planet15_left.png,15,Community 2,NA,FALSE,null,f,NA,NA,NA,11,8,"10,7,12,5,3,2,15,6,9,11,1,14,8,13,4"
14612,commdev-image-keyboard-response,282,717927,learnblock1,null,img/planet6_right.png,6,Community 2,NA,FALSE,null,j,NA,NA,NA,11,8,"10,7,12,5,3,2,15,6,9,11,1,14,8,13,4"
14612,commdev-image-keyboard-response,283,719179,learnblock1,null,img/planet14_left.png,14,Community 3,NA,FALSE,null,f,NA,NA,NA,11,8,"10,7,12,5,3,2,15,6,9,11,1,14,8,13,4"
14612,commdev-image-keyboard-response,284,720431,learnblock1,null,img/planet6_left.png,6,Community 2,NA,FALSE,null,f,NA,NA,NA,11,8,"10,7,12,5,3,2,15,6,9,11,1,14,8,13,4"
14612,commdev-image-keyboard-response,285,721683,learnblock1,null,img/planet11_left.png,11,Community 2,NA,FALSE,null,f,NA,NA,NA,11,8,"10,7,12,5,3,2,15,6,9,11,1,14,8,13,4"
14612,commdev-image-keyboard-response,286,722935,learnblock1,null,img/planet6_left.png,6,Community 2,NA,FALSE,null,f,NA,NA,NA,11,8,"10,7,12,5,3,2,15,6,9,11,1,14,8,13,4"
14612,commdev-image-keyboard-response,287,724186,learnblock1,null,img/planet9_left.png,9,Community 2,NA,FALSE,null,f,NA,NA,NA,11,8,"10,7,12,5,3,2,15,6,9,11,1,14,8,13,4"
14612,commdev-image-keyboard-response,288,725438,learnblock1,null,img/planet11_right.png,11,Community 2,NA,FALSE,null,j,NA,NA,NA,11,8,"10,7,12,5,3,2,15,6,9,11,1,14,8,13,4"
14612,commdev-image-keyboard-response,289,726689,learnblock1,null,img/planet9_left.png,9,Community 2,NA,FALSE,null,f,NA,NA,NA,11,8,"10,7,12,5,3,2,15,6,9,11,1,14,8,13,4"
14612,commdev-image-keyboard-response,290,727941,learnblock1,null,img/planet11_right.png,11,Community 2,NA,FALSE,null,j,NA,NA,NA,11,8,"10,7,12,5,3,2,15,6,9,11,1,14,8,13,4"
14612,commdev-image-keyboard-response,291,729193,learnblock1,null,img/planet6_left.png,6,Community 2,NA,FALSE,null,f,NA,NA,NA,11,8,"10,7,12,5,3,2,15,6,9,11,1,14,8,13,4"
14612,commdev-image-keyboard-response,292,730445,learnblock1,null,img/planet11_right.png,11,Community 2,NA,FALSE,null,j,NA,NA,NA,11,8,"10,7,12,5,3,2,15,6,9,11,1,14,8,13,4"
14612,commdev-image-keyboard-response,293,731696,learnblock1,null,img/planet9_left.png,9,Community 2,NA,FALSE,null,f,NA,NA,NA,11,8,"10,7,12,5,3,2,15,6,9,11,1,14,8,13,4"
14612,commdev-image-keyboard-response,294,732948,learnblock1,null,img/planet11_right.png,11,Community 2,NA,FALSE,null,j,NA,NA,NA,11,8,"10,7,12,5,3,2,15,6,9,11,1,14,8,13,4"
14612,commdev-image-keyboard-response,295,734199,learnblock1,null,img/planet9_left.png,9,Community 2,NA,FALSE,null,f,NA,NA,NA,11,8,"10,7,12,5,3,2,15,6,9,11,1,14,8,13,4"
14612,commdev-image-keyboard-response,296,735451,learnblock1,null,img/planet6_right.png,6,Community 2,NA,FALSE,null,j,NA,NA,NA,11,8,"10,7,12,5,3,2,15,6,9,11,1,14,8,13,4"
14612,commdev-image-keyboard-response,297,736703,learnblock1,null,img/planet15_right.png,15,Community 2,NA,FALSE,null,j,NA,NA,NA,11,8,"10,7,12,5,3,2,15,6,9,11,1,14,8,13,4"
14612,commdev-image-keyboard-response,298,737954,learnblock1,null,img/planet2_right.png,2,Community 2,NA,FALSE,null,j,NA,NA,NA,11,8,"10,7,12,5,3,2,15,6,9,11,1,14,8,13,4"
14612,commdev-image-keyboard-response,299,739205,learnblock1,null,img/planet15_left.png,15,Community 2,NA,FALSE,null,f,NA,NA,NA,11,8,"10,7,12,5,3,2,15,6,9,11,1,14,8,13,4"
14612,commdev-image-keyboard-response,300,740456,learnblock1,null,img/planet11_right.png,11,Community 2,NA,FALSE,null,j,NA,NA,NA,11,8,"10,7,12,5,3,2,15,6,9,11,1,14,8,13,4"
14612,commdev-image-keyboard-response,301,741708,learnblock1,null,img/planet15_left.png,15,Community 2,NA,FALSE,null,f,NA,NA,NA,11,8,"10,7,12,5,3,2,15,6,9,11,1,14,8,13,4"
14612,commdev-image-keyboard-response,302,742959,learnblock1,null,img/planet2_left.png,2,Community 2,NA,FALSE,null,f,NA,NA,NA,11,8,"10,7,12,5,3,2,15,6,9,11,1,14,8,13,4"
14612,commdev-image-keyboard-response,303,744211,learnblock1,null,img/planet15_left.png,15,Community 2,NA,FALSE,null,f,NA,NA,NA,11,8,"10,7,12,5,3,2,15,6,9,11,1,14,8,13,4"
14612,commdev-image-keyboard-response,304,745463,learnblock1,null,img/planet9_right.png,9,Community 2,NA,FALSE,null,j,NA,NA,NA,11,8,"10,7,12,5,3,2,15,6,9,11,1,14,8,13,4"
14612,commdev-image-keyboard-response,305,746714,learnblock1,null,img/planet15_left.png,15,Community 2,NA,FALSE,null,f,NA,NA,NA,11,8,"10,7,12,5,3,2,15,6,9,11,1,14,8,13,4"
14612,commdev-image-keyboard-response,306,747965,learnblock1,null,img/planet11_left.png,11,Community 2,NA,FALSE,null,f,NA,NA,NA,11,8,"10,7,12,5,3,2,15,6,9,11,1,14,8,13,4"
14612,commdev-image-keyboard-response,307,749216,learnblock1,null,img/planet15_right.png,15,Community 2,NA,FALSE,null,j,NA,NA,NA,11,8,"10,7,12,5,3,2,15,6,9,11,1,14,8,13,4"
14612,commdev-image-keyboard-response,308,750468,learnblock1,null,img/planet11_right.png,11,Community 2,NA,FALSE,null,j,NA,NA,NA,11,8,"10,7,12,5,3,2,15,6,9,11,1,14,8,13,4"
14612,commdev-image-keyboard-response,309,751720,learnblock1,null,img/planet9_left.png,9,Community 2,NA,FALSE,null,f,NA,NA,NA,11,8,"10,7,12,5,3,2,15,6,9,11,1,14,8,13,4"
14612,commdev-image-keyboard-response,310,752972,learnblock1,null,img/planet2_left.png,2,Community 2,NA,FALSE,null,f,NA,NA,NA,11,8,"10,7,12,5,3,2,15,6,9,11,1,14,8,13,4"
14612,commdev-image-keyboard-response,311,754224,learnblock1,null,img/planet11_right.png,11,Community 2,NA,FALSE,null,j,NA,NA,NA,11,8,"10,7,12,5,3,2,15,6,9,11,1,14,8,13,4"
14612,commdev-image-keyboard-response,312,755476,learnblock1,null,img/planet6_right.png,6,Community 2,NA,FALSE,null,j,NA,NA,NA,11,8,"10,7,12,5,3,2,15,6,9,11,1,14,8,13,4"
14612,commdev-image-keyboard-response,313,756727,learnblock1,null,img/planet11_left.png,11,Community 2,NA,FALSE,null,f,NA,NA,NA,11,8,"10,7,12,5,3,2,15,6,9,11,1,14,8,13,4"
14612,commdev-image-keyboard-response,314,757979,learnblock1,null,img/planet6_right.png,6,Community 2,NA,FALSE,null,j,NA,NA,NA,11,8,"10,7,12,5,3,2,15,6,9,11,1,14,8,13,4"
14612,commdev-image-keyboard-response,315,759230,learnblock1,null,img/planet15_left.png,15,Community 2,NA,FALSE,null,f,NA,NA,NA,11,8,"10,7,12,5,3,2,15,6,9,11,1,14,8,13,4"
14612,commdev-image-keyboard-response,316,760481,learnblock1,null,img/planet9_left.png,9,Community 2,NA,FALSE,null,f,NA,NA,NA,11,8,"10,7,12,5,3,2,15,6,9,11,1,14,8,13,4"
14612,commdev-image-keyboard-response,317,761734,learnblock1,null,img/planet6_left.png,6,Community 2,NA,FALSE,null,f,NA,NA,NA,11,8,"10,7,12,5,3,2,15,6,9,11,1,14,8,13,4"
14612,commdev-image-keyboard-response,318,762985,learnblock1,null,img/planet14_left.png,14,Community 3,NA,FALSE,null,f,NA,NA,NA,11,8,"10,7,12,5,3,2,15,6,9,11,1,14,8,13,4"
14612,commdev-image-keyboard-response,319,764236,learnblock1,null,img/planet8_right.png,8,Community 3,NA,FALSE,null,j,NA,NA,NA,11,8,"10,7,12,5,3,2,15,6,9,11,1,14,8,13,4"
14612,commdev-image-keyboard-response,320,765488,learnblock1,null,img/planet14_right.png,14,Community 3,NA,FALSE,null,j,NA,NA,NA,11,8,"10,7,12,5,3,2,15,6,9,11,1,14,8,13,4"
14612,commdev-image-keyboard-response,321,766739,learnblock1,null,img/planet4_right.png,4,Community 3,NA,FALSE,null,j,NA,NA,NA,11,8,"10,7,12,5,3,2,15,6,9,11,1,14,8,13,4"
14612,commdev-image-keyboard-response,322,767990,learnblock1,null,img/planet1_right.png,1,Community 3,NA,FALSE,null,j,NA,NA,NA,11,8,"10,7,12,5,3,2,15,6,9,11,1,14,8,13,4"
14612,commdev-image-keyboard-response,323,769242,learnblock1,null,img/planet3_right.png,3,Community 1,NA,FALSE,null,j,NA,NA,NA,11,8,"10,7,12,5,3,2,15,6,9,11,1,14,8,13,4"
14612,commdev-image-keyboard-response,324,770493,learnblock1,null,img/planet1_right.png,1,Community 3,NA,FALSE,null,j,NA,NA,NA,11,8,"10,7,12,5,3,2,15,6,9,11,1,14,8,13,4"
14612,commdev-image-keyboard-response,325,771745,learnblock1,null,img/planet8_left.png,8,Community 3,NA,FALSE,null,f,NA,NA,NA,11,8,"10,7,12,5,3,2,15,6,9,11,1,14,8,13,4"
14612,commdev-image-keyboard-response,326,772996,learnblock1,null,img/planet1_left.png,1,Community 3,NA,FALSE,null,f,NA,NA,NA,11,8,"10,7,12,5,3,2,15,6,9,11,1,14,8,13,4"
14612,commdev-image-keyboard-response,327,774247,learnblock1,null,img/planet3_left.png,3,Community 1,NA,FALSE,null,f,NA,NA,NA,11,8,"10,7,12,5,3,2,15,6,9,11,1,14,8,13,4"
14612,commdev-image-keyboard-response,328,775498,learnblock1,null,img/planet1_right.png,1,Community 3,NA,FALSE,null,j,NA,NA,NA,11,8,"10,7,12,5,3,2,15,6,9,11,1,14,8,13,4"
14612,commdev-image-keyboard-response,329,776749,learnblock1,null,img/planet13_right.png,13,Community 3,NA,FALSE,null,j,NA,NA,NA,11,8,"10,7,12,5,3,2,15,6,9,11,1,14,8,13,4"
14612,commdev-image-keyboard-response,330,778000,learnblock1,null,img/planet8_right.png,8,Community 3,NA,FALSE,null,j,NA,NA,NA,11,8,"10,7,12,5,3,2,15,6,9,11,1,14,8,13,4"
14612,commdev-image-keyboard-response,331,779251,learnblock1,null,img/planet13_left.png,13,Community 3,NA,FALSE,null,f,NA,NA,NA,11,8,"10,7,12,5,3,2,15,6,9,11,1,14,8,13,4"
14612,commdev-image-keyboard-response,332,780504,learnblock1,null,img/planet4_right.png,4,Community 3,NA,FALSE,null,j,NA,NA,NA,11,8,"10,7,12,5,3,2,15,6,9,11,1,14,8,13,4"
14612,commdev-image-keyboard-response,333,781755,learnblock1,null,img/planet14_right.png,14,Community 3,NA,FALSE,null,j,NA,NA,NA,11,8,"10,7,12,5,3,2,15,6,9,11,1,14,8,13,4"
14612,commdev-image-keyboard-response,334,783006,learnblock1,null,img/planet8_left.png,8,Community 3,NA,FALSE,null,f,NA,NA,NA,11,8,"10,7,12,5,3,2,15,6,9,11,1,14,8,13,4"
14612,commdev-image-keyboard-response,335,784258,learnblock1,null,img/planet13_left.png,13,Community 3,NA,FALSE,null,f,NA,NA,NA,11,8,"10,7,12,5,3,2,15,6,9,11,1,14,8,13,4"
14612,commdev-image-keyboard-response,336,785510,learnblock1,null,img/planet8_right.png,8,Community 3,NA,FALSE,null,j,NA,NA,NA,11,8,"10,7,12,5,3,2,15,6,9,11,1,14,8,13,4"
14612,commdev-image-keyboard-response,337,786761,learnblock1,null,img/planet4_right.png,4,Community 3,NA,FALSE,null,j,NA,NA,NA,11,8,"10,7,12,5,3,2,15,6,9,11,1,14,8,13,4"
14612,commdev-image-keyboard-response,338,788013,learnblock1,null,img/planet1_right.png,1,Community 3,NA,FALSE,null,j,NA,NA,NA,11,8,"10,7,12,5,3,2,15,6,9,11,1,14,8,13,4"
14612,commdev-image-keyboard-response,339,789265,learnblock1,null,img/planet13_left.png,13,Community 3,NA,FALSE,null,f,NA,NA,NA,11,8,"10,7,12,5,3,2,15,6,9,11,1,14,8,13,4"
14612,commdev-image-keyboard-response,340,790516,learnblock1,null,img/planet8_left.png,8,Community 3,NA,FALSE,null,f,NA,NA,NA,11,8,"10,7,12,5,3,2,15,6,9,11,1,14,8,13,4"
14612,commdev-image-keyboard-response,341,791768,learnblock1,null,img/planet1_left.png,1,Community 3,NA,FALSE,null,f,NA,NA,NA,11,8,"10,7,12,5,3,2,15,6,9,11,1,14,8,13,4"
14612,commdev-image-keyboard-response,342,793020,learnblock1,null,img/planet13_right.png,13,Community 3,NA,FALSE,null,j,NA,NA,NA,11,8,"10,7,12,5,3,2,15,6,9,11,1,14,8,13,4"
14612,commdev-image-keyboard-response,343,794271,learnblock1,null,img/planet14_right.png,14,Community 3,NA,FALSE,null,j,NA,NA,NA,11,8,"10,7,12,5,3,2,15,6,9,11,1,14,8,13,4"
14612,commdev-image-keyboard-response,344,795523,learnblock1,null,img/planet4_right.png,4,Community 3,NA,FALSE,null,j,NA,NA,NA,11,8,"10,7,12,5,3,2,15,6,9,11,1,14,8,13,4"
14612,commdev-image-keyboard-response,345,796774,learnblock1,null,img/planet14_left.png,14,Community 3,NA,FALSE,null,f,NA,NA,NA,11,8,"10,7,12,5,3,2,15,6,9,11,1,14,8,13,4"
14612,commdev-image-keyboard-response,346,798025,learnblock1,null,img/planet13_right.png,13,Community 3,NA,FALSE,null,j,NA,NA,NA,11,8,"10,7,12,5,3,2,15,6,9,11,1,14,8,13,4"
14612,commdev-image-keyboard-response,347,799276,learnblock1,null,img/planet4_right.png,4,Community 3,NA,FALSE,null,j,NA,NA,NA,11,8,"10,7,12,5,3,2,15,6,9,11,1,14,8,13,4"
14612,commdev-image-keyboard-response,351,870183,learnblock2,1129.9000000003725,img/planet7_right.png,7,Community 1,NA,FALSE,f,j,NA,NA,NA,11,8,"10,7,12,5,3,2,15,6,9,11,1,14,8,13,4"
14612,commdev-image-keyboard-response,352,871434,learnblock2,273,img/planet12_right.png,12,Community 1,NA,FALSE,f,j,NA,NA,NA,11,8,"10,7,12,5,3,2,15,6,9,11,1,14,8,13,4"
14612,commdev-image-keyboard-response,353,872686,learnblock2,57.5,img/planet10_right.png,10,Community 1,NA,FALSE,f,j,NA,NA,NA,11,8,"10,7,12,5,3,2,15,6,9,11,1,14,8,13,4"
14612,commdev-image-keyboard-response,354,873938,learnblock2,130.59999999962747,img/planet12_right.png,12,Community 1,NA,FALSE,f,j,NA,NA,NA,11,8,"10,7,12,5,3,2,15,6,9,11,1,14,8,13,4"
14612,commdev-image-keyboard-response,355,875190,learnblock2,125.69999999925494,img/planet10_left.png,10,Community 1,NA,TRUE,f,f,NA,NA,NA,11,8,"10,7,12,5,3,2,15,6,9,11,1,14,8,13,4"
14612,commdev-image-keyboard-response,356,876441,learnblock2,247.2000000011176,img/planet7_right.png,7,Community 1,NA,TRUE,j,j,NA,NA,NA,11,8,"10,7,12,5,3,2,15,6,9,11,1,14,8,13,4"
14612,commdev-image-keyboard-response,357,877693,learnblock2,82.90000000037253,img/planet10_right.png,10,Community 1,NA,FALSE,f,j,NA,NA,NA,11,8,"10,7,12,5,3,2,15,6,9,11,1,14,8,13,4"
14612,commdev-image-keyboard-response,358,878944,learnblock2,90.19999999925494,img/planet5_left.png,5,Community 1,NA,FALSE,j,f,NA,NA,NA,11,8,"10,7,12,5,3,2,15,6,9,11,1,14,8,13,4"
14612,commdev-image-keyboard-response,359,880195,learnblock2,117.5,img/planet2_left.png,2,Community 2,NA,TRUE,f,f,NA,NA,NA,11,8,"10,7,12,5,3,2,15,6,9,11,1,14,8,13,4"
14612,commdev-image-keyboard-response,360,881447,learnblock2,290.2999999988824,img/planet15_right.png,15,Community 2,NA,FALSE,f,j,NA,NA,NA,11,8,"10,7,12,5,3,2,15,6,9,11,1,14,8,13,4"
14612,commdev-image-keyboard-response,361,882699,learnblock2,77.90000000037253,img/planet9_left.png,9,Community 2,NA,FALSE,j,f,NA,NA,NA,11,8,"10,7,12,5,3,2,15,6,9,11,1,14,8,13,4"
14612,commdev-image-keyboard-response,362,883951,learnblock2,205.09999999962747,img/planet11_right.png,11,Community 2,NA,TRUE,j,j,NA,NA,NA,11,8,"10,7,12,5,3,2,15,6,9,11,1,14,8,13,4"
14612,commdev-image-keyboard-response,363,885203,learnblock2,245.7000000011176,img/planet9_left.png,9,Community 2,NA,FALSE,j,f,NA,NA,NA,11,8,"10,7,12,5,3,2,15,6,9,11,1,14,8,13,4"
14612,commdev-image-keyboard-response,364,886454,learnblock2,105.20000000111759,img/planet6_left.png,6,Community 2,NA,FALSE,j,f,NA,NA,NA,11,8,"10,7,12,5,3,2,15,6,9,11,1,14,8,13,4"
14612,commdev-image-keyboard-response,365,887705,learnblock2,118.5,img/planet15_left.png,15,Community 2,NA,FALSE,j,f,NA,NA,NA,11,8,"10,7,12,5,3,2,15,6,9,11,1,14,8,13,4"
14612,commdev-image-keyboard-response,366,888957,learnblock2,14,img/planet11_right.png,11,Community 2,NA,TRUE,j,j,NA,NA,NA,11,8,"10,7,12,5,3,2,15,6,9,11,1,14,8,13,4"
14612,commdev-image-keyboard-response,367,890208,learnblock2,434.5,img/planet2_right.png,2,Community 2,NA,TRUE,j,j,NA,NA,NA,11,8,"10,7,12,5,3,2,15,6,9,11,1,14,8,13,4"
14612,commdev-image-keyboard-response,368,891459,learnblock2,327.6000000014901,img/planet11_right.png,11,Community 2,NA,TRUE,j,j,NA,NA,NA,11,8,"10,7,12,5,3,2,15,6,9,11,1,14,8,13,4"
14612,commdev-image-keyboard-response,369,892711,learnblock2,19.40000000037253,img/planet2_left.png,2,Community 2,NA,FALSE,j,f,NA,NA,NA,11,8,"10,7,12,5,3,2,15,6,9,11,1,14,8,13,4"
14612,commdev-image-keyboard-response,370,893962,learnblock2,241.7000000011176,img/planet11_right.png,11,Community 2,NA,TRUE,j,j,NA,NA,NA,11,8,"10,7,12,5,3,2,15,6,9,11,1,14,8,13,4"
14612,commdev-image-keyboard-response,371,895214,learnblock2,249.80000000074506,img/planet15_right.png,15,Community 2,NA,TRUE,j,j,NA,NA,NA,11,8,"10,7,12,5,3,2,15,6,9,11,1,14,8,13,4"
14612,commdev-image-keyboard-response,372,896465,learnblock2,null,img/planet9_left.png,9,Community 2,NA,FALSE,null,f,NA,NA,NA,11,8,"10,7,12,5,3,2,15,6,9,11,1,14,8,13,4"
14612,commdev-image-keyboard-response,373,897716,learnblock2,53.20000000111759,img/planet15_right.png,15,Community 2,NA,TRUE,j,j,NA,NA,NA,11,8,"10,7,12,5,3,2,15,6,9,11,1,14,8,13,4"
14612,commdev-image-keyboard-response,374,898967,learnblock2,null,img/planet11_left.png,11,Community 2,NA,FALSE,null,f,NA,NA,NA,11,8,"10,7,12,5,3,2,15,6,9,11,1,14,8,13,4"
14612,commdev-image-keyboard-response,375,900219,learnblock2,null,img/planet15_right.png,15,Community 2,NA,FALSE,null,j,NA,NA,NA,11,8,"10,7,12,5,3,2,15,6,9,11,1,14,8,13,4"
14612,commdev-image-keyboard-response,376,901470,learnblock2,null,img/planet2_left.png,2,Community 2,NA,FALSE,null,f,NA,NA,NA,11,8,"10,7,12,5,3,2,15,6,9,11,1,14,8,13,4"
14612,commdev-image-keyboard-response,377,902721,learnblock2,529.7999999988824,img/planet11_left.png,11,Community 2,NA,FALSE,j,f,NA,NA,NA,11,8,"10,7,12,5,3,2,15,6,9,11,1,14,8,13,4"
14612,commdev-image-keyboard-response,378,903973,learnblock2,90.29999999888241,img/planet15_left.png,15,Community 2,NA,FALSE,j,f,NA,NA,NA,11,8,"10,7,12,5,3,2,15,6,9,11,1,14,8,13,4"
14612,commdev-image-keyboard-response,379,905224,learnblock2,63.90000000037253,img/planet11_left.png,11,Community 2,NA,FALSE,j,f,NA,NA,NA,11,8,"10,7,12,5,3,2,15,6,9,11,1,14,8,13,4"
14612,commdev-image-keyboard-response,380,906475,learnblock2,199.30000000074506,img/planet9_right.png,9,Community 2,NA,TRUE,j,j,NA,NA,NA,11,8,"10,7,12,5,3,2,15,6,9,11,1,14,8,13,4"
14612,commdev-image-keyboard-response,381,907726,learnblock2,928.5999999996275,img/planet2_left.png,2,Community 2,NA,FALSE,j,f,NA,NA,NA,11,8,"10,7,12,5,3,2,15,6,9,11,1,14,8,13,4"
14612,commdev-image-keyboard-response,382,908978,learnblock2,104.90000000037253,img/planet5_left.png,5,Community 1,NA,TRUE,f,f,NA,NA,NA,11,8,"10,7,12,5,3,2,15,6,9,11,1,14,8,13,4"
14612,commdev-image-keyboard-response,383,910233,learnblock2,534.3000000007451,img/planet2_left.png,2,Community 2,NA,TRUE,f,f,NA,NA,NA,11,8,"10,7,12,5,3,2,15,6,9,11,1,14,8,13,4"
14612,commdev-image-keyboard-response,384,911484,learnblock2,179,img/planet5_right.png,5,Community 1,NA,TRUE,j,j,NA,NA,NA,11,8,"10,7,12,5,3,2,15,6,9,11,1,14,8,13,4"
14612,commdev-image-keyboard-response,385,912735,learnblock2,148.09999999962747,img/planet12_right.png,12,Community 1,NA,FALSE,f,j,NA,NA,NA,11,8,"10,7,12,5,3,2,15,6,9,11,1,14,8,13,4"
14612,commdev-image-keyboard-response,386,913987,learnblock2,null,img/planet3_right.png,3,Community 1,NA,FALSE,null,j,NA,NA,NA,11,8,"10,7,12,5,3,2,15,6,9,11,1,14,8,13,4"
14612,commdev-image-keyboard-response,387,915238,learnblock2,null,img/planet10_right.png,10,Community 1,NA,FALSE,null,j,NA,NA,NA,11,8,"10,7,12,5,3,2,15,6,9,11,1,14,8,13,4"
14612,commdev-image-keyboard-response,388,916490,learnblock2,903.5999999996275,img/planet3_left.png,3,Community 1,NA,FALSE,j,f,NA,NA,NA,11,8,"10,7,12,5,3,2,15,6,9,11,1,14,8,13,4"
14612,commdev-image-keyboard-response,389,917741,learnblock2,45.59999999962747,img/planet7_right.png,7,Community 1,NA,FALSE,f,j,NA,NA,NA,11,8,"10,7,12,5,3,2,15,6,9,11,1,14,8,13,4"
14612,commdev-image-keyboard-response,390,918993,learnblock2,null,img/planet12_right.png,12,Community 1,NA,FALSE,null,j,NA,NA,NA,11,8,"10,7,12,5,3,2,15,6,9,11,1,14,8,13,4"
14612,commdev-image-keyboard-response,391,920244,learnblock2,657.6000000014901,img/planet3_right.png,3,Community 1,NA,TRUE,j,j,NA,NA,NA,11,8,"10,7,12,5,3,2,15,6,9,11,1,14,8,13,4"
14612,commdev-image-keyboard-response,392,921495,learnblock2,73.19999999925494,img/planet10_left.png,10,Community 1,NA,FALSE,j,f,NA,NA,NA,11,8,"10,7,12,5,3,2,15,6,9,11,1,14,8,13,4"
14612,commdev-image-keyboard-response,393,922747,learnblock2,101.40000000037253,img/planet7_left.png,7,Community 1,NA,FALSE,j,f,NA,NA,NA,11,8,"10,7,12,5,3,2,15,6,9,11,1,14,8,13,4"
14612,commdev-image-keyboard-response,394,923999,learnblock2,null,img/planet10_right.png,10,Community 1,NA,FALSE,null,j,NA,NA,NA,11,8,"10,7,12,5,3,2,15,6,9,11,1,14,8,13,4"
14612,commdev-image-keyboard-response,395,925251,learnblock2,null,img/planet5_right.png,5,Community 1,NA,FALSE,null,j,NA,NA,NA,11,8,"10,7,12,5,3,2,15,6,9,11,1,14,8,13,4"
14612,commdev-image-keyboard-response,396,926503,learnblock2,null,img/planet12_right.png,12,Community 1,NA,FALSE,null,j,NA,NA,NA,11,8,"10,7,12,5,3,2,15,6,9,11,1,14,8,13,4"
14612,commdev-image-keyboard-response,397,927754,learnblock2,96.90000000037253,img/planet10_left.png,10,Community 1,NA,FALSE,j,f,NA,NA,NA,11,8,"10,7,12,5,3,2,15,6,9,11,1,14,8,13,4"
14612,commdev-image-keyboard-response,398,929006,learnblock2,467,img/planet7_left.png,7,Community 1,NA,FALSE,j,f,NA,NA,NA,11,8,"10,7,12,5,3,2,15,6,9,11,1,14,8,13,4"
14612,commdev-image-keyboard-response,399,930258,learnblock2,139.5,img/planet12_right.png,12,Community 1,NA,FALSE,f,j,NA,NA,NA,11,8,"10,7,12,5,3,2,15,6,9,11,1,14,8,13,4"
14612,commdev-image-keyboard-response,400,931510,learnblock2,172.89999999850988,img/planet7_left.png,7,Community 1,NA,FALSE,j,f,NA,NA,NA,11,8,"10,7,12,5,3,2,15,6,9,11,1,14,8,13,4"
14612,commdev-image-keyboard-response,401,932762,learnblock2,92.80000000074506,img/planet5_right.png,5,Community 1,NA,TRUE,j,j,NA,NA,NA,11,8,"10,7,12,5,3,2,15,6,9,11,1,14,8,13,4"
14612,commdev-image-keyboard-response,402,934013,learnblock2,155,img/planet12_left.png,12,Community 1,NA,TRUE,f,f,NA,NA,NA,11,8,"10,7,12,5,3,2,15,6,9,11,1,14,8,13,4"
14612,commdev-image-keyboard-response,403,935265,learnblock2,4.699999999254942,img/planet7_left.png,7,Community 1,NA,FALSE,j,f,NA,NA,NA,11,8,"10,7,12,5,3,2,15,6,9,11,1,14,8,13,4"
14612,commdev-image-keyboard-response,404,936517,learnblock2,22.600000001490116,img/planet5_right.png,5,Community 1,NA,FALSE,f,j,NA,NA,NA,11,8,"10,7,12,5,3,2,15,6,9,11,1,14,8,13,4"
14612,commdev-image-keyboard-response,405,937768,learnblock2,225.09999999962747,img/planet2_left.png,2,Community 2,NA,FALSE,j,f,NA,NA,NA,11,8,"10,7,12,5,3,2,15,6,9,11,1,14,8,13,4"
14612,commdev-image-keyboard-response,406,939020,learnblock2,127.70000000111759,img/planet5_right.png,5,Community 1,NA,FALSE,f,j,NA,NA,NA,11,8,"10,7,12,5,3,2,15,6,9,11,1,14,8,13,4"
14612,commdev-image-keyboard-response,407,940271,learnblock2,144.80000000074506,img/planet7_left.png,7,Community 1,NA,FALSE,j,f,NA,NA,NA,11,8,"10,7,12,5,3,2,15,6,9,11,1,14,8,13,4"
14612,commdev-image-keyboard-response,408,941523,learnblock2,200.90000000037253,img/planet3_right.png,3,Community 1,NA,TRUE,j,j,NA,NA,NA,11,8,"10,7,12,5,3,2,15,6,9,11,1,14,8,13,4"
14612,commdev-image-keyboard-response,409,942774,learnblock2,265.5,img/planet1_right.png,1,Community 3,NA,TRUE,j,j,NA,NA,NA,11,8,"10,7,12,5,3,2,15,6,9,11,1,14,8,13,4"
14612,commdev-image-keyboard-response,410,944025,learnblock2,149.7000000011176,img/planet3_left.png,3,Community 1,NA,TRUE,f,f,NA,NA,NA,11,8,"10,7,12,5,3,2,15,6,9,11,1,14,8,13,4"
14612,commdev-image-keyboard-response,411,945277,learnblock2,86,img/planet1_right.png,1,Community 3,NA,TRUE,j,j,NA,NA,NA,11,8,"10,7,12,5,3,2,15,6,9,11,1,14,8,13,4"
14612,commdev-image-keyboard-response,412,946529,learnblock2,236.60000000149012,img/planet3_left.png,3,Community 1,NA,FALSE,j,f,NA,NA,NA,11,8,"10,7,12,5,3,2,15,6,9,11,1,14,8,13,4"
14612,commdev-image-keyboard-response,413,947780,learnblock2,161.5,img/planet12_left.png,12,Community 1,NA,FALSE,j,f,NA,NA,NA,11,8,"10,7,12,5,3,2,15,6,9,11,1,14,8,13,4"
14612,commdev-image-keyboard-response,414,949031,learnblock2,null,img/planet10_left.png,10,Community 1,NA,FALSE,null,f,NA,NA,NA,11,8,"10,7,12,5,3,2,15,6,9,11,1,14,8,13,4"
14612,commdev-image-keyboard-response,415,950283,learnblock2,810.4000000003725,img/planet5_right.png,5,Community 1,NA,TRUE,j,j,NA,NA,NA,11,8,"10,7,12,5,3,2,15,6,9,11,1,14,8,13,4"
14612,commdev-image-keyboard-response,416,951535,learnblock2,508.7999999988824,img/planet10_left.png,10,Community 1,NA,FALSE,j,f,NA,NA,NA,11,8,"10,7,12,5,3,2,15,6,9,11,1,14,8,13,4"
14612,commdev-image-keyboard-response,417,952787,learnblock2,1078.7999999988824,img/planet7_left.png,7,Community 1,NA,FALSE,j,f,NA,NA,NA,11,8,"10,7,12,5,3,2,15,6,9,11,1,14,8,13,4"
14612,commdev-image-keyboard-response,418,954038,learnblock2,400,img/planet5_left.png,5,Community 1,NA,FALSE,j,f,NA,NA,NA,11,8,"10,7,12,5,3,2,15,6,9,11,1,14,8,13,4"
14612,commdev-image-keyboard-response,419,955290,learnblock2,115.5,img/planet12_right.png,12,Community 1,NA,TRUE,j,j,NA,NA,NA,11,8,"10,7,12,5,3,2,15,6,9,11,1,14,8,13,4"
14612,commdev-image-keyboard-response,420,956542,learnblock2,49.30000000074506,img/planet5_right.png,5,Community 1,NA,TRUE,j,j,NA,NA,NA,11,8,"10,7,12,5,3,2,15,6,9,11,1,14,8,13,4"
14612,commdev-image-keyboard-response,421,957794,learnblock2,591.5,img/planet2_right.png,2,Community 2,NA,TRUE,j,j,NA,NA,NA,11,8,"10,7,12,5,3,2,15,6,9,11,1,14,8,13,4"
14612,commdev-image-keyboard-response,422,959045,learnblock2,58,img/planet9_left.png,9,Community 2,NA,FALSE,j,f,NA,NA,NA,11,8,"10,7,12,5,3,2,15,6,9,11,1,14,8,13,4"
14612,commdev-image-keyboard-response,423,960296,learnblock2,294.09999999962747,img/planet15_left.png,15,Community 2,NA,TRUE,f,f,NA,NA,NA,11,8,"10,7,12,5,3,2,15,6,9,11,1,14,8,13,4"
14612,commdev-image-keyboard-response,424,961548,learnblock2,28.800000000745058,img/planet9_left.png,9,Community 2,NA,FALSE,j,f,NA,NA,NA,11,8,"10,7,12,5,3,2,15,6,9,11,1,14,8,13,4"
14612,commdev-image-keyboard-response,425,962799,learnblock2,68,img/planet11_right.png,11,Community 2,NA,TRUE,j,j,NA,NA,NA,11,8,"10,7,12,5,3,2,15,6,9,11,1,14,8,13,4"
14612,commdev-image-keyboard-response,426,964050,learnblock2,76.59999999962747,img/planet6_right.png,6,Community 2,NA,TRUE,j,j,NA,NA,NA,11,8,"10,7,12,5,3,2,15,6,9,11,1,14,8,13,4"
14612,commdev-image-keyboard-response,427,965301,learnblock2,549.4000000003725,img/planet9_left.png,9,Community 2,NA,FALSE,j,f,NA,NA,NA,11,8,"10,7,12,5,3,2,15,6,9,11,1,14,8,13,4"
14612,commdev-image-keyboard-response,428,966553,learnblock2,356.8999999985099,img/planet15_left.png,15,Community 2,NA,FALSE,j,f,NA,NA,NA,11,8,"10,7,12,5,3,2,15,6,9,11,1,14,8,13,4"
14612,commdev-image-keyboard-response,429,967805,learnblock2,216.19999999925494,img/planet6_left.png,6,Community 2,NA,TRUE,f,f,NA,NA,NA,11,8,"10,7,12,5,3,2,15,6,9,11,1,14,8,13,4"
14612,commdev-image-keyboard-response,430,969056,learnblock2,15.199999999254942,img/planet11_right.png,11,Community 2,NA,TRUE,j,j,NA,NA,NA,11,8,"10,7,12,5,3,2,15,6,9,11,1,14,8,13,4"
14612,commdev-image-keyboard-response,431,970308,learnblock2,null,img/planet2_right.png,2,Community 2,NA,FALSE,null,j,NA,NA,NA,11,8,"10,7,12,5,3,2,15,6,9,11,1,14,8,13,4"
14612,commdev-image-keyboard-response,432,971559,learnblock2,null,img/planet11_left.png,11,Community 2,NA,FALSE,null,f,NA,NA,NA,11,8,"10,7,12,5,3,2,15,6,9,11,1,14,8,13,4"
14612,commdev-image-keyboard-response,433,972811,learnblock2,null,img/planet6_left.png,6,Community 2,NA,FALSE,null,f,NA,NA,NA,11,8,"10,7,12,5,3,2,15,6,9,11,1,14,8,13,4"
14612,commdev-image-keyboard-response,434,974062,learnblock2,null,img/planet14_left.png,14,Community 3,NA,FALSE,null,f,NA,NA,NA,11,8,"10,7,12,5,3,2,15,6,9,11,1,14,8,13,4"
14612,commdev-image-keyboard-response,435,975314,learnblock2,null,img/planet13_left.png,13,Community 3,NA,FALSE,null,f,NA,NA,NA,11,8,"10,7,12,5,3,2,15,6,9,11,1,14,8,13,4"
14612,commdev-image-keyboard-response,436,976565,learnblock2,null,img/planet4_left.png,4,Community 3,NA,FALSE,null,f,NA,NA,NA,11,8,"10,7,12,5,3,2,15,6,9,11,1,14,8,13,4"
14612,commdev-image-keyboard-response,437,977816,learnblock2,null,img/planet1_left.png,1,Community 3,NA,FALSE,null,f,NA,NA,NA,11,8,"10,7,12,5,3,2,15,6,9,11,1,14,8,13,4"
14612,commdev-image-keyboard-response,438,979067,learnblock2,null,img/planet13_right.png,13,Community 3,NA,FALSE,null,j,NA,NA,NA,11,8,"10,7,12,5,3,2,15,6,9,11,1,14,8,13,4"
14612,commdev-image-keyboard-response,439,980318,learnblock2,344.19999999925494,img/planet1_right.png,1,Community 3,NA,TRUE,j,j,NA,NA,NA,11,8,"10,7,12,5,3,2,15,6,9,11,1,14,8,13,4"
14612,commdev-image-keyboard-response,440,981570,learnblock2,null,img/planet3_right.png,3,Community 1,NA,FALSE,null,j,NA,NA,NA,11,8,"10,7,12,5,3,2,15,6,9,11,1,14,8,13,4"
14612,commdev-image-keyboard-response,441,982821,learnblock2,278.59999999962747,img/planet10_left.png,10,Community 1,NA,TRUE,f,f,NA,NA,NA,11,8,"10,7,12,5,3,2,15,6,9,11,1,14,8,13,4"
14612,commdev-image-keyboard-response,442,984073,learnblock2,588.7000000011176,img/planet3_right.png,3,Community 1,NA,TRUE,j,j,NA,NA,NA,11,8,"10,7,12,5,3,2,15,6,9,11,1,14,8,13,4"
14612,commdev-image-keyboard-response,443,985325,learnblock2,510.19999999925494,img/planet1_left.png,1,Community 3,NA,FALSE,j,f,NA,NA,NA,11,8,"10,7,12,5,3,2,15,6,9,11,1,14,8,13,4"
14612,commdev-image-keyboard-response,444,986576,learnblock2,828.4000000003725,img/planet3_left.png,3,Community 1,NA,TRUE,f,f,NA,NA,NA,11,8,"10,7,12,5,3,2,15,6,9,11,1,14,8,13,4"
14612,commdev-image-keyboard-response,445,987827,learnblock2,823.8999999985099,img/planet1_left.png,1,Community 3,NA,TRUE,f,f,NA,NA,NA,11,8,"10,7,12,5,3,2,15,6,9,11,1,14,8,13,4"
14612,commdev-image-keyboard-response,446,989080,learnblock2,527,img/planet4_right.png,4,Community 3,NA,FALSE,f,j,NA,NA,NA,11,8,"10,7,12,5,3,2,15,6,9,11,1,14,8,13,4"
14612,commdev-image-keyboard-response,447,990332,learnblock2,null,img/planet1_right.png,1,Community 3,NA,FALSE,null,j,NA,NA,NA,11,8,"10,7,12,5,3,2,15,6,9,11,1,14,8,13,4"
14612,commdev-image-keyboard-response,448,991584,learnblock2,null,img/planet3_right.png,3,Community 1,NA,FALSE,null,j,NA,NA,NA,11,8,"10,7,12,5,3,2,15,6,9,11,1,14,8,13,4"
14612,commdev-image-keyboard-response,449,992835,learnblock2,null,img/planet1_left.png,1,Community 3,NA,FALSE,null,f,NA,NA,NA,11,8,"10,7,12,5,3,2,15,6,9,11,1,14,8,13,4"
14612,commdev-image-keyboard-response,450,994086,learnblock2,null,img/planet13_right.png,13,Community 3,NA,FALSE,null,j,NA,NA,NA,11,8,"10,7,12,5,3,2,15,6,9,11,1,14,8,13,4"
14612,commdev-image-keyboard-response,451,995338,learnblock2,null,img/planet1_right.png,1,Community 3,NA,FALSE,null,j,NA,NA,NA,11,8,"10,7,12,5,3,2,15,6,9,11,1,14,8,13,4"
14612,commdev-image-keyboard-response,452,996589,learnblock2,307.30000000074506,img/planet4_right.png,4,Community 3,NA,TRUE,j,j,NA,NA,NA,11,8,"10,7,12,5,3,2,15,6,9,11,1,14,8,13,4"
14612,commdev-image-keyboard-response,453,997841,learnblock2,null,img/planet14_right.png,14,Community 3,NA,FALSE,null,j,NA,NA,NA,11,8,"10,7,12,5,3,2,15,6,9,11,1,14,8,13,4"
14612,commdev-image-keyboard-response,454,999092,learnblock2,null,img/planet6_left.png,6,Community 2,NA,FALSE,null,f,NA,NA,NA,11,8,"10,7,12,5,3,2,15,6,9,11,1,14,8,13,4"
14612,commdev-image-keyboard-response,455,1000344,learnblock2,null,img/planet14_left.png,14,Community 3,NA,FALSE,null,f,NA,NA,NA,11,8,"10,7,12,5,3,2,15,6,9,11,1,14,8,13,4"
14612,commdev-image-keyboard-response,456,1001596,learnblock2,null,img/planet4_left.png,4,Community 3,NA,FALSE,null,f,NA,NA,NA,11,8,"10,7,12,5,3,2,15,6,9,11,1,14,8,13,4"
14612,commdev-image-keyboard-response,457,1002848,learnblock2,null,img/planet8_right.png,8,Community 3,NA,FALSE,null,j,NA,NA,NA,11,8,"10,7,12,5,3,2,15,6,9,11,1,14,8,13,4"
14612,commdev-image-keyboard-response,458,1004099,learnblock2,null,img/planet1_right.png,1,Community 3,NA,FALSE,null,j,NA,NA,NA,11,8,"10,7,12,5,3,2,15,6,9,11,1,14,8,13,4"
14612,commdev-image-keyboard-response,459,1005350,learnblock2,null,img/planet13_right.png,13,Community 3,NA,FALSE,null,j,NA,NA,NA,11,8,"10,7,12,5,3,2,15,6,9,11,1,14,8,13,4"
14612,commdev-image-keyboard-response,460,1006601,learnblock2,null,img/planet1_left.png,1,Community 3,NA,FALSE,null,f,NA,NA,NA,11,8,"10,7,12,5,3,2,15,6,9,11,1,14,8,13,4"
14612,commdev-image-keyboard-response,461,1007853,learnblock2,null,img/planet13_right.png,13,Community 3,NA,FALSE,null,j,NA,NA,NA,11,8,"10,7,12,5,3,2,15,6,9,11,1,14,8,13,4"
14612,commdev-image-keyboard-response,462,1009104,learnblock2,null,img/planet1_right.png,1,Community 3,NA,FALSE,null,j,NA,NA,NA,11,8,"10,7,12,5,3,2,15,6,9,11,1,14,8,13,4"
14612,commdev-image-keyboard-response,463,1010356,learnblock2,null,img/planet13_right.png,13,Community 3,NA,FALSE,null,j,NA,NA,NA,11,8,"10,7,12,5,3,2,15,6,9,11,1,14,8,13,4"
14612,commdev-image-keyboard-response,464,1011607,learnblock2,null,img/planet8_left.png,8,Community 3,NA,FALSE,null,f,NA,NA,NA,11,8,"10,7,12,5,3,2,15,6,9,11,1,14,8,13,4"
14612,commdev-image-keyboard-response,465,1012858,learnblock2,null,img/planet1_right.png,1,Community 3,NA,FALSE,null,j,NA,NA,NA,11,8,"10,7,12,5,3,2,15,6,9,11,1,14,8,13,4"
14612,commdev-image-keyboard-response,466,1014110,learnblock2,null,img/planet8_right.png,8,Community 3,NA,FALSE,null,j,NA,NA,NA,11,8,"10,7,12,5,3,2,15,6,9,11,1,14,8,13,4"
14612,commdev-image-keyboard-response,467,1015362,learnblock2,null,img/planet13_left.png,13,Community 3,NA,FALSE,null,f,NA,NA,NA,11,8,"10,7,12,5,3,2,15,6,9,11,1,14,8,13,4"
14612,commdev-image-keyboard-response,468,1016613,learnblock2,null,img/planet8_right.png,8,Community 3,NA,FALSE,null,j,NA,NA,NA,11,8,"10,7,12,5,3,2,15,6,9,11,1,14,8,13,4"
14612,commdev-image-keyboard-response,469,1017865,learnblock2,null,img/planet14_left.png,14,Community 3,NA,FALSE,null,f,NA,NA,NA,11,8,"10,7,12,5,3,2,15,6,9,11,1,14,8,13,4"
14612,commdev-image-keyboard-response,470,1019116,learnblock2,null,img/planet8_left.png,8,Community 3,NA,FALSE,null,f,NA,NA,NA,11,8,"10,7,12,5,3,2,15,6,9,11,1,14,8,13,4"
14612,commdev-image-keyboard-response,471,1020367,learnblock2,null,img/planet1_left.png,1,Community 3,NA,FALSE,null,f,NA,NA,NA,11,8,"10,7,12,5,3,2,15,6,9,11,1,14,8,13,4"
14612,commdev-image-keyboard-response,472,1021619,learnblock2,null,img/planet8_right.png,8,Community 3,NA,FALSE,null,j,NA,NA,NA,11,8,"10,7,12,5,3,2,15,6,9,11,1,14,8,13,4"
14612,commdev-image-keyboard-response,473,1022871,learnblock2,null,img/planet14_left.png,14,Community 3,NA,FALSE,null,f,NA,NA,NA,11,8,"10,7,12,5,3,2,15,6,9,11,1,14,8,13,4"
14612,commdev-image-keyboard-response,474,1024122,learnblock2,null,img/planet4_right.png,4,Community 3,NA,FALSE,null,j,NA,NA,NA,11,8,"10,7,12,5,3,2,15,6,9,11,1,14,8,13,4"
14612,commdev-image-keyboard-response,475,1025374,learnblock2,null,img/planet13_right.png,13,Community 3,NA,FALSE,null,j,NA,NA,NA,11,8,"10,7,12,5,3,2,15,6,9,11,1,14,8,13,4"
14612,commdev-image-keyboard-response,476,1026626,learnblock2,null,img/planet14_right.png,14,Community 3,NA,FALSE,null,j,NA,NA,NA,11,8,"10,7,12,5,3,2,15,6,9,11,1,14,8,13,4"
14612,commdev-image-keyboard-response,477,1027878,learnblock2,null,img/planet6_left.png,6,Community 2,NA,FALSE,null,f,NA,NA,NA,11,8,"10,7,12,5,3,2,15,6,9,11,1,14,8,13,4"
14612,commdev-image-keyboard-response,478,1029129,learnblock2,null,img/planet11_right.png,11,Community 2,NA,FALSE,null,j,NA,NA,NA,11,8,"10,7,12,5,3,2,15,6,9,11,1,14,8,13,4"
14612,commdev-image-keyboard-response,479,1030382,learnblock2,null,img/planet6_left.png,6,Community 2,NA,FALSE,null,f,NA,NA,NA,11,8,"10,7,12,5,3,2,15,6,9,11,1,14,8,13,4"
14612,commdev-image-keyboard-response,480,1031633,learnblock2,null,img/planet11_right.png,11,Community 2,NA,FALSE,null,j,NA,NA,NA,11,8,"10,7,12,5,3,2,15,6,9,11,1,14,8,13,4"
14612,commdev-image-keyboard-response,481,1032885,learnblock2,null,img/planet6_right.png,6,Community 2,NA,FALSE,null,j,NA,NA,NA,11,8,"10,7,12,5,3,2,15,6,9,11,1,14,8,13,4"
14612,commdev-image-keyboard-response,482,1034136,learnblock2,null,img/planet14_left.png,14,Community 3,NA,FALSE,null,f,NA,NA,NA,11,8,"10,7,12,5,3,2,15,6,9,11,1,14,8,13,4"
14612,commdev-image-keyboard-response,483,1035388,learnblock2,null,img/planet13_right.png,13,Community 3,NA,FALSE,null,j,NA,NA,NA,11,8,"10,7,12,5,3,2,15,6,9,11,1,14,8,13,4"
14612,commdev-image-keyboard-response,484,1036640,learnblock2,null,img/planet1_left.png,1,Community 3,NA,FALSE,null,f,NA,NA,NA,11,8,"10,7,12,5,3,2,15,6,9,11,1,14,8,13,4"
14612,commdev-image-keyboard-response,485,1037892,learnblock2,null,img/planet3_right.png,3,Community 1,NA,FALSE,null,j,NA,NA,NA,11,8,"10,7,12,5,3,2,15,6,9,11,1,14,8,13,4"
14612,commdev-image-keyboard-response,486,1039144,learnblock2,null,img/planet10_right.png,10,Community 1,NA,FALSE,null,j,NA,NA,NA,11,8,"10,7,12,5,3,2,15,6,9,11,1,14,8,13,4"
14612,commdev-image-keyboard-response,487,1040396,learnblock2,null,img/planet3_right.png,3,Community 1,NA,FALSE,null,j,NA,NA,NA,11,8,"10,7,12,5,3,2,15,6,9,11,1,14,8,13,4"
14612,commdev-image-keyboard-response,488,1041648,learnblock2,null,img/planet1_right.png,1,Community 3,NA,FALSE,null,j,NA,NA,NA,11,8,"10,7,12,5,3,2,15,6,9,11,1,14,8,13,4"
14612,commdev-image-keyboard-response,489,1042900,learnblock2,null,img/planet3_left.png,3,Community 1,NA,FALSE,null,f,NA,NA,NA,11,8,"10,7,12,5,3,2,15,6,9,11,1,14,8,13,4"
14612,commdev-image-keyboard-response,490,1044152,learnblock2,null,img/planet12_right.png,12,Community 1,NA,FALSE,null,j,NA,NA,NA,11,8,"10,7,12,5,3,2,15,6,9,11,1,14,8,13,4"
14612,commdev-image-keyboard-response,491,1045403,learnblock2,null,img/planet3_left.png,3,Community 1,NA,FALSE,null,f,NA,NA,NA,11,8,"10,7,12,5,3,2,15,6,9,11,1,14,8,13,4"
14612,commdev-image-keyboard-response,492,1046655,learnblock2,null,img/planet12_right.png,12,Community 1,NA,FALSE,null,j,NA,NA,NA,11,8,"10,7,12,5,3,2,15,6,9,11,1,14,8,13,4"
14612,commdev-image-keyboard-response,493,1047907,learnblock2,null,img/planet10_right.png,10,Community 1,NA,FALSE,null,j,NA,NA,NA,11,8,"10,7,12,5,3,2,15,6,9,11,1,14,8,13,4"
14612,commdev-image-keyboard-response,494,1049159,learnblock2,null,img/planet7_right.png,7,Community 1,NA,FALSE,null,j,NA,NA,NA,11,8,"10,7,12,5,3,2,15,6,9,11,1,14,8,13,4"
14612,commdev-image-keyboard-response,495,1050410,learnblock2,null,img/planet12_left.png,12,Community 1,NA,FALSE,null,f,NA,NA,NA,11,8,"10,7,12,5,3,2,15,6,9,11,1,14,8,13,4"
14612,commdev-image-keyboard-response,496,1051661,learnblock2,null,img/planet7_right.png,7,Community 1,NA,FALSE,null,j,NA,NA,NA,11,8,"10,7,12,5,3,2,15,6,9,11,1,14,8,13,4"
14612,commdev-image-keyboard-response,497,1052913,learnblock2,null,img/planet5_right.png,5,Community 1,NA,FALSE,null,j,NA,NA,NA,11,8,"10,7,12,5,3,2,15,6,9,11,1,14,8,13,4"
14612,commdev-image-keyboard-response,498,1054165,learnblock2,null,img/planet2_right.png,2,Community 2,NA,FALSE,null,j,NA,NA,NA,11,8,"10,7,12,5,3,2,15,6,9,11,1,14,8,13,4"
14612,commdev-image-keyboard-response,499,1055417,learnblock2,null,img/planet15_right.png,15,Community 2,NA,FALSE,null,j,NA,NA,NA,11,8,"10,7,12,5,3,2,15,6,9,11,1,14,8,13,4"
14612,commdev-image-keyboard-response,500,1056668,learnblock2,null,img/planet9_right.png,9,Community 2,NA,FALSE,null,j,NA,NA,NA,11,8,"10,7,12,5,3,2,15,6,9,11,1,14,8,13,4"
14612,commdev-image-keyboard-response,501,1057920,learnblock2,null,img/planet2_left.png,2,Community 2,NA,FALSE,null,f,NA,NA,NA,11,8,"10,7,12,5,3,2,15,6,9,11,1,14,8,13,4"
14612,commdev-image-keyboard-response,502,1059171,learnblock2,null,img/planet5_right.png,5,Community 1,NA,FALSE,null,j,NA,NA,NA,11,8,"10,7,12,5,3,2,15,6,9,11,1,14,8,13,4"
14612,commdev-image-keyboard-response,503,1060423,learnblock2,null,img/planet7_left.png,7,Community 1,NA,FALSE,null,f,NA,NA,NA,11,8,"10,7,12,5,3,2,15,6,9,11,1,14,8,13,4"
14612,commdev-image-keyboard-response,504,1061675,learnblock2,null,img/planet3_left.png,3,Community 1,NA,FALSE,null,f,NA,NA,NA,11,8,"10,7,12,5,3,2,15,6,9,11,1,14,8,13,4"
14612,commdev-image-keyboard-response,505,1062926,learnblock2,null,img/planet7_left.png,7,Community 1,NA,FALSE,null,f,NA,NA,NA,11,8,"10,7,12,5,3,2,15,6,9,11,1,14,8,13,4"
14612,commdev-image-keyboard-response,506,1064178,learnblock2,254.90000000037253,img/planet3_right.png,3,Community 1,NA,FALSE,f,j,NA,NA,NA,11,8,"10,7,12,5,3,2,15,6,9,11,1,14,8,13,4"
14612,commdev-image-keyboard-response,507,1065429,learnblock2,682.9000000003725,img/planet1_right.png,1,Community 3,NA,FALSE,f,j,NA,NA,NA,11,8,"10,7,12,5,3,2,15,6,9,11,1,14,8,13,4"
14612,commdev-image-keyboard-response,508,1066681,learnblock2,1115.0999999996275,img/planet8_left.png,8,Community 3,NA,TRUE,f,f,NA,NA,NA,11,8,"10,7,12,5,3,2,15,6,9,11,1,14,8,13,4"
14612,commdev-image-keyboard-response,509,1067932,learnblock2,90,img/planet1_right.png,1,Community 3,NA,TRUE,j,j,NA,NA,NA,11,8,"10,7,12,5,3,2,15,6,9,11,1,14,8,13,4"
14612,commdev-image-keyboard-response,510,1069183,learnblock2,192.90000000037253,img/planet13_left.png,13,Community 3,NA,FALSE,j,f,NA,NA,NA,11,8,"10,7,12,5,3,2,15,6,9,11,1,14,8,13,4"
14612,commdev-image-keyboard-response,511,1070435,learnblock2,489.80000000074506,img/planet4_right.png,4,Community 3,NA,TRUE,j,j,NA,NA,NA,11,8,"10,7,12,5,3,2,15,6,9,11,1,14,8,13,4"
14612,commdev-image-keyboard-response,512,1071687,learnblock2,13,img/planet8_right.png,8,Community 3,NA,FALSE,f,j,NA,NA,NA,11,8,"10,7,12,5,3,2,15,6,9,11,1,14,8,13,4"
14612,commdev-image-keyboard-response,513,1072939,learnblock2,287.3999999985099,img/planet4_right.png,4,Community 3,NA,FALSE,f,j,NA,NA,NA,11,8,"10,7,12,5,3,2,15,6,9,11,1,14,8,13,4"
14612,commdev-image-keyboard-response,514,1074190,learnblock2,154.2999999988824,img/planet13_left.png,13,Community 3,NA,TRUE,f,f,NA,NA,NA,11,8,"10,7,12,5,3,2,15,6,9,11,1,14,8,13,4"
14612,commdev-image-keyboard-response,515,1075442,learnblock2,156,img/planet8_right.png,8,Community 3,NA,FALSE,f,j,NA,NA,NA,11,8,"10,7,12,5,3,2,15,6,9,11,1,14,8,13,4"
14612,commdev-image-keyboard-response,516,1076693,learnblock2,612.8000000007451,img/planet4_right.png,4,Community 3,NA,TRUE,j,j,NA,NA,NA,11,8,"10,7,12,5,3,2,15,6,9,11,1,14,8,13,4"
14612,commdev-image-keyboard-response,517,1077945,learnblock2,null,img/planet13_left.png,13,Community 3,NA,FALSE,null,f,NA,NA,NA,11,8,"10,7,12,5,3,2,15,6,9,11,1,14,8,13,4"
14612,commdev-image-keyboard-response,518,1079196,learnblock2,null,img/planet14_right.png,14,Community 3,NA,FALSE,null,j,NA,NA,NA,11,8,"10,7,12,5,3,2,15,6,9,11,1,14,8,13,4"
14612,commdev-image-keyboard-response,519,1080448,learnblock2,null,img/planet6_left.png,6,Community 2,NA,FALSE,null,f,NA,NA,NA,11,8,"10,7,12,5,3,2,15,6,9,11,1,14,8,13,4"
14612,commdev-image-keyboard-response,520,1081700,learnblock2,null,img/planet14_left.png,14,Community 3,NA,FALSE,null,f,NA,NA,NA,11,8,"10,7,12,5,3,2,15,6,9,11,1,14,8,13,4"
14612,commdev-image-keyboard-response,521,1082951,learnblock2,null,img/planet6_right.png,6,Community 2,NA,FALSE,null,j,NA,NA,NA,11,8,"10,7,12,5,3,2,15,6,9,11,1,14,8,13,4"
14612,commdev-image-keyboard-response,522,1084203,learnblock2,748.1999999992549,img/planet11_right.png,11,Community 2,NA,FALSE,f,j,NA,NA,NA,11,8,"10,7,12,5,3,2,15,6,9,11,1,14,8,13,4"
14612,commdev-image-keyboard-response,523,1085454,learnblock2,28.699999999254942,img/planet6_left.png,6,Community 2,NA,TRUE,f,f,NA,NA,NA,11,8,"10,7,12,5,3,2,15,6,9,11,1,14,8,13,4"
14612,commdev-image-keyboard-response,524,1086706,learnblock2,500.09999999962747,img/planet11_right.png,11,Community 2,NA,TRUE,j,j,NA,NA,NA,11,8,"10,7,12,5,3,2,15,6,9,11,1,14,8,13,4"
14612,commdev-image-keyboard-response,525,1087959,learnblock2,133.19999999925494,img/planet6_right.png,6,Community 2,NA,FALSE,f,j,NA,NA,NA,11,8,"10,7,12,5,3,2,15,6,9,11,1,14,8,13,4"
14612,commdev-image-keyboard-response,526,1089210,learnblock2,361.5,img/planet11_left.png,11,Community 2,NA,TRUE,f,f,NA,NA,NA,11,8,"10,7,12,5,3,2,15,6,9,11,1,14,8,13,4"
14612,commdev-image-keyboard-response,527,1090462,learnblock2,210.89999999850988,img/planet9_left.png,9,Community 2,NA,FALSE,j,f,NA,NA,NA,11,8,"10,7,12,5,3,2,15,6,9,11,1,14,8,13,4"
14612,commdev-image-keyboard-response,528,1091713,learnblock2,21,img/planet6_right.png,6,Community 2,NA,FALSE,f,j,NA,NA,NA,11,8,"10,7,12,5,3,2,15,6,9,11,1,14,8,13,4"
14612,commdev-image-keyboard-response,529,1092964,learnblock2,528.4000000003725,img/planet11_right.png,11,Community 2,NA,TRUE,j,j,NA,NA,NA,11,8,"10,7,12,5,3,2,15,6,9,11,1,14,8,13,4"
14612,commdev-image-keyboard-response,530,1094216,learnblock2,191.69999999925494,img/planet2_left.png,2,Community 2,NA,TRUE,f,f,NA,NA,NA,11,8,"10,7,12,5,3,2,15,6,9,11,1,14,8,13,4"
14612,commdev-image-keyboard-response,531,1095467,learnblock2,310.30000000074506,img/planet15_left.png,15,Community 2,NA,TRUE,f,f,NA,NA,NA,11,8,"10,7,12,5,3,2,15,6,9,11,1,14,8,13,4"
14612,commdev-image-keyboard-response,532,1096719,learnblock2,1010.7000000011176,img/planet11_right.png,11,Community 2,NA,TRUE,j,j,NA,NA,NA,11,8,"10,7,12,5,3,2,15,6,9,11,1,14,8,13,4"
14612,commdev-image-keyboard-response,533,1097971,learnblock2,144.30000000074506,img/planet6_right.png,6,Community 2,NA,FALSE,f,j,NA,NA,NA,11,8,"10,7,12,5,3,2,15,6,9,11,1,14,8,13,4"
14612,commdev-image-keyboard-response,534,1099223,learnblock2,197.19999999925494,img/planet9_right.png,9,Community 2,NA,TRUE,j,j,NA,NA,NA,11,8,"10,7,12,5,3,2,15,6,9,11,1,14,8,13,4"
14612,commdev-image-keyboard-response,535,1100474,learnblock2,166.59999999962747,img/planet15_left.png,15,Community 2,NA,TRUE,f,f,NA,NA,NA,11,8,"10,7,12,5,3,2,15,6,9,11,1,14,8,13,4"
14612,commdev-image-keyboard-response,536,1101726,learnblock2,398.09999999962747,img/planet2_left.png,2,Community 2,NA,FALSE,j,f,NA,NA,NA,11,8,"10,7,12,5,3,2,15,6,9,11,1,14,8,13,4"
14612,commdev-image-keyboard-response,537,1102977,learnblock2,685.8000000007451,img/planet9_left.png,9,Community 2,NA,FALSE,j,f,NA,NA,NA,11,8,"10,7,12,5,3,2,15,6,9,11,1,14,8,13,4"
14612,commdev-image-keyboard-response,538,1104229,learnblock2,40.69999999925494,img/planet6_left.png,6,Community 2,NA,FALSE,j,f,NA,NA,NA,11,8,"10,7,12,5,3,2,15,6,9,11,1,14,8,13,4"
14612,commdev-image-keyboard-response,539,1105481,learnblock2,44.90000000037253,img/planet14_left.png,14,Community 3,NA,FALSE,j,f,NA,NA,NA,11,8,"10,7,12,5,3,2,15,6,9,11,1,14,8,13,4"
14612,commdev-image-keyboard-response,540,1106733,learnblock2,223.2999999988824,img/planet6_left.png,6,Community 2,NA,TRUE,f,f,NA,NA,NA,11,8,"10,7,12,5,3,2,15,6,9,11,1,14,8,13,4"
14612,commdev-image-keyboard-response,541,1107984,learnblock2,945.5,img/planet14_left.png,14,Community 3,NA,TRUE,f,f,NA,NA,NA,11,8,"10,7,12,5,3,2,15,6,9,11,1,14,8,13,4"
14612,commdev-image-keyboard-response,542,1109236,learnblock2,null,img/planet4_right.png,4,Community 3,NA,FALSE,null,j,NA,NA,NA,11,8,"10,7,12,5,3,2,15,6,9,11,1,14,8,13,4"
14612,commdev-image-keyboard-response,543,1110488,learnblock2,147.59999999962747,img/planet14_right.png,14,Community 3,NA,TRUE,j,j,NA,NA,NA,11,8,"10,7,12,5,3,2,15,6,9,11,1,14,8,13,4"
14612,commdev-image-keyboard-response,544,1111739,learnblock2,463.09999999962747,img/planet6_left.png,6,Community 2,NA,TRUE,f,f,NA,NA,NA,11,8,"10,7,12,5,3,2,15,6,9,11,1,14,8,13,4"
14612,commdev-image-keyboard-response,545,1112991,learnblock2,100.40000000037253,img/planet14_left.png,14,Community 3,NA,FALSE,j,f,NA,NA,NA,11,8,"10,7,12,5,3,2,15,6,9,11,1,14,8,13,4"
14612,commdev-image-keyboard-response,546,1114242,learnblock2,126.10000000149012,img/planet8_left.png,8,Community 3,NA,TRUE,f,f,NA,NA,NA,11,8,"10,7,12,5,3,2,15,6,9,11,1,14,8,13,4"
14612,commdev-image-keyboard-response,547,1115494,learnblock2,null,img/planet4_left.png,4,Community 3,NA,FALSE,null,f,NA,NA,NA,11,8,"10,7,12,5,3,2,15,6,9,11,1,14,8,13,4"
14612,commdev-image-keyboard-response,548,1116745,learnblock2,null,img/planet1_left.png,1,Community 3,NA,FALSE,null,f,NA,NA,NA,11,8,"10,7,12,5,3,2,15,6,9,11,1,14,8,13,4"
14612,commdev-image-keyboard-response,549,1117997,learnblock2,597,img/planet13_right.png,13,Community 3,NA,FALSE,f,j,NA,NA,NA,11,8,"10,7,12,5,3,2,15,6,9,11,1,14,8,13,4"
14612,commdev-image-keyboard-response,550,1119248,learnblock2,88.09999999962747,img/planet4_left.png,4,Community 3,NA,TRUE,f,f,NA,NA,NA,11,8,"10,7,12,5,3,2,15,6,9,11,1,14,8,13,4"
14612,commdev-image-keyboard-response,551,1120500,learnblock2,null,img/planet13_right.png,13,Community 3,NA,FALSE,null,j,NA,NA,NA,11,8,"10,7,12,5,3,2,15,6,9,11,1,14,8,13,4"
14612,commdev-image-keyboard-response,552,1121751,learnblock2,288.30000000074506,img/planet4_left.png,4,Community 3,NA,FALSE,j,f,NA,NA,NA,11,8,"10,7,12,5,3,2,15,6,9,11,1,14,8,13,4"
14612,commdev-image-keyboard-response,553,1123002,learnblock2,12.699999999254942,img/planet13_right.png,13,Community 3,NA,TRUE,j,j,NA,NA,NA,11,8,"10,7,12,5,3,2,15,6,9,11,1,14,8,13,4"
14612,commdev-image-keyboard-response,554,1124254,learnblock2,91.70000000111759,img/planet8_right.png,8,Community 3,NA,FALSE,f,j,NA,NA,NA,11,8,"10,7,12,5,3,2,15,6,9,11,1,14,8,13,4"
14612,commdev-image-keyboard-response,555,1125506,learnblock2,null,img/planet13_left.png,13,Community 3,NA,FALSE,null,f,NA,NA,NA,11,8,"10,7,12,5,3,2,15,6,9,11,1,14,8,13,4"
14612,commdev-image-keyboard-response,556,1126758,learnblock2,null,img/planet1_left.png,1,Community 3,NA,FALSE,null,f,NA,NA,NA,11,8,"10,7,12,5,3,2,15,6,9,11,1,14,8,13,4"
14612,commdev-image-keyboard-response,557,1128010,learnblock2,null,img/planet3_left.png,3,Community 1,NA,FALSE,null,f,NA,NA,NA,11,8,"10,7,12,5,3,2,15,6,9,11,1,14,8,13,4"
14612,commdev-image-keyboard-response,558,1129261,learnblock2,null,img/planet7_right.png,7,Community 1,NA,FALSE,null,j,NA,NA,NA,11,8,"10,7,12,5,3,2,15,6,9,11,1,14,8,13,4"
14612,commdev-image-keyboard-response,559,1130513,learnblock2,null,img/planet10_left.png,10,Community 1,NA,FALSE,null,f,NA,NA,NA,11,8,"10,7,12,5,3,2,15,6,9,11,1,14,8,13,4"
14612,commdev-image-keyboard-response,560,1131764,learnblock2,null,img/planet5_left.png,5,Community 1,NA,FALSE,null,f,NA,NA,NA,11,8,"10,7,12,5,3,2,15,6,9,11,1,14,8,13,4"
14612,commdev-image-keyboard-response,561,1133015,learnblock2,null,img/planet2_right.png,2,Community 2,NA,FALSE,null,j,NA,NA,NA,11,8,"10,7,12,5,3,2,15,6,9,11,1,14,8,13,4"
14612,commdev-image-keyboard-response,562,1134267,learnblock2,null,img/planet9_left.png,9,Community 2,NA,FALSE,null,f,NA,NA,NA,11,8,"10,7,12,5,3,2,15,6,9,11,1,14,8,13,4"
14612,commdev-image-keyboard-response,563,1135519,learnblock2,null,img/planet15_left.png,15,Community 2,NA,FALSE,null,f,NA,NA,NA,11,8,"10,7,12,5,3,2,15,6,9,11,1,14,8,13,4"
14612,commdev-image-keyboard-response,564,1136770,learnblock2,null,img/planet9_left.png,9,Community 2,NA,FALSE,null,f,NA,NA,NA,11,8,"10,7,12,5,3,2,15,6,9,11,1,14,8,13,4"
14612,commdev-image-keyboard-response,565,1138022,learnblock2,469.1000000014901,img/planet11_right.png,11,Community 2,NA,TRUE,j,j,NA,NA,NA,11,8,"10,7,12,5,3,2,15,6,9,11,1,14,8,13,4"
14612,commdev-image-keyboard-response,566,1139274,learnblock2,312.1000000014901,img/planet15_left.png,15,Community 2,NA,TRUE,f,f,NA,NA,NA,11,8,"10,7,12,5,3,2,15,6,9,11,1,14,8,13,4"
14612,commdev-image-keyboard-response,567,1140525,learnblock2,56.90000000037253,img/planet9_left.png,9,Community 2,NA,FALSE,j,f,NA,NA,NA,11,8,"10,7,12,5,3,2,15,6,9,11,1,14,8,13,4"
14612,commdev-image-keyboard-response,568,1141777,learnblock2,null,img/planet6_left.png,6,Community 2,NA,FALSE,null,f,NA,NA,NA,11,8,"10,7,12,5,3,2,15,6,9,11,1,14,8,13,4"
14612,commdev-image-keyboard-response,569,1143029,learnblock2,null,img/planet11_right.png,11,Community 2,NA,FALSE,null,j,NA,NA,NA,11,8,"10,7,12,5,3,2,15,6,9,11,1,14,8,13,4"
14612,commdev-image-keyboard-response,570,1144280,learnblock2,null,img/planet9_left.png,9,Community 2,NA,FALSE,null,f,NA,NA,NA,11,8,"10,7,12,5,3,2,15,6,9,11,1,14,8,13,4"
14612,commdev-image-keyboard-response,571,1145531,learnblock2,null,img/planet11_left.png,11,Community 2,NA,FALSE,null,f,NA,NA,NA,11,8,"10,7,12,5,3,2,15,6,9,11,1,14,8,13,4"
14612,commdev-image-keyboard-response,572,1146784,learnblock2,null,img/planet9_left.png,9,Community 2,NA,FALSE,null,f,NA,NA,NA,11,8,"10,7,12,5,3,2,15,6,9,11,1,14,8,13,4"
14612,commdev-image-keyboard-response,573,1148035,learnblock2,null,img/planet11_left.png,11,Community 2,NA,FALSE,null,f,NA,NA,NA,11,8,"10,7,12,5,3,2,15,6,9,11,1,14,8,13,4"
14612,commdev-image-keyboard-response,574,1149288,learnblock2,294.09999999962747,img/planet2_left.png,2,Community 2,NA,TRUE,f,f,NA,NA,NA,11,8,"10,7,12,5,3,2,15,6,9,11,1,14,8,13,4"
14612,commdev-image-keyboard-response,575,1150540,learnblock2,null,img/planet15_right.png,15,Community 2,NA,FALSE,null,j,NA,NA,NA,11,8,"10,7,12,5,3,2,15,6,9,11,1,14,8,13,4"
14612,commdev-image-keyboard-response,576,1151791,learnblock2,1221.699999999255,img/planet9_left.png,9,Community 2,NA,TRUE,f,f,NA,NA,NA,11,8,"10,7,12,5,3,2,15,6,9,11,1,14,8,13,4"
14612,commdev-image-keyboard-response,577,1153043,learnblock2,null,img/planet6_left.png,6,Community 2,NA,FALSE,null,f,NA,NA,NA,11,8,"10,7,12,5,3,2,15,6,9,11,1,14,8,13,4"
14612,commdev-image-keyboard-response,578,1154295,learnblock2,null,img/planet9_left.png,9,Community 2,NA,FALSE,null,f,NA,NA,NA,11,8,"10,7,12,5,3,2,15,6,9,11,1,14,8,13,4"
14612,commdev-image-keyboard-response,579,1155546,learnblock2,497.1000000014901,img/planet11_left.png,11,Community 2,NA,TRUE,f,f,NA,NA,NA,11,8,"10,7,12,5,3,2,15,6,9,11,1,14,8,13,4"
14612,commdev-image-keyboard-response,580,1156798,learnblock2,null,img/planet9_left.png,9,Community 2,NA,FALSE,null,f,NA,NA,NA,11,8,"10,7,12,5,3,2,15,6,9,11,1,14,8,13,4"
14612,commdev-image-keyboard-response,581,1158049,learnblock2,null,img/planet11_left.png,11,Community 2,NA,FALSE,null,f,NA,NA,NA,11,8,"10,7,12,5,3,2,15,6,9,11,1,14,8,13,4"
14612,commdev-image-keyboard-response,582,1159301,learnblock2,null,img/planet6_left.png,6,Community 2,NA,FALSE,null,f,NA,NA,NA,11,8,"10,7,12,5,3,2,15,6,9,11,1,14,8,13,4"
14612,commdev-image-keyboard-response,583,1160553,learnblock2,null,img/planet9_right.png,9,Community 2,NA,FALSE,null,j,NA,NA,NA,11,8,"10,7,12,5,3,2,15,6,9,11,1,14,8,13,4"
14612,commdev-image-keyboard-response,584,1161804,learnblock2,741.9000000003725,img/planet6_left.png,6,Community 2,NA,TRUE,f,f,NA,NA,NA,11,8,"10,7,12,5,3,2,15,6,9,11,1,14,8,13,4"
14612,commdev-image-keyboard-response,585,1163056,learnblock2,null,img/planet14_right.png,14,Community 3,NA,FALSE,null,j,NA,NA,NA,11,8,"10,7,12,5,3,2,15,6,9,11,1,14,8,13,4"
14612,commdev-image-keyboard-response,586,1164307,learnblock2,null,img/planet4_left.png,4,Community 3,NA,FALSE,null,f,NA,NA,NA,11,8,"10,7,12,5,3,2,15,6,9,11,1,14,8,13,4"
14612,commdev-image-keyboard-response,587,1165558,learnblock2,null,img/planet13_left.png,13,Community 3,NA,FALSE,null,f,NA,NA,NA,11,8,"10,7,12,5,3,2,15,6,9,11,1,14,8,13,4"
14612,commdev-image-keyboard-response,588,1166810,learnblock2,null,img/planet1_left.png,1,Community 3,NA,FALSE,null,f,NA,NA,NA,11,8,"10,7,12,5,3,2,15,6,9,11,1,14,8,13,4"
14612,commdev-image-keyboard-response,589,1168062,learnblock2,null,img/planet8_left.png,8,Community 3,NA,FALSE,null,f,NA,NA,NA,11,8,"10,7,12,5,3,2,15,6,9,11,1,14,8,13,4"
