subject_id,trial_type,trial_index,time_elapsed,block,rt,stimulus,planet,community,response,correct,key_press,learning_correct_response,parse,init_locations,final_locations,browser_interactions,num_comp,planet_map
14401,commdev-instructions,7,46192,NA,5784,"<p>In this game, you are a scientist on board a space shuttle. </p><p> On each mission, you will visit planets all across the universe.</p><img src=""img/controlroom.jpg"" width=300vw>",NA,NA,NA,NA,NA,NA,NA,NA,NA,1,6,"11,13,6,15,1,4,8,10,9,7,5,2,12,14,3"
14401,commdev-instructions,8,50367,NA,2106,"<p>Here are a few planets you might see:</p><img src=""img/practice1.png"" width=200vw><img src=""img/practice2.png"" width=200vw><img src=""img/practice3.png"" width=200vw>",NA,NA,NA,NA,NA,NA,NA,NA,NA,1,6,"11,13,6,15,1,4,8,10,9,7,5,2,12,14,3"
14401,commdev-instructions,9,59291,NA,1525.9999999999927,"<p>Your job as a scientist is to record which direction the winds are moving on each planet.</p><p>There are two types of wind directions:</p><img src=""img/practice1_left.png"" width=200vw><img src=""img/practice1_right.png"" width=200vw>",NA,NA,NA,NA,NA,NA,NA,NA,NA,1,6,"11,13,6,15,1,4,8,10,9,7,5,2,12,14,3"
14401,commdev-instructions,10,66247,NA,2079.0000000000073,"<p>If the winds are moving this way, press the letter <strong>F</strong> on the keyboard as fast as you can.</p><img src=""img/leftwind.png"" width=250vw>",NA,NA,NA,NA,NA,NA,NA,NA,NA,1,6,"11,13,6,15,1,4,8,10,9,7,5,2,12,14,3"
14401,commdev-instructions,11,71700,NA,959,"<p>If the winds are moving this way, press the letter <strong>J</strong> on the keyboard as fast as you can.</p><img src=""img/rightwind.png"" width=350vw>",NA,NA,NA,NA,NA,NA,NA,NA,NA,1,6,"11,13,6,15,1,4,8,10,9,7,5,2,12,14,3"
14401,commdev-instructions,12,77188,NA,1068,<p>You will have 1 second to respond. Try to respond before the time runs out!,NA,NA,NA,NA,NA,NA,NA,NA,NA,1,6,"11,13,6,15,1,4,8,10,9,7,5,2,12,14,3"
14401,commdev-instructions,13,83808,NA,1192,<p>The planets you will visit will look different from each other.</p><p>You should respond <strong>only</strong> based on wind direction.,NA,NA,NA,NA,NA,NA,NA,NA,NA,1,6,"11,13,6,15,1,4,8,10,9,7,5,2,12,14,3"
14401,commdev-instructions,14,90424,NA,1450,"<p> Ready to start the practice round? </p><p> Remember, press <strong>F</strong> or <strong>J</strong> depending on the wind direction.<br><img src=""img/categorize_planet_example.png""",NA,NA,NA,NA,NA,NA,NA,NA,NA,1,6,"11,13,6,15,1,4,8,10,9,7,5,2,12,14,3"
14401,commdev-instructions,26,143520,NA,2052,"<p>Great, now try a short practice mission. </p><p> This time, you will have 1 second to respond and you won't know whether you pressed the right or wrong key for each planet.</p>",NA,NA,NA,NA,NA,NA,NA,NA,NA,1,6,"11,13,6,15,1,4,8,10,9,7,5,2,12,14,3"
14401,commdev-image-keyboard-response,27,144873,practice,1212,img/practice3_left.png,NA,Number not found in mappings,NA,TRUE,f,f,NA,NA,NA,1,6,"11,13,6,15,1,4,8,10,9,7,5,2,12,14,3"
14401,commdev-image-keyboard-response,28,146125,practice,880,img/practice4_left.png,NA,Number not found in mappings,NA,TRUE,f,f,NA,NA,NA,1,6,"11,13,6,15,1,4,8,10,9,7,5,2,12,14,3"
14401,commdev-image-keyboard-response,29,147377,practice,912,img/practice2_left.png,NA,Number not found in mappings,NA,TRUE,f,f,NA,NA,NA,1,6,"11,13,6,15,1,4,8,10,9,7,5,2,12,14,3"
14401,commdev-image-keyboard-response,30,148629,practice,641,img/practice4_right.png,NA,Number not found in mappings,NA,TRUE,j,j,NA,NA,NA,1,6,"11,13,6,15,1,4,8,10,9,7,5,2,12,14,3"
14401,commdev-image-keyboard-response,31,149880,practice,1103,img/practice1_left.png,NA,Number not found in mappings,NA,TRUE,f,f,NA,NA,NA,1,6,"11,13,6,15,1,4,8,10,9,7,5,2,12,14,3"
14401,commdev-image-keyboard-response,32,151132,practice,806,img/practice2_right.png,NA,Number not found in mappings,NA,TRUE,j,j,NA,NA,NA,1,6,"11,13,6,15,1,4,8,10,9,7,5,2,12,14,3"
14401,commdev-image-keyboard-response,33,152385,practice,695,img/practice1_left.png,NA,Number not found in mappings,NA,TRUE,f,f,NA,NA,NA,1,6,"11,13,6,15,1,4,8,10,9,7,5,2,12,14,3"
14401,commdev-image-keyboard-response,34,153637,practice,551,img/practice4_left.png,NA,Number not found in mappings,NA,TRUE,f,f,NA,NA,NA,1,6,"11,13,6,15,1,4,8,10,9,7,5,2,12,14,3"
14401,commdev-instructions,35,166847,NA,3659,"<p>Great job with the practice round.</p><p>During real missions, you won't know whether you pressed the right or wrong key for each planet.</p><p>But between missions, we will tell you how you did overall.</p>",NA,NA,NA,NA,NA,NA,NA,NA,NA,1,6,"11,13,6,15,1,4,8,10,9,7,5,2,12,14,3"
14401,commdev-instructions,36,176002,NA,918.9999999999709,<p>Try your best! You will be paid a bonus based on how many correct responses you make!</p><p>Responses that are too slow will not count toward your bonus.</p>,NA,NA,NA,NA,NA,NA,NA,NA,NA,1,6,"11,13,6,15,1,4,8,10,9,7,5,2,12,14,3"
14401,commdev-instructions,37,183231,NA,1033,"<p>You are almost ready to start the real game.</p><p> First, we are going to ask you some questions about how the game works.</p>",NA,NA,NA,NA,NA,NA,NA,NA,NA,1,6,"11,13,6,15,1,4,8,10,9,7,5,2,12,14,3"
14401,commdev-instructions,46,262642,NA,2705,"<p> Nice work! It is now time to start the real game.<p></p>You will go on two missions to record wind directions of different planets.<p></p>Each one will take about 5 minutes. You will get to take a break between missions.<p><p> Remember, press <strong>F</strong> or <strong>J</strong> depending on the wind direction. Good luck!<br><img src=""img/categorize_planet_example.png""",NA,NA,NA,NA,NA,NA,NA,NA,NA,1,6,"11,13,6,15,1,4,8,10,9,7,5,2,12,14,3"
14401,commdev-image-keyboard-response,48,266461,learnblock1,1218,img/planet12_right.png,12,Community 3,NA,TRUE,j,j,NA,NA,NA,1,6,"11,13,6,15,1,4,8,10,9,7,5,2,12,14,3"
14401,commdev-image-keyboard-response,49,267713,learnblock1,918,img/planet14_right.png,14,Community 3,NA,TRUE,j,j,NA,NA,NA,1,6,"11,13,6,15,1,4,8,10,9,7,5,2,12,14,3"
14401,commdev-image-keyboard-response,50,268965,learnblock1,702.9999999999418,img/planet2_right.png,2,Community 3,NA,TRUE,j,j,NA,NA,NA,1,6,"11,13,6,15,1,4,8,10,9,7,5,2,12,14,3"
14401,commdev-image-keyboard-response,51,270217,learnblock1,567,img/planet10_right.png,10,Community 2,NA,TRUE,j,j,NA,NA,NA,1,6,"11,13,6,15,1,4,8,10,9,7,5,2,12,14,3"
14401,commdev-image-keyboard-response,52,271469,learnblock1,558,img/planet7_right.png,7,Community 2,NA,TRUE,j,j,NA,NA,NA,1,6,"11,13,6,15,1,4,8,10,9,7,5,2,12,14,3"
14401,commdev-image-keyboard-response,53,272720,learnblock1,565,img/planet10_left.png,10,Community 2,NA,TRUE,f,f,NA,NA,NA,1,6,"11,13,6,15,1,4,8,10,9,7,5,2,12,14,3"
14401,commdev-image-keyboard-response,54,273972,learnblock1,750,img/planet2_right.png,2,Community 3,NA,TRUE,j,j,NA,NA,NA,1,6,"11,13,6,15,1,4,8,10,9,7,5,2,12,14,3"
14401,commdev-image-keyboard-response,55,275224,learnblock1,693,img/planet14_right.png,14,Community 3,NA,TRUE,j,j,NA,NA,NA,1,6,"11,13,6,15,1,4,8,10,9,7,5,2,12,14,3"
14401,commdev-image-keyboard-response,56,276476,learnblock1,749,img/planet12_left.png,12,Community 3,NA,TRUE,f,f,NA,NA,NA,1,6,"11,13,6,15,1,4,8,10,9,7,5,2,12,14,3"
14401,commdev-image-keyboard-response,57,277728,learnblock1,710.9999999999418,img/planet3_right.png,3,Community 3,NA,TRUE,j,j,NA,NA,NA,1,6,"11,13,6,15,1,4,8,10,9,7,5,2,12,14,3"
14401,commdev-image-keyboard-response,58,278995,learnblock1,627,img/planet5_right.png,5,Community 3,NA,TRUE,j,j,NA,NA,NA,1,6,"11,13,6,15,1,4,8,10,9,7,5,2,12,14,3"
14401,commdev-image-keyboard-response,59,280256,learnblock1,569,img/planet3_right.png,3,Community 3,NA,TRUE,j,j,NA,NA,NA,1,6,"11,13,6,15,1,4,8,10,9,7,5,2,12,14,3"
14401,commdev-image-keyboard-response,60,281516,learnblock1,527,img/planet14_right.png,14,Community 3,NA,TRUE,j,j,NA,NA,NA,1,6,"11,13,6,15,1,4,8,10,9,7,5,2,12,14,3"
14401,commdev-image-keyboard-response,61,282776,learnblock1,684,img/planet3_left.png,3,Community 3,NA,TRUE,f,f,NA,NA,NA,1,6,"11,13,6,15,1,4,8,10,9,7,5,2,12,14,3"
14401,commdev-image-keyboard-response,62,284036,learnblock1,651,img/planet2_left.png,2,Community 3,NA,TRUE,f,f,NA,NA,NA,1,6,"11,13,6,15,1,4,8,10,9,7,5,2,12,14,3"
14401,commdev-image-keyboard-response,63,285296,learnblock1,611.9999999999418,img/planet12_right.png,12,Community 3,NA,TRUE,j,j,NA,NA,NA,1,6,"11,13,6,15,1,4,8,10,9,7,5,2,12,14,3"
14401,commdev-image-keyboard-response,64,286556,learnblock1,601,img/planet2_left.png,2,Community 3,NA,TRUE,f,f,NA,NA,NA,1,6,"11,13,6,15,1,4,8,10,9,7,5,2,12,14,3"
14401,commdev-image-keyboard-response,65,287816,learnblock1,693,img/planet12_left.png,12,Community 3,NA,TRUE,f,f,NA,NA,NA,1,6,"11,13,6,15,1,4,8,10,9,7,5,2,12,14,3"
14401,commdev-image-keyboard-response,66,289075,learnblock1,696.0000000000582,img/planet2_right.png,2,Community 3,NA,TRUE,j,j,NA,NA,NA,1,6,"11,13,6,15,1,4,8,10,9,7,5,2,12,14,3"
14401,commdev-image-keyboard-response,67,290336,learnblock1,701,img/planet3_right.png,3,Community 3,NA,TRUE,j,j,NA,NA,NA,1,6,"11,13,6,15,1,4,8,10,9,7,5,2,12,14,3"
14401,commdev-image-keyboard-response,68,291595,learnblock1,610,img/planet5_right.png,5,Community 3,NA,TRUE,j,j,NA,NA,NA,1,6,"11,13,6,15,1,4,8,10,9,7,5,2,12,14,3"
14401,commdev-image-keyboard-response,69,292856,learnblock1,577,img/planet14_right.png,14,Community 3,NA,TRUE,j,j,NA,NA,NA,1,6,"11,13,6,15,1,4,8,10,9,7,5,2,12,14,3"
14401,commdev-image-keyboard-response,70,294116,learnblock1,502,img/planet12_right.png,12,Community 3,NA,TRUE,j,j,NA,NA,NA,1,6,"11,13,6,15,1,4,8,10,9,7,5,2,12,14,3"
14401,commdev-image-keyboard-response,71,295376,learnblock1,477,img/planet3_right.png,3,Community 3,NA,TRUE,j,j,NA,NA,NA,1,6,"11,13,6,15,1,4,8,10,9,7,5,2,12,14,3"
14401,commdev-image-keyboard-response,72,296637,learnblock1,532,img/planet5_left.png,5,Community 3,NA,TRUE,f,f,NA,NA,NA,1,6,"11,13,6,15,1,4,8,10,9,7,5,2,12,14,3"
14401,commdev-image-keyboard-response,73,297896,learnblock1,735,img/planet3_left.png,3,Community 3,NA,TRUE,f,f,NA,NA,NA,1,6,"11,13,6,15,1,4,8,10,9,7,5,2,12,14,3"
14401,commdev-image-keyboard-response,74,299156,learnblock1,502,img/planet12_left.png,12,Community 3,NA,TRUE,f,f,NA,NA,NA,1,6,"11,13,6,15,1,4,8,10,9,7,5,2,12,14,3"
14401,commdev-image-keyboard-response,75,300416,learnblock1,588,img/planet14_right.png,14,Community 3,NA,TRUE,j,j,NA,NA,NA,1,6,"11,13,6,15,1,4,8,10,9,7,5,2,12,14,3"
14401,commdev-image-keyboard-response,76,301677,learnblock1,719,img/planet12_left.png,12,Community 3,NA,TRUE,f,f,NA,NA,NA,1,6,"11,13,6,15,1,4,8,10,9,7,5,2,12,14,3"
14401,commdev-image-keyboard-response,77,302936,learnblock1,699.0000000000582,img/planet5_left.png,5,Community 3,NA,TRUE,f,f,NA,NA,NA,1,6,"11,13,6,15,1,4,8,10,9,7,5,2,12,14,3"
14401,commdev-image-keyboard-response,78,304197,learnblock1,580,img/planet1_left.png,1,Community 1,NA,TRUE,f,f,NA,NA,NA,1,6,"11,13,6,15,1,4,8,10,9,7,5,2,12,14,3"
14401,commdev-image-keyboard-response,79,305456,learnblock1,684,img/planet6_left.png,6,Community 1,NA,TRUE,f,f,NA,NA,NA,1,6,"11,13,6,15,1,4,8,10,9,7,5,2,12,14,3"
14401,commdev-image-keyboard-response,80,306717,learnblock1,800,img/planet13_right.png,13,Community 1,NA,TRUE,j,j,NA,NA,NA,1,6,"11,13,6,15,1,4,8,10,9,7,5,2,12,14,3"
14401,commdev-image-keyboard-response,81,307976,learnblock1,662,img/planet15_left.png,15,Community 1,NA,TRUE,f,f,NA,NA,NA,1,6,"11,13,6,15,1,4,8,10,9,7,5,2,12,14,3"
14401,commdev-image-keyboard-response,82,309237,learnblock1,643.9999999999418,img/planet11_left.png,11,Community 1,NA,TRUE,f,f,NA,NA,NA,1,6,"11,13,6,15,1,4,8,10,9,7,5,2,12,14,3"
14401,commdev-image-keyboard-response,83,310496,learnblock1,561,img/planet6_right.png,6,Community 1,NA,TRUE,j,j,NA,NA,NA,1,6,"11,13,6,15,1,4,8,10,9,7,5,2,12,14,3"
14401,commdev-image-keyboard-response,84,311757,learnblock1,598,img/planet1_right.png,1,Community 1,NA,TRUE,j,j,NA,NA,NA,1,6,"11,13,6,15,1,4,8,10,9,7,5,2,12,14,3"
14401,commdev-image-keyboard-response,85,313016,learnblock1,549,img/planet5_left.png,5,Community 3,NA,FALSE,j,f,NA,NA,NA,1,6,"11,13,6,15,1,4,8,10,9,7,5,2,12,14,3"
14401,commdev-image-keyboard-response,86,314277,learnblock1,784,img/planet3_right.png,3,Community 3,NA,TRUE,j,j,NA,NA,NA,1,6,"11,13,6,15,1,4,8,10,9,7,5,2,12,14,3"
14401,commdev-image-keyboard-response,87,315537,learnblock1,581,img/planet12_right.png,12,Community 3,NA,TRUE,j,j,NA,NA,NA,1,6,"11,13,6,15,1,4,8,10,9,7,5,2,12,14,3"
14401,commdev-image-keyboard-response,88,316797,learnblock1,496.9999999999418,img/planet14_left.png,14,Community 3,NA,TRUE,f,f,NA,NA,NA,1,6,"11,13,6,15,1,4,8,10,9,7,5,2,12,14,3"
14401,commdev-image-keyboard-response,89,318056,learnblock1,633,img/planet2_right.png,2,Community 3,NA,TRUE,j,j,NA,NA,NA,1,6,"11,13,6,15,1,4,8,10,9,7,5,2,12,14,3"
14401,commdev-image-keyboard-response,90,319317,learnblock1,783,img/planet3_left.png,3,Community 3,NA,TRUE,f,f,NA,NA,NA,1,6,"11,13,6,15,1,4,8,10,9,7,5,2,12,14,3"
14401,commdev-image-keyboard-response,91,320577,learnblock1,567,img/planet5_right.png,5,Community 3,NA,TRUE,j,j,NA,NA,NA,1,6,"11,13,6,15,1,4,8,10,9,7,5,2,12,14,3"
14401,commdev-image-keyboard-response,92,321837,learnblock1,609.0000000000582,img/planet1_right.png,1,Community 1,NA,TRUE,j,j,NA,NA,NA,1,6,"11,13,6,15,1,4,8,10,9,7,5,2,12,14,3"
14401,commdev-image-keyboard-response,93,323097,learnblock1,693,img/planet13_left.png,13,Community 1,NA,TRUE,f,f,NA,NA,NA,1,6,"11,13,6,15,1,4,8,10,9,7,5,2,12,14,3"
14401,commdev-image-keyboard-response,94,324357,learnblock1,607.0000000000582,img/planet6_right.png,6,Community 1,NA,TRUE,j,j,NA,NA,NA,1,6,"11,13,6,15,1,4,8,10,9,7,5,2,12,14,3"
14401,commdev-image-keyboard-response,95,325617,learnblock1,622,img/planet1_right.png,1,Community 1,NA,TRUE,j,j,NA,NA,NA,1,6,"11,13,6,15,1,4,8,10,9,7,5,2,12,14,3"
14401,commdev-image-keyboard-response,96,326877,learnblock1,588,img/planet11_left.png,11,Community 1,NA,TRUE,f,f,NA,NA,NA,1,6,"11,13,6,15,1,4,8,10,9,7,5,2,12,14,3"
14401,commdev-image-keyboard-response,97,328137,learnblock1,556,img/planet6_right.png,6,Community 1,NA,TRUE,j,j,NA,NA,NA,1,6,"11,13,6,15,1,4,8,10,9,7,5,2,12,14,3"
14401,commdev-image-keyboard-response,98,329398,learnblock1,535,img/planet13_left.png,13,Community 1,NA,TRUE,f,f,NA,NA,NA,1,6,"11,13,6,15,1,4,8,10,9,7,5,2,12,14,3"
14401,commdev-image-keyboard-response,99,330657,learnblock1,534,img/planet15_right.png,15,Community 1,NA,TRUE,j,j,NA,NA,NA,1,6,"11,13,6,15,1,4,8,10,9,7,5,2,12,14,3"
14401,commdev-image-keyboard-response,100,331918,learnblock1,704,img/planet4_left.png,4,Community 2,NA,TRUE,f,f,NA,NA,NA,1,6,"11,13,6,15,1,4,8,10,9,7,5,2,12,14,3"
14401,commdev-image-keyboard-response,101,333177,learnblock1,569,img/planet8_right.png,8,Community 2,NA,TRUE,j,j,NA,NA,NA,1,6,"11,13,6,15,1,4,8,10,9,7,5,2,12,14,3"
14401,commdev-image-keyboard-response,102,334437,learnblock1,633,img/planet9_right.png,9,Community 2,NA,TRUE,j,j,NA,NA,NA,1,6,"11,13,6,15,1,4,8,10,9,7,5,2,12,14,3"
14401,commdev-image-keyboard-response,103,335697,learnblock1,714,img/planet4_right.png,4,Community 2,NA,TRUE,j,j,NA,NA,NA,1,6,"11,13,6,15,1,4,8,10,9,7,5,2,12,14,3"
14401,commdev-image-keyboard-response,104,336958,learnblock1,714,img/planet15_right.png,15,Community 1,NA,TRUE,j,j,NA,NA,NA,1,6,"11,13,6,15,1,4,8,10,9,7,5,2,12,14,3"
14401,commdev-image-keyboard-response,105,338217,learnblock1,540,img/planet13_right.png,13,Community 1,NA,TRUE,j,j,NA,NA,NA,1,6,"11,13,6,15,1,4,8,10,9,7,5,2,12,14,3"
14401,commdev-image-keyboard-response,106,339478,learnblock1,540,img/planet6_right.png,6,Community 1,NA,TRUE,j,j,NA,NA,NA,1,6,"11,13,6,15,1,4,8,10,9,7,5,2,12,14,3"
14401,commdev-image-keyboard-response,107,340737,learnblock1,444.9999999999418,img/planet11_left.png,11,Community 1,NA,FALSE,j,f,NA,NA,NA,1,6,"11,13,6,15,1,4,8,10,9,7,5,2,12,14,3"
14401,commdev-image-keyboard-response,108,341998,learnblock1,854.0000000000582,img/planet13_left.png,13,Community 1,NA,TRUE,f,f,NA,NA,NA,1,6,"11,13,6,15,1,4,8,10,9,7,5,2,12,14,3"
14401,commdev-image-keyboard-response,109,343257,learnblock1,663,img/planet1_left.png,1,Community 1,NA,TRUE,f,f,NA,NA,NA,1,6,"11,13,6,15,1,4,8,10,9,7,5,2,12,14,3"
14401,commdev-image-keyboard-response,110,344518,learnblock1,568,img/planet11_left.png,11,Community 1,NA,TRUE,f,f,NA,NA,NA,1,6,"11,13,6,15,1,4,8,10,9,7,5,2,12,14,3"
14401,commdev-image-keyboard-response,111,345777,learnblock1,424,img/planet1_left.png,1,Community 1,NA,TRUE,f,f,NA,NA,NA,1,6,"11,13,6,15,1,4,8,10,9,7,5,2,12,14,3"
14401,commdev-image-keyboard-response,112,347038,learnblock1,451.0000000000582,img/planet5_left.png,5,Community 3,NA,TRUE,f,f,NA,NA,NA,1,6,"11,13,6,15,1,4,8,10,9,7,5,2,12,14,3"
14401,commdev-image-keyboard-response,113,348297,learnblock1,421.9999999999418,img/planet12_left.png,12,Community 3,NA,TRUE,f,f,NA,NA,NA,1,6,"11,13,6,15,1,4,8,10,9,7,5,2,12,14,3"
14401,commdev-image-keyboard-response,114,349558,learnblock1,409,img/planet2_left.png,2,Community 3,NA,TRUE,f,f,NA,NA,NA,1,6,"11,13,6,15,1,4,8,10,9,7,5,2,12,14,3"
14401,commdev-image-keyboard-response,115,350817,learnblock1,498,img/planet14_right.png,14,Community 3,NA,FALSE,f,j,NA,NA,NA,1,6,"11,13,6,15,1,4,8,10,9,7,5,2,12,14,3"
14401,commdev-image-keyboard-response,116,352078,learnblock1,614,img/planet5_right.png,5,Community 3,NA,TRUE,j,j,NA,NA,NA,1,6,"11,13,6,15,1,4,8,10,9,7,5,2,12,14,3"
14401,commdev-image-keyboard-response,117,353338,learnblock1,683,img/planet1_left.png,1,Community 1,NA,TRUE,f,f,NA,NA,NA,1,6,"11,13,6,15,1,4,8,10,9,7,5,2,12,14,3"
14401,commdev-image-keyboard-response,118,354598,learnblock1,608,img/planet13_right.png,13,Community 1,NA,TRUE,j,j,NA,NA,NA,1,6,"11,13,6,15,1,4,8,10,9,7,5,2,12,14,3"
14401,commdev-image-keyboard-response,119,355857,learnblock1,616.0000000000582,img/planet15_right.png,15,Community 1,NA,TRUE,j,j,NA,NA,NA,1,6,"11,13,6,15,1,4,8,10,9,7,5,2,12,14,3"
14401,commdev-image-keyboard-response,120,357118,learnblock1,582,img/planet13_right.png,13,Community 1,NA,TRUE,j,j,NA,NA,NA,1,6,"11,13,6,15,1,4,8,10,9,7,5,2,12,14,3"
14401,commdev-image-keyboard-response,121,358378,learnblock1,448,img/planet6_left.png,6,Community 1,NA,FALSE,j,f,NA,NA,NA,1,6,"11,13,6,15,1,4,8,10,9,7,5,2,12,14,3"
14401,commdev-image-keyboard-response,122,359638,learnblock1,547.0000000000582,img/planet15_right.png,15,Community 1,NA,TRUE,j,j,NA,NA,NA,1,6,"11,13,6,15,1,4,8,10,9,7,5,2,12,14,3"
14401,commdev-image-keyboard-response,123,360898,learnblock1,559,img/planet13_right.png,13,Community 1,NA,TRUE,j,j,NA,NA,NA,1,6,"11,13,6,15,1,4,8,10,9,7,5,2,12,14,3"
14401,commdev-image-keyboard-response,124,362159,learnblock1,644,img/planet1_left.png,1,Community 1,NA,TRUE,f,f,NA,NA,NA,1,6,"11,13,6,15,1,4,8,10,9,7,5,2,12,14,3"
14401,commdev-image-keyboard-response,125,363418,learnblock1,655,img/planet11_left.png,11,Community 1,NA,TRUE,f,f,NA,NA,NA,1,6,"11,13,6,15,1,4,8,10,9,7,5,2,12,14,3"
14401,commdev-image-keyboard-response,126,364679,learnblock1,619,img/planet6_right.png,6,Community 1,NA,TRUE,j,j,NA,NA,NA,1,6,"11,13,6,15,1,4,8,10,9,7,5,2,12,14,3"
14401,commdev-image-keyboard-response,127,365939,learnblock1,663.0000000000582,img/planet13_left.png,13,Community 1,NA,TRUE,f,f,NA,NA,NA,1,6,"11,13,6,15,1,4,8,10,9,7,5,2,12,14,3"
14401,commdev-image-keyboard-response,128,367199,learnblock1,600.0000000000582,img/planet6_right.png,6,Community 1,NA,TRUE,j,j,NA,NA,NA,1,6,"11,13,6,15,1,4,8,10,9,7,5,2,12,14,3"
14401,commdev-image-keyboard-response,129,368459,learnblock1,732,img/planet13_right.png,13,Community 1,NA,TRUE,j,j,NA,NA,NA,1,6,"11,13,6,15,1,4,8,10,9,7,5,2,12,14,3"
14401,commdev-image-keyboard-response,130,369719,learnblock1,670,img/planet11_left.png,11,Community 1,NA,TRUE,f,f,NA,NA,NA,1,6,"11,13,6,15,1,4,8,10,9,7,5,2,12,14,3"
14401,commdev-image-keyboard-response,131,370979,learnblock1,622,img/planet15_right.png,15,Community 1,NA,TRUE,j,j,NA,NA,NA,1,6,"11,13,6,15,1,4,8,10,9,7,5,2,12,14,3"
14401,commdev-image-keyboard-response,132,372239,learnblock1,569.9999999999418,img/planet13_left.png,13,Community 1,NA,TRUE,f,f,NA,NA,NA,1,6,"11,13,6,15,1,4,8,10,9,7,5,2,12,14,3"
14401,commdev-image-keyboard-response,133,373499,learnblock1,601,img/planet6_left.png,6,Community 1,NA,TRUE,f,f,NA,NA,NA,1,6,"11,13,6,15,1,4,8,10,9,7,5,2,12,14,3"
14401,commdev-image-keyboard-response,134,374759,learnblock1,599,img/planet13_left.png,13,Community 1,NA,TRUE,f,f,NA,NA,NA,1,6,"11,13,6,15,1,4,8,10,9,7,5,2,12,14,3"
14401,commdev-image-keyboard-response,135,376019,learnblock1,559,img/planet1_left.png,1,Community 1,NA,TRUE,f,f,NA,NA,NA,1,6,"11,13,6,15,1,4,8,10,9,7,5,2,12,14,3"
14401,commdev-image-keyboard-response,136,377279,learnblock1,565,img/planet6_right.png,6,Community 1,NA,TRUE,j,j,NA,NA,NA,1,6,"11,13,6,15,1,4,8,10,9,7,5,2,12,14,3"
14401,commdev-image-keyboard-response,137,378539,learnblock1,502,img/planet11_left.png,11,Community 1,NA,TRUE,f,f,NA,NA,NA,1,6,"11,13,6,15,1,4,8,10,9,7,5,2,12,14,3"
14401,commdev-image-keyboard-response,138,379799,learnblock1,517.9999999999418,img/planet13_right.png,13,Community 1,NA,TRUE,j,j,NA,NA,NA,1,6,"11,13,6,15,1,4,8,10,9,7,5,2,12,14,3"
14401,commdev-image-keyboard-response,139,381059,learnblock1,467,img/planet6_left.png,6,Community 1,NA,TRUE,f,f,NA,NA,NA,1,6,"11,13,6,15,1,4,8,10,9,7,5,2,12,14,3"
14401,commdev-image-keyboard-response,140,382319,learnblock1,575,img/planet13_left.png,13,Community 1,NA,TRUE,f,f,NA,NA,NA,1,6,"11,13,6,15,1,4,8,10,9,7,5,2,12,14,3"
14401,commdev-image-keyboard-response,141,383579,learnblock1,508,img/planet11_left.png,11,Community 1,NA,TRUE,f,f,NA,NA,NA,1,6,"11,13,6,15,1,4,8,10,9,7,5,2,12,14,3"
14401,commdev-image-keyboard-response,142,384839,learnblock1,582.9999999999418,img/planet15_right.png,15,Community 1,NA,TRUE,j,j,NA,NA,NA,1,6,"11,13,6,15,1,4,8,10,9,7,5,2,12,14,3"
14401,commdev-image-keyboard-response,143,386098,learnblock1,559,img/planet6_right.png,6,Community 1,NA,TRUE,j,j,NA,NA,NA,1,6,"11,13,6,15,1,4,8,10,9,7,5,2,12,14,3"
14401,commdev-image-keyboard-response,144,387359,learnblock1,523,img/planet15_left.png,15,Community 1,NA,TRUE,f,f,NA,NA,NA,1,6,"11,13,6,15,1,4,8,10,9,7,5,2,12,14,3"
14401,commdev-image-keyboard-response,145,388619,learnblock1,576,img/planet6_right.png,6,Community 1,NA,TRUE,j,j,NA,NA,NA,1,6,"11,13,6,15,1,4,8,10,9,7,5,2,12,14,3"
14401,commdev-image-keyboard-response,146,389879,learnblock1,506,img/planet13_left.png,13,Community 1,NA,TRUE,f,f,NA,NA,NA,1,6,"11,13,6,15,1,4,8,10,9,7,5,2,12,14,3"
14401,commdev-image-keyboard-response,147,391139,learnblock1,565,img/planet1_left.png,1,Community 1,NA,TRUE,f,f,NA,NA,NA,1,6,"11,13,6,15,1,4,8,10,9,7,5,2,12,14,3"
14401,commdev-image-keyboard-response,148,392399,learnblock1,560,img/planet6_left.png,6,Community 1,NA,TRUE,f,f,NA,NA,NA,1,6,"11,13,6,15,1,4,8,10,9,7,5,2,12,14,3"
14401,commdev-image-keyboard-response,149,393658,learnblock1,491.0000000000582,img/planet13_left.png,13,Community 1,NA,TRUE,f,f,NA,NA,NA,1,6,"11,13,6,15,1,4,8,10,9,7,5,2,12,14,3"
14401,commdev-image-keyboard-response,150,394918,learnblock1,518.0000000000582,img/planet6_left.png,6,Community 1,NA,TRUE,f,f,NA,NA,NA,1,6,"11,13,6,15,1,4,8,10,9,7,5,2,12,14,3"
14401,commdev-image-keyboard-response,151,396179,learnblock1,543,img/planet13_left.png,13,Community 1,NA,TRUE,f,f,NA,NA,NA,1,6,"11,13,6,15,1,4,8,10,9,7,5,2,12,14,3"
14401,commdev-image-keyboard-response,152,397439,learnblock1,562.0000000000582,img/planet15_left.png,15,Community 1,NA,TRUE,f,f,NA,NA,NA,1,6,"11,13,6,15,1,4,8,10,9,7,5,2,12,14,3"
14401,commdev-image-keyboard-response,153,398699,learnblock1,597,img/planet6_left.png,6,Community 1,NA,TRUE,f,f,NA,NA,NA,1,6,"11,13,6,15,1,4,8,10,9,7,5,2,12,14,3"
14401,commdev-image-keyboard-response,154,399959,learnblock1,521,img/planet1_left.png,1,Community 1,NA,TRUE,f,f,NA,NA,NA,1,6,"11,13,6,15,1,4,8,10,9,7,5,2,12,14,3"
14401,commdev-image-keyboard-response,155,401220,learnblock1,566,img/planet13_left.png,13,Community 1,NA,TRUE,f,f,NA,NA,NA,1,6,"11,13,6,15,1,4,8,10,9,7,5,2,12,14,3"
14401,commdev-image-keyboard-response,156,402479,learnblock1,474,img/planet6_right.png,6,Community 1,NA,FALSE,f,j,NA,NA,NA,1,6,"11,13,6,15,1,4,8,10,9,7,5,2,12,14,3"
14401,commdev-image-keyboard-response,157,403740,learnblock1,691.9999999999418,img/planet15_left.png,15,Community 1,NA,TRUE,f,f,NA,NA,NA,1,6,"11,13,6,15,1,4,8,10,9,7,5,2,12,14,3"
14401,commdev-image-keyboard-response,158,404999,learnblock1,884.0000000000582,img/planet4_right.png,4,Community 2,NA,TRUE,j,j,NA,NA,NA,1,6,"11,13,6,15,1,4,8,10,9,7,5,2,12,14,3"
14401,commdev-image-keyboard-response,159,406260,learnblock1,680,img/planet9_left.png,9,Community 2,NA,TRUE,f,f,NA,NA,NA,1,6,"11,13,6,15,1,4,8,10,9,7,5,2,12,14,3"
14401,commdev-image-keyboard-response,160,407519,learnblock1,601,img/planet10_left.png,10,Community 2,NA,TRUE,f,f,NA,NA,NA,1,6,"11,13,6,15,1,4,8,10,9,7,5,2,12,14,3"
14401,commdev-image-keyboard-response,161,408780,learnblock1,615,img/planet7_right.png,7,Community 2,NA,TRUE,j,j,NA,NA,NA,1,6,"11,13,6,15,1,4,8,10,9,7,5,2,12,14,3"
14401,commdev-image-keyboard-response,162,410039,learnblock1,711,img/planet4_right.png,4,Community 2,NA,TRUE,j,j,NA,NA,NA,1,6,"11,13,6,15,1,4,8,10,9,7,5,2,12,14,3"
14401,commdev-image-keyboard-response,163,411299,learnblock1,682,img/planet8_left.png,8,Community 2,NA,TRUE,f,f,NA,NA,NA,1,6,"11,13,6,15,1,4,8,10,9,7,5,2,12,14,3"
14401,commdev-image-keyboard-response,164,412559,learnblock1,681.0000000000582,img/planet10_right.png,10,Community 2,NA,TRUE,j,j,NA,NA,NA,1,6,"11,13,6,15,1,4,8,10,9,7,5,2,12,14,3"
14401,commdev-image-keyboard-response,165,413820,learnblock1,612,img/planet2_right.png,2,Community 3,NA,TRUE,j,j,NA,NA,NA,1,6,"11,13,6,15,1,4,8,10,9,7,5,2,12,14,3"
14401,commdev-image-keyboard-response,166,415079,learnblock1,696.0000000000582,img/planet12_right.png,12,Community 3,NA,TRUE,j,j,NA,NA,NA,1,6,"11,13,6,15,1,4,8,10,9,7,5,2,12,14,3"
14401,commdev-image-keyboard-response,167,416340,learnblock1,679,img/planet3_right.png,3,Community 3,NA,TRUE,j,j,NA,NA,NA,1,6,"11,13,6,15,1,4,8,10,9,7,5,2,12,14,3"
14401,commdev-image-keyboard-response,168,417599,learnblock1,678,img/planet2_left.png,2,Community 3,NA,TRUE,f,f,NA,NA,NA,1,6,"11,13,6,15,1,4,8,10,9,7,5,2,12,14,3"
14401,commdev-image-keyboard-response,169,418860,learnblock1,709,img/planet12_left.png,12,Community 3,NA,TRUE,f,f,NA,NA,NA,1,6,"11,13,6,15,1,4,8,10,9,7,5,2,12,14,3"
14401,commdev-image-keyboard-response,170,420119,learnblock1,646,img/planet2_left.png,2,Community 3,NA,TRUE,f,f,NA,NA,NA,1,6,"11,13,6,15,1,4,8,10,9,7,5,2,12,14,3"
14401,commdev-image-keyboard-response,171,421380,learnblock1,637,img/planet12_right.png,12,Community 3,NA,TRUE,j,j,NA,NA,NA,1,6,"11,13,6,15,1,4,8,10,9,7,5,2,12,14,3"
14401,commdev-image-keyboard-response,172,422640,learnblock1,708.0000000000582,img/planet5_right.png,5,Community 3,NA,TRUE,j,j,NA,NA,NA,1,6,"11,13,6,15,1,4,8,10,9,7,5,2,12,14,3"
14401,commdev-image-keyboard-response,173,423900,learnblock1,838,img/planet3_right.png,3,Community 3,NA,TRUE,j,j,NA,NA,NA,1,6,"11,13,6,15,1,4,8,10,9,7,5,2,12,14,3"
14401,commdev-image-keyboard-response,174,425159,learnblock1,651,img/planet12_right.png,12,Community 3,NA,TRUE,j,j,NA,NA,NA,1,6,"11,13,6,15,1,4,8,10,9,7,5,2,12,14,3"
14401,commdev-image-keyboard-response,175,426420,learnblock1,643.0000000000582,img/planet5_right.png,5,Community 3,NA,TRUE,j,j,NA,NA,NA,1,6,"11,13,6,15,1,4,8,10,9,7,5,2,12,14,3"
14401,commdev-image-keyboard-response,176,427680,learnblock1,640,img/planet12_right.png,12,Community 3,NA,TRUE,j,j,NA,NA,NA,1,6,"11,13,6,15,1,4,8,10,9,7,5,2,12,14,3"
14401,commdev-image-keyboard-response,177,428940,learnblock1,599.0000000000582,img/planet5_right.png,5,Community 3,NA,TRUE,j,j,NA,NA,NA,1,6,"11,13,6,15,1,4,8,10,9,7,5,2,12,14,3"
14401,commdev-image-keyboard-response,178,430200,learnblock1,616,img/planet14_right.png,14,Community 3,NA,TRUE,j,j,NA,NA,NA,1,6,"11,13,6,15,1,4,8,10,9,7,5,2,12,14,3"
14401,commdev-image-keyboard-response,179,431461,learnblock1,581,img/planet5_right.png,5,Community 3,NA,TRUE,j,j,NA,NA,NA,1,6,"11,13,6,15,1,4,8,10,9,7,5,2,12,14,3"
14401,commdev-image-keyboard-response,180,432720,learnblock1,549,img/planet1_left.png,1,Community 1,NA,TRUE,f,f,NA,NA,NA,1,6,"11,13,6,15,1,4,8,10,9,7,5,2,12,14,3"
14401,commdev-image-keyboard-response,181,433981,learnblock1,578,img/planet5_right.png,5,Community 3,NA,TRUE,j,j,NA,NA,NA,1,6,"11,13,6,15,1,4,8,10,9,7,5,2,12,14,3"
14401,commdev-image-keyboard-response,182,435240,learnblock1,666.9999999999418,img/planet1_right.png,1,Community 1,NA,TRUE,j,j,NA,NA,NA,1,6,"11,13,6,15,1,4,8,10,9,7,5,2,12,14,3"
14401,commdev-image-keyboard-response,183,436501,learnblock1,684,img/planet5_right.png,5,Community 3,NA,TRUE,j,j,NA,NA,NA,1,6,"11,13,6,15,1,4,8,10,9,7,5,2,12,14,3"
14401,commdev-image-keyboard-response,184,437760,learnblock1,684,img/planet1_right.png,1,Community 1,NA,TRUE,j,j,NA,NA,NA,1,6,"11,13,6,15,1,4,8,10,9,7,5,2,12,14,3"
14401,commdev-image-keyboard-response,185,439021,learnblock1,597,img/planet5_right.png,5,Community 3,NA,TRUE,j,j,NA,NA,NA,1,6,"11,13,6,15,1,4,8,10,9,7,5,2,12,14,3"
14401,commdev-image-keyboard-response,186,440280,learnblock1,738,img/planet3_right.png,3,Community 3,NA,TRUE,j,j,NA,NA,NA,1,6,"11,13,6,15,1,4,8,10,9,7,5,2,12,14,3"
14401,commdev-image-keyboard-response,187,441541,learnblock1,730,img/planet14_left.png,14,Community 3,NA,TRUE,f,f,NA,NA,NA,1,6,"11,13,6,15,1,4,8,10,9,7,5,2,12,14,3"
14401,commdev-image-keyboard-response,188,442800,learnblock1,603.9999999999418,img/planet12_left.png,12,Community 3,NA,TRUE,f,f,NA,NA,NA,1,6,"11,13,6,15,1,4,8,10,9,7,5,2,12,14,3"
14401,commdev-image-keyboard-response,189,444061,learnblock1,572,img/planet2_right.png,2,Community 3,NA,TRUE,j,j,NA,NA,NA,1,6,"11,13,6,15,1,4,8,10,9,7,5,2,12,14,3"
14401,commdev-image-keyboard-response,190,445320,learnblock1,538,img/planet3_left.png,3,Community 3,NA,TRUE,f,f,NA,NA,NA,1,6,"11,13,6,15,1,4,8,10,9,7,5,2,12,14,3"
14401,commdev-image-keyboard-response,191,446581,learnblock1,520,img/planet2_right.png,2,Community 3,NA,TRUE,j,j,NA,NA,NA,1,6,"11,13,6,15,1,4,8,10,9,7,5,2,12,14,3"
14401,commdev-image-keyboard-response,192,447840,learnblock1,599,img/planet10_right.png,10,Community 2,NA,TRUE,j,j,NA,NA,NA,1,6,"11,13,6,15,1,4,8,10,9,7,5,2,12,14,3"
14401,commdev-image-keyboard-response,193,449101,learnblock1,571.0000000000582,img/planet9_right.png,9,Community 2,NA,TRUE,j,j,NA,NA,NA,1,6,"11,13,6,15,1,4,8,10,9,7,5,2,12,14,3"
14401,commdev-image-keyboard-response,194,450360,learnblock1,822.9999999999418,img/planet8_right.png,8,Community 2,NA,TRUE,j,j,NA,NA,NA,1,6,"11,13,6,15,1,4,8,10,9,7,5,2,12,14,3"
14401,commdev-image-keyboard-response,195,451621,learnblock1,639,img/planet4_right.png,4,Community 2,NA,TRUE,j,j,NA,NA,NA,1,6,"11,13,6,15,1,4,8,10,9,7,5,2,12,14,3"
14401,commdev-image-keyboard-response,196,452881,learnblock1,632,img/planet8_right.png,8,Community 2,NA,TRUE,j,j,NA,NA,NA,1,6,"11,13,6,15,1,4,8,10,9,7,5,2,12,14,3"
14401,commdev-image-keyboard-response,197,454141,learnblock1,611,img/planet4_left.png,4,Community 2,NA,TRUE,f,f,NA,NA,NA,1,6,"11,13,6,15,1,4,8,10,9,7,5,2,12,14,3"
14401,commdev-image-keyboard-response,198,455401,learnblock1,647,img/planet7_left.png,7,Community 2,NA,TRUE,f,f,NA,NA,NA,1,6,"11,13,6,15,1,4,8,10,9,7,5,2,12,14,3"
14401,commdev-image-keyboard-response,199,456661,learnblock1,577,img/planet4_right.png,4,Community 2,NA,TRUE,j,j,NA,NA,NA,1,6,"11,13,6,15,1,4,8,10,9,7,5,2,12,14,3"
14401,commdev-image-keyboard-response,200,457921,learnblock1,618,img/planet8_left.png,8,Community 2,NA,TRUE,f,f,NA,NA,NA,1,6,"11,13,6,15,1,4,8,10,9,7,5,2,12,14,3"
14401,commdev-image-keyboard-response,201,459181,learnblock1,490,img/planet4_right.png,4,Community 2,NA,TRUE,j,j,NA,NA,NA,1,6,"11,13,6,15,1,4,8,10,9,7,5,2,12,14,3"
14401,commdev-image-keyboard-response,202,460441,learnblock1,564,img/planet15_left.png,15,Community 1,NA,TRUE,f,f,NA,NA,NA,1,6,"11,13,6,15,1,4,8,10,9,7,5,2,12,14,3"
14401,commdev-image-keyboard-response,203,461701,learnblock1,626,img/planet6_left.png,6,Community 1,NA,TRUE,f,f,NA,NA,NA,1,6,"11,13,6,15,1,4,8,10,9,7,5,2,12,14,3"
14401,commdev-image-keyboard-response,204,462961,learnblock1,577,img/planet15_left.png,15,Community 1,NA,TRUE,f,f,NA,NA,NA,1,6,"11,13,6,15,1,4,8,10,9,7,5,2,12,14,3"
14401,commdev-image-keyboard-response,205,464222,learnblock1,562,img/planet11_left.png,11,Community 1,NA,TRUE,f,f,NA,NA,NA,1,6,"11,13,6,15,1,4,8,10,9,7,5,2,12,14,3"
14401,commdev-image-keyboard-response,206,465482,learnblock1,540,img/planet13_right.png,13,Community 1,NA,TRUE,j,j,NA,NA,NA,1,6,"11,13,6,15,1,4,8,10,9,7,5,2,12,14,3"
14401,commdev-image-keyboard-response,207,466742,learnblock1,675.9999999999418,img/planet6_left.png,6,Community 1,NA,TRUE,f,f,NA,NA,NA,1,6,"11,13,6,15,1,4,8,10,9,7,5,2,12,14,3"
14401,commdev-image-keyboard-response,208,468002,learnblock1,556,img/planet13_right.png,13,Community 1,NA,TRUE,j,j,NA,NA,NA,1,6,"11,13,6,15,1,4,8,10,9,7,5,2,12,14,3"
14401,commdev-image-keyboard-response,209,469262,learnblock1,481,img/planet1_left.png,1,Community 1,NA,TRUE,f,f,NA,NA,NA,1,6,"11,13,6,15,1,4,8,10,9,7,5,2,12,14,3"
14401,commdev-image-keyboard-response,210,470522,learnblock1,756.0000000000582,img/planet6_right.png,6,Community 1,NA,TRUE,j,j,NA,NA,NA,1,6,"11,13,6,15,1,4,8,10,9,7,5,2,12,14,3"
14401,commdev-image-keyboard-response,211,471782,learnblock1,601,img/planet13_left.png,13,Community 1,NA,TRUE,f,f,NA,NA,NA,1,6,"11,13,6,15,1,4,8,10,9,7,5,2,12,14,3"
14401,commdev-image-keyboard-response,212,473041,learnblock1,636,img/planet6_left.png,6,Community 1,NA,TRUE,f,f,NA,NA,NA,1,6,"11,13,6,15,1,4,8,10,9,7,5,2,12,14,3"
14401,commdev-image-keyboard-response,213,474302,learnblock1,561.9999999999418,img/planet13_left.png,13,Community 1,NA,TRUE,f,f,NA,NA,NA,1,6,"11,13,6,15,1,4,8,10,9,7,5,2,12,14,3"
14401,commdev-image-keyboard-response,214,475562,learnblock1,544,img/planet6_left.png,6,Community 1,NA,TRUE,f,f,NA,NA,NA,1,6,"11,13,6,15,1,4,8,10,9,7,5,2,12,14,3"
14401,commdev-image-keyboard-response,215,476822,learnblock1,613,img/planet1_right.png,1,Community 1,NA,TRUE,j,j,NA,NA,NA,1,6,"11,13,6,15,1,4,8,10,9,7,5,2,12,14,3"
14401,commdev-image-keyboard-response,216,478082,learnblock1,477.0000000000582,img/planet5_left.png,5,Community 3,NA,TRUE,f,f,NA,NA,NA,1,6,"11,13,6,15,1,4,8,10,9,7,5,2,12,14,3"
14401,commdev-image-keyboard-response,217,479342,learnblock1,635,img/planet14_left.png,14,Community 3,NA,TRUE,f,f,NA,NA,NA,1,6,"11,13,6,15,1,4,8,10,9,7,5,2,12,14,3"
14401,commdev-image-keyboard-response,218,480601,learnblock1,556,img/planet2_right.png,2,Community 3,NA,TRUE,j,j,NA,NA,NA,1,6,"11,13,6,15,1,4,8,10,9,7,5,2,12,14,3"
14401,commdev-image-keyboard-response,219,481862,learnblock1,490,img/planet12_left.png,12,Community 3,NA,TRUE,f,f,NA,NA,NA,1,6,"11,13,6,15,1,4,8,10,9,7,5,2,12,14,3"
14401,commdev-image-keyboard-response,220,483122,learnblock1,548,img/planet5_right.png,5,Community 3,NA,TRUE,j,j,NA,NA,NA,1,6,"11,13,6,15,1,4,8,10,9,7,5,2,12,14,3"
14401,commdev-image-keyboard-response,221,484382,learnblock1,501,img/planet12_left.png,12,Community 3,NA,TRUE,f,f,NA,NA,NA,1,6,"11,13,6,15,1,4,8,10,9,7,5,2,12,14,3"
14401,commdev-image-keyboard-response,222,485642,learnblock1,644,img/planet5_left.png,5,Community 3,NA,TRUE,f,f,NA,NA,NA,1,6,"11,13,6,15,1,4,8,10,9,7,5,2,12,14,3"
14401,commdev-image-keyboard-response,223,486902,learnblock1,629,img/planet1_right.png,1,Community 1,NA,TRUE,j,j,NA,NA,NA,1,6,"11,13,6,15,1,4,8,10,9,7,5,2,12,14,3"
14401,commdev-image-keyboard-response,224,488161,learnblock1,689,img/planet13_right.png,13,Community 1,NA,TRUE,j,j,NA,NA,NA,1,6,"11,13,6,15,1,4,8,10,9,7,5,2,12,14,3"
14401,commdev-image-keyboard-response,225,489422,learnblock1,584,img/planet6_left.png,6,Community 1,NA,TRUE,f,f,NA,NA,NA,1,6,"11,13,6,15,1,4,8,10,9,7,5,2,12,14,3"
14401,commdev-image-keyboard-response,226,490682,learnblock1,524,img/planet15_right.png,15,Community 1,NA,TRUE,j,j,NA,NA,NA,1,6,"11,13,6,15,1,4,8,10,9,7,5,2,12,14,3"
14401,commdev-image-keyboard-response,227,491942,learnblock1,535,img/planet13_left.png,13,Community 1,NA,TRUE,f,f,NA,NA,NA,1,6,"11,13,6,15,1,4,8,10,9,7,5,2,12,14,3"
14401,commdev-image-keyboard-response,228,493202,learnblock1,627.9999999999418,img/planet15_left.png,15,Community 1,NA,TRUE,f,f,NA,NA,NA,1,6,"11,13,6,15,1,4,8,10,9,7,5,2,12,14,3"
14401,commdev-image-keyboard-response,229,494462,learnblock1,643.0000000000582,img/planet13_right.png,13,Community 1,NA,TRUE,j,j,NA,NA,NA,1,6,"11,13,6,15,1,4,8,10,9,7,5,2,12,14,3"
14401,commdev-image-keyboard-response,230,495723,learnblock1,634,img/planet1_left.png,1,Community 1,NA,TRUE,f,f,NA,NA,NA,1,6,"11,13,6,15,1,4,8,10,9,7,5,2,12,14,3"
14401,commdev-image-keyboard-response,231,496982,learnblock1,734,img/planet11_right.png,11,Community 1,NA,TRUE,j,j,NA,NA,NA,1,6,"11,13,6,15,1,4,8,10,9,7,5,2,12,14,3"
14401,commdev-image-keyboard-response,232,498243,learnblock1,699.9999999999418,img/planet15_left.png,15,Community 1,NA,TRUE,f,f,NA,NA,NA,1,6,"11,13,6,15,1,4,8,10,9,7,5,2,12,14,3"
14401,commdev-image-keyboard-response,233,499502,learnblock1,693,img/planet11_left.png,11,Community 1,NA,TRUE,f,f,NA,NA,NA,1,6,"11,13,6,15,1,4,8,10,9,7,5,2,12,14,3"
14401,commdev-image-keyboard-response,234,500763,learnblock1,585,img/planet15_right.png,15,Community 1,NA,TRUE,j,j,NA,NA,NA,1,6,"11,13,6,15,1,4,8,10,9,7,5,2,12,14,3"
14401,commdev-image-keyboard-response,235,502022,learnblock1,637,img/planet11_right.png,11,Community 1,NA,TRUE,j,j,NA,NA,NA,1,6,"11,13,6,15,1,4,8,10,9,7,5,2,12,14,3"
14401,commdev-image-keyboard-response,236,503283,learnblock1,621.0000000000582,img/planet15_right.png,15,Community 1,NA,FALSE,f,j,NA,NA,NA,1,6,"11,13,6,15,1,4,8,10,9,7,5,2,12,14,3"
14401,commdev-image-keyboard-response,237,504542,learnblock1,626,img/planet6_left.png,6,Community 1,NA,TRUE,f,f,NA,NA,NA,1,6,"11,13,6,15,1,4,8,10,9,7,5,2,12,14,3"
14401,commdev-image-keyboard-response,238,505803,learnblock1,712.9999999999418,img/planet15_left.png,15,Community 1,NA,TRUE,f,f,NA,NA,NA,1,6,"11,13,6,15,1,4,8,10,9,7,5,2,12,14,3"
14401,commdev-image-keyboard-response,239,507062,learnblock1,663.0000000000582,img/planet6_left.png,6,Community 1,NA,TRUE,f,f,NA,NA,NA,1,6,"11,13,6,15,1,4,8,10,9,7,5,2,12,14,3"
14401,commdev-image-keyboard-response,240,508322,learnblock1,635,img/planet11_right.png,11,Community 1,NA,TRUE,j,j,NA,NA,NA,1,6,"11,13,6,15,1,4,8,10,9,7,5,2,12,14,3"
14401,commdev-image-keyboard-response,241,509582,learnblock1,762.0000000000582,img/planet1_left.png,1,Community 1,NA,TRUE,f,f,NA,NA,NA,1,6,"11,13,6,15,1,4,8,10,9,7,5,2,12,14,3"
14401,commdev-image-keyboard-response,242,510843,learnblock1,758,img/planet6_left.png,6,Community 1,NA,TRUE,f,f,NA,NA,NA,1,6,"11,13,6,15,1,4,8,10,9,7,5,2,12,14,3"
14401,commdev-image-keyboard-response,243,512102,learnblock1,623.0000000000582,img/planet1_right.png,1,Community 1,NA,TRUE,j,j,NA,NA,NA,1,6,"11,13,6,15,1,4,8,10,9,7,5,2,12,14,3"
14401,commdev-image-keyboard-response,244,513362,learnblock1,610,img/planet11_left.png,11,Community 1,NA,TRUE,f,f,NA,NA,NA,1,6,"11,13,6,15,1,4,8,10,9,7,5,2,12,14,3"
14401,commdev-image-keyboard-response,245,514622,learnblock1,591,img/planet6_right.png,6,Community 1,NA,TRUE,j,j,NA,NA,NA,1,6,"11,13,6,15,1,4,8,10,9,7,5,2,12,14,3"
14401,commdev-image-keyboard-response,246,515883,learnblock1,558.0000000001164,img/planet13_left.png,13,Community 1,NA,TRUE,f,f,NA,NA,NA,1,6,"11,13,6,15,1,4,8,10,9,7,5,2,12,14,3"
14401,commdev-image-keyboard-response,247,517142,learnblock1,645,img/planet11_right.png,11,Community 1,NA,FALSE,f,j,NA,NA,NA,1,6,"11,13,6,15,1,4,8,10,9,7,5,2,12,14,3"
14401,commdev-image-keyboard-response,248,518403,learnblock1,769.0000000000582,img/planet13_left.png,13,Community 1,NA,TRUE,f,f,NA,NA,NA,1,6,"11,13,6,15,1,4,8,10,9,7,5,2,12,14,3"
14401,commdev-image-keyboard-response,249,519663,learnblock1,618.9999999998836,img/planet1_right.png,1,Community 1,NA,TRUE,j,j,NA,NA,NA,1,6,"11,13,6,15,1,4,8,10,9,7,5,2,12,14,3"
14401,commdev-image-keyboard-response,250,520923,learnblock1,591.9999999999418,img/planet13_left.png,13,Community 1,NA,TRUE,f,f,NA,NA,NA,1,6,"11,13,6,15,1,4,8,10,9,7,5,2,12,14,3"
14401,commdev-image-keyboard-response,251,522182,learnblock1,574.9999999999418,img/planet6_right.png,6,Community 1,NA,TRUE,j,j,NA,NA,NA,1,6,"11,13,6,15,1,4,8,10,9,7,5,2,12,14,3"
14401,commdev-image-keyboard-response,252,523443,learnblock1,653.9999999999418,img/planet1_left.png,1,Community 1,NA,TRUE,f,f,NA,NA,NA,1,6,"11,13,6,15,1,4,8,10,9,7,5,2,12,14,3"
14401,commdev-image-keyboard-response,253,524703,learnblock1,659,img/planet11_left.png,11,Community 1,NA,TRUE,f,f,NA,NA,NA,1,6,"11,13,6,15,1,4,8,10,9,7,5,2,12,14,3"
14401,commdev-image-keyboard-response,254,525964,learnblock1,641,img/planet1_right.png,1,Community 1,NA,TRUE,j,j,NA,NA,NA,1,6,"11,13,6,15,1,4,8,10,9,7,5,2,12,14,3"
14401,commdev-image-keyboard-response,255,527221,learnblock1,772,img/planet6_right.png,6,Community 1,NA,TRUE,j,j,NA,NA,NA,1,6,"11,13,6,15,1,4,8,10,9,7,5,2,12,14,3"
14401,commdev-image-keyboard-response,256,528480,learnblock1,735,img/planet15_left.png,15,Community 1,NA,TRUE,f,f,NA,NA,NA,1,6,"11,13,6,15,1,4,8,10,9,7,5,2,12,14,3"
14401,commdev-image-keyboard-response,257,529738,learnblock1,851,img/planet6_left.png,6,Community 1,NA,TRUE,f,f,NA,NA,NA,1,6,"11,13,6,15,1,4,8,10,9,7,5,2,12,14,3"
14401,commdev-image-keyboard-response,258,530996,learnblock1,640,img/planet13_left.png,13,Community 1,NA,TRUE,f,f,NA,NA,NA,1,6,"11,13,6,15,1,4,8,10,9,7,5,2,12,14,3"
14401,commdev-image-keyboard-response,259,532255,learnblock1,567,img/planet11_left.png,11,Community 1,NA,TRUE,f,f,NA,NA,NA,1,6,"11,13,6,15,1,4,8,10,9,7,5,2,12,14,3"
14401,commdev-image-keyboard-response,260,533514,learnblock1,645.0000000001164,img/planet6_right.png,6,Community 1,NA,TRUE,j,j,NA,NA,NA,1,6,"11,13,6,15,1,4,8,10,9,7,5,2,12,14,3"
14401,commdev-image-keyboard-response,261,534772,learnblock1,690,img/planet1_left.png,1,Community 1,NA,TRUE,f,f,NA,NA,NA,1,6,"11,13,6,15,1,4,8,10,9,7,5,2,12,14,3"
14401,commdev-image-keyboard-response,262,536032,learnblock1,694.9999999998836,img/planet5_left.png,5,Community 3,NA,TRUE,f,f,NA,NA,NA,1,6,"11,13,6,15,1,4,8,10,9,7,5,2,12,14,3"
14401,commdev-image-keyboard-response,263,537290,learnblock1,766,img/planet14_right.png,14,Community 3,NA,TRUE,j,j,NA,NA,NA,1,6,"11,13,6,15,1,4,8,10,9,7,5,2,12,14,3"
14401,commdev-image-keyboard-response,264,538550,learnblock1,678,img/planet5_left.png,5,Community 3,NA,TRUE,f,f,NA,NA,NA,1,6,"11,13,6,15,1,4,8,10,9,7,5,2,12,14,3"
14401,commdev-image-keyboard-response,265,539808,learnblock1,864,img/planet3_left.png,3,Community 3,NA,TRUE,f,f,NA,NA,NA,1,6,"11,13,6,15,1,4,8,10,9,7,5,2,12,14,3"
14401,commdev-image-keyboard-response,266,541069,learnblock1,660,img/planet12_right.png,12,Community 3,NA,TRUE,j,j,NA,NA,NA,1,6,"11,13,6,15,1,4,8,10,9,7,5,2,12,14,3"
14401,commdev-image-keyboard-response,267,542327,learnblock1,614,img/planet14_right.png,14,Community 3,NA,TRUE,j,j,NA,NA,NA,1,6,"11,13,6,15,1,4,8,10,9,7,5,2,12,14,3"
14401,commdev-image-keyboard-response,268,543586,learnblock1,691,img/planet3_left.png,3,Community 3,NA,TRUE,f,f,NA,NA,NA,1,6,"11,13,6,15,1,4,8,10,9,7,5,2,12,14,3"
14401,commdev-image-keyboard-response,269,544847,learnblock1,670,img/planet2_right.png,2,Community 3,NA,TRUE,j,j,NA,NA,NA,1,6,"11,13,6,15,1,4,8,10,9,7,5,2,12,14,3"
14401,commdev-image-keyboard-response,270,546106,learnblock1,644,img/planet14_left.png,14,Community 3,NA,TRUE,f,f,NA,NA,NA,1,6,"11,13,6,15,1,4,8,10,9,7,5,2,12,14,3"
14401,commdev-image-keyboard-response,271,547365,learnblock1,680,img/planet3_right.png,3,Community 3,NA,TRUE,j,j,NA,NA,NA,1,6,"11,13,6,15,1,4,8,10,9,7,5,2,12,14,3"
14401,commdev-image-keyboard-response,272,548625,learnblock1,670,img/planet5_right.png,5,Community 3,NA,TRUE,j,j,NA,NA,NA,1,6,"11,13,6,15,1,4,8,10,9,7,5,2,12,14,3"
14401,commdev-image-keyboard-response,273,549885,learnblock1,720,img/planet3_left.png,3,Community 3,NA,TRUE,f,f,NA,NA,NA,1,6,"11,13,6,15,1,4,8,10,9,7,5,2,12,14,3"
14401,commdev-image-keyboard-response,274,551144,learnblock1,660,img/planet14_left.png,14,Community 3,NA,TRUE,f,f,NA,NA,NA,1,6,"11,13,6,15,1,4,8,10,9,7,5,2,12,14,3"
14401,commdev-image-keyboard-response,275,552404,learnblock1,650,img/planet5_right.png,5,Community 3,NA,TRUE,j,j,NA,NA,NA,1,6,"11,13,6,15,1,4,8,10,9,7,5,2,12,14,3"
14401,commdev-image-keyboard-response,276,553664,learnblock1,597,img/planet12_left.png,12,Community 3,NA,TRUE,f,f,NA,NA,NA,1,6,"11,13,6,15,1,4,8,10,9,7,5,2,12,14,3"
14401,commdev-image-keyboard-response,277,554924,learnblock1,822,img/planet3_left.png,3,Community 3,NA,TRUE,f,f,NA,NA,NA,1,6,"11,13,6,15,1,4,8,10,9,7,5,2,12,14,3"
14401,commdev-image-keyboard-response,278,556183,learnblock1,611,img/planet12_right.png,12,Community 3,NA,TRUE,j,j,NA,NA,NA,1,6,"11,13,6,15,1,4,8,10,9,7,5,2,12,14,3"
14401,commdev-image-keyboard-response,279,557443,learnblock1,580,img/planet2_right.png,2,Community 3,NA,TRUE,j,j,NA,NA,NA,1,6,"11,13,6,15,1,4,8,10,9,7,5,2,12,14,3"
14401,commdev-image-keyboard-response,280,558703,learnblock1,575,img/planet3_left.png,3,Community 3,NA,TRUE,f,f,NA,NA,NA,1,6,"11,13,6,15,1,4,8,10,9,7,5,2,12,14,3"
14401,commdev-image-keyboard-response,281,559963,learnblock1,641.0000000001164,img/planet14_right.png,14,Community 3,NA,TRUE,j,j,NA,NA,NA,1,6,"11,13,6,15,1,4,8,10,9,7,5,2,12,14,3"
14401,commdev-image-keyboard-response,282,561222,learnblock1,616,img/planet12_left.png,12,Community 3,NA,TRUE,f,f,NA,NA,NA,1,6,"11,13,6,15,1,4,8,10,9,7,5,2,12,14,3"
14401,commdev-image-keyboard-response,283,562481,learnblock1,561,img/planet2_right.png,2,Community 3,NA,TRUE,j,j,NA,NA,NA,1,6,"11,13,6,15,1,4,8,10,9,7,5,2,12,14,3"
14401,commdev-image-keyboard-response,284,563742,learnblock1,694,img/planet12_right.png,12,Community 3,NA,TRUE,j,j,NA,NA,NA,1,6,"11,13,6,15,1,4,8,10,9,7,5,2,12,14,3"
14401,commdev-image-keyboard-response,285,565002,learnblock1,659.9999999998836,img/planet2_right.png,2,Community 3,NA,TRUE,j,j,NA,NA,NA,1,6,"11,13,6,15,1,4,8,10,9,7,5,2,12,14,3"
14401,commdev-image-keyboard-response,286,566262,learnblock1,642,img/planet12_right.png,12,Community 3,NA,TRUE,j,j,NA,NA,NA,1,6,"11,13,6,15,1,4,8,10,9,7,5,2,12,14,3"
14401,commdev-image-keyboard-response,287,567522,learnblock1,689,img/planet5_right.png,5,Community 3,NA,TRUE,j,j,NA,NA,NA,1,6,"11,13,6,15,1,4,8,10,9,7,5,2,12,14,3"
14401,commdev-image-keyboard-response,288,568781,learnblock1,610,img/planet3_left.png,3,Community 3,NA,TRUE,f,f,NA,NA,NA,1,6,"11,13,6,15,1,4,8,10,9,7,5,2,12,14,3"
14401,commdev-image-keyboard-response,289,570042,learnblock1,612,img/planet12_left.png,12,Community 3,NA,TRUE,f,f,NA,NA,NA,1,6,"11,13,6,15,1,4,8,10,9,7,5,2,12,14,3"
14401,commdev-image-keyboard-response,290,571301,learnblock1,685,img/planet3_left.png,3,Community 3,NA,TRUE,f,f,NA,NA,NA,1,6,"11,13,6,15,1,4,8,10,9,7,5,2,12,14,3"
14401,commdev-image-keyboard-response,291,572561,learnblock1,630,img/planet14_left.png,14,Community 3,NA,TRUE,f,f,NA,NA,NA,1,6,"11,13,6,15,1,4,8,10,9,7,5,2,12,14,3"
14401,commdev-image-keyboard-response,292,573821,learnblock1,636,img/planet3_right.png,3,Community 3,NA,TRUE,j,j,NA,NA,NA,1,6,"11,13,6,15,1,4,8,10,9,7,5,2,12,14,3"
14401,commdev-image-keyboard-response,293,575081,learnblock1,557,img/planet14_left.png,14,Community 3,NA,TRUE,f,f,NA,NA,NA,1,6,"11,13,6,15,1,4,8,10,9,7,5,2,12,14,3"
14401,commdev-image-keyboard-response,294,576341,learnblock1,509,img/planet3_right.png,3,Community 3,NA,TRUE,j,j,NA,NA,NA,1,6,"11,13,6,15,1,4,8,10,9,7,5,2,12,14,3"
14401,commdev-image-keyboard-response,295,577601,learnblock1,505,img/planet14_left.png,14,Community 3,NA,TRUE,f,f,NA,NA,NA,1,6,"11,13,6,15,1,4,8,10,9,7,5,2,12,14,3"
14401,commdev-image-keyboard-response,296,578861,learnblock1,496,img/planet12_right.png,12,Community 3,NA,TRUE,j,j,NA,NA,NA,1,6,"11,13,6,15,1,4,8,10,9,7,5,2,12,14,3"
14401,commdev-image-keyboard-response,297,580121,learnblock1,524.9999999998836,img/planet5_left.png,5,Community 3,NA,TRUE,f,f,NA,NA,NA,1,6,"11,13,6,15,1,4,8,10,9,7,5,2,12,14,3"
14401,commdev-image-keyboard-response,298,581380,learnblock1,562,img/planet3_right.png,3,Community 3,NA,TRUE,j,j,NA,NA,NA,1,6,"11,13,6,15,1,4,8,10,9,7,5,2,12,14,3"
14401,commdev-image-keyboard-response,299,582641,learnblock1,560,img/planet5_right.png,5,Community 3,NA,TRUE,j,j,NA,NA,NA,1,6,"11,13,6,15,1,4,8,10,9,7,5,2,12,14,3"
14401,commdev-image-keyboard-response,300,583901,learnblock1,604,img/planet12_right.png,12,Community 3,NA,TRUE,j,j,NA,NA,NA,1,6,"11,13,6,15,1,4,8,10,9,7,5,2,12,14,3"
14401,commdev-image-keyboard-response,301,585161,learnblock1,587,img/planet2_left.png,2,Community 3,NA,TRUE,f,f,NA,NA,NA,1,6,"11,13,6,15,1,4,8,10,9,7,5,2,12,14,3"
14401,commdev-image-keyboard-response,302,586421,learnblock1,600,img/planet14_right.png,14,Community 3,NA,TRUE,j,j,NA,NA,NA,1,6,"11,13,6,15,1,4,8,10,9,7,5,2,12,14,3"
14401,commdev-image-keyboard-response,303,587681,learnblock1,562,img/planet3_left.png,3,Community 3,NA,TRUE,f,f,NA,NA,NA,1,6,"11,13,6,15,1,4,8,10,9,7,5,2,12,14,3"
14401,commdev-image-keyboard-response,304,588941,learnblock1,739,img/planet5_left.png,5,Community 3,NA,TRUE,f,f,NA,NA,NA,1,6,"11,13,6,15,1,4,8,10,9,7,5,2,12,14,3"
14401,commdev-image-keyboard-response,305,590201,learnblock1,721,img/planet12_left.png,12,Community 3,NA,TRUE,f,f,NA,NA,NA,1,6,"11,13,6,15,1,4,8,10,9,7,5,2,12,14,3"
14401,commdev-image-keyboard-response,306,591461,learnblock1,673,img/planet3_right.png,3,Community 3,NA,TRUE,j,j,NA,NA,NA,1,6,"11,13,6,15,1,4,8,10,9,7,5,2,12,14,3"
14401,commdev-image-keyboard-response,307,592721,learnblock1,619,img/planet5_right.png,5,Community 3,NA,TRUE,j,j,NA,NA,NA,1,6,"11,13,6,15,1,4,8,10,9,7,5,2,12,14,3"
14401,commdev-image-keyboard-response,308,593981,learnblock1,690,img/planet3_right.png,3,Community 3,NA,TRUE,j,j,NA,NA,NA,1,6,"11,13,6,15,1,4,8,10,9,7,5,2,12,14,3"
14401,commdev-image-keyboard-response,309,595241,learnblock1,565.9999999998836,img/planet12_left.png,12,Community 3,NA,TRUE,f,f,NA,NA,NA,1,6,"11,13,6,15,1,4,8,10,9,7,5,2,12,14,3"
14401,commdev-image-keyboard-response,310,596501,learnblock1,621.9999999998836,img/planet2_left.png,2,Community 3,NA,TRUE,f,f,NA,NA,NA,1,6,"11,13,6,15,1,4,8,10,9,7,5,2,12,14,3"
14401,commdev-image-keyboard-response,311,597761,learnblock1,709,img/planet3_right.png,3,Community 3,NA,TRUE,j,j,NA,NA,NA,1,6,"11,13,6,15,1,4,8,10,9,7,5,2,12,14,3"
14401,commdev-image-keyboard-response,312,599021,learnblock1,668,img/planet14_right.png,14,Community 3,NA,TRUE,j,j,NA,NA,NA,1,6,"11,13,6,15,1,4,8,10,9,7,5,2,12,14,3"
14401,commdev-image-keyboard-response,313,600281,learnblock1,668,img/planet12_right.png,12,Community 3,NA,TRUE,j,j,NA,NA,NA,1,6,"11,13,6,15,1,4,8,10,9,7,5,2,12,14,3"
14401,commdev-image-keyboard-response,314,601541,learnblock1,688,img/planet3_right.png,3,Community 3,NA,TRUE,j,j,NA,NA,NA,1,6,"11,13,6,15,1,4,8,10,9,7,5,2,12,14,3"
14401,commdev-image-keyboard-response,315,602801,learnblock1,655,img/planet12_left.png,12,Community 3,NA,TRUE,f,f,NA,NA,NA,1,6,"11,13,6,15,1,4,8,10,9,7,5,2,12,14,3"
14401,commdev-image-keyboard-response,316,604061,learnblock1,675,img/planet14_right.png,14,Community 3,NA,TRUE,j,j,NA,NA,NA,1,6,"11,13,6,15,1,4,8,10,9,7,5,2,12,14,3"
14401,commdev-image-keyboard-response,317,605321,learnblock1,678,img/planet3_left.png,3,Community 3,NA,TRUE,f,f,NA,NA,NA,1,6,"11,13,6,15,1,4,8,10,9,7,5,2,12,14,3"
14401,commdev-image-keyboard-response,318,606581,learnblock1,672,img/planet14_right.png,14,Community 3,NA,TRUE,j,j,NA,NA,NA,1,6,"11,13,6,15,1,4,8,10,9,7,5,2,12,14,3"
14401,commdev-image-keyboard-response,319,607841,learnblock1,808,img/planet5_left.png,5,Community 3,NA,TRUE,f,f,NA,NA,NA,1,6,"11,13,6,15,1,4,8,10,9,7,5,2,12,14,3"
14401,commdev-image-keyboard-response,320,609101,learnblock1,573.0000000001164,img/planet3_right.png,3,Community 3,NA,TRUE,j,j,NA,NA,NA,1,6,"11,13,6,15,1,4,8,10,9,7,5,2,12,14,3"
14401,commdev-image-keyboard-response,321,610361,learnblock1,646,img/planet14_right.png,14,Community 3,NA,TRUE,j,j,NA,NA,NA,1,6,"11,13,6,15,1,4,8,10,9,7,5,2,12,14,3"
14401,commdev-image-keyboard-response,322,611621,learnblock1,596,img/planet2_left.png,2,Community 3,NA,TRUE,f,f,NA,NA,NA,1,6,"11,13,6,15,1,4,8,10,9,7,5,2,12,14,3"
14401,commdev-image-keyboard-response,323,612881,learnblock1,661,img/planet14_left.png,14,Community 3,NA,TRUE,f,f,NA,NA,NA,1,6,"11,13,6,15,1,4,8,10,9,7,5,2,12,14,3"
14401,commdev-image-keyboard-response,324,614141,learnblock1,701.0000000001164,img/planet3_left.png,3,Community 3,NA,TRUE,f,f,NA,NA,NA,1,6,"11,13,6,15,1,4,8,10,9,7,5,2,12,14,3"
14401,commdev-image-keyboard-response,325,615402,learnblock1,702,img/planet14_left.png,14,Community 3,NA,TRUE,f,f,NA,NA,NA,1,6,"11,13,6,15,1,4,8,10,9,7,5,2,12,14,3"
14401,commdev-image-keyboard-response,326,616661,learnblock1,605,img/planet3_right.png,3,Community 3,NA,TRUE,j,j,NA,NA,NA,1,6,"11,13,6,15,1,4,8,10,9,7,5,2,12,14,3"
14401,commdev-image-keyboard-response,327,617921,learnblock1,537,img/planet5_left.png,5,Community 3,NA,TRUE,f,f,NA,NA,NA,1,6,"11,13,6,15,1,4,8,10,9,7,5,2,12,14,3"
14401,commdev-image-keyboard-response,328,619181,learnblock1,759,img/planet1_left.png,1,Community 1,NA,TRUE,f,f,NA,NA,NA,1,6,"11,13,6,15,1,4,8,10,9,7,5,2,12,14,3"
14401,commdev-image-keyboard-response,329,620442,learnblock1,632,img/planet6_right.png,6,Community 1,NA,TRUE,j,j,NA,NA,NA,1,6,"11,13,6,15,1,4,8,10,9,7,5,2,12,14,3"
14401,commdev-image-keyboard-response,330,621701,learnblock1,559,img/planet1_left.png,1,Community 1,NA,TRUE,f,f,NA,NA,NA,1,6,"11,13,6,15,1,4,8,10,9,7,5,2,12,14,3"
14401,commdev-image-keyboard-response,331,622962,learnblock1,635,img/planet13_left.png,13,Community 1,NA,TRUE,f,f,NA,NA,NA,1,6,"11,13,6,15,1,4,8,10,9,7,5,2,12,14,3"
14401,commdev-image-keyboard-response,332,624221,learnblock1,673,img/planet15_left.png,15,Community 1,NA,TRUE,f,f,NA,NA,NA,1,6,"11,13,6,15,1,4,8,10,9,7,5,2,12,14,3"
14401,commdev-image-keyboard-response,333,625481,learnblock1,594,img/planet6_right.png,6,Community 1,NA,TRUE,j,j,NA,NA,NA,1,6,"11,13,6,15,1,4,8,10,9,7,5,2,12,14,3"
14401,commdev-image-keyboard-response,334,626741,learnblock1,524,img/planet15_left.png,15,Community 1,NA,TRUE,f,f,NA,NA,NA,1,6,"11,13,6,15,1,4,8,10,9,7,5,2,12,14,3"
14401,commdev-image-keyboard-response,335,628001,learnblock1,690,img/planet4_left.png,4,Community 2,NA,TRUE,f,f,NA,NA,NA,1,6,"11,13,6,15,1,4,8,10,9,7,5,2,12,14,3"
14401,commdev-image-keyboard-response,336,629261,learnblock1,662,img/planet7_right.png,7,Community 2,NA,TRUE,j,j,NA,NA,NA,1,6,"11,13,6,15,1,4,8,10,9,7,5,2,12,14,3"
14401,commdev-image-keyboard-response,337,630522,learnblock1,755.9999999998836,img/planet9_right.png,9,Community 2,NA,TRUE,j,j,NA,NA,NA,1,6,"11,13,6,15,1,4,8,10,9,7,5,2,12,14,3"
14401,commdev-image-keyboard-response,338,631781,learnblock1,602,img/planet7_left.png,7,Community 2,NA,TRUE,f,f,NA,NA,NA,1,6,"11,13,6,15,1,4,8,10,9,7,5,2,12,14,3"
14401,commdev-image-keyboard-response,339,633042,learnblock1,595,img/planet9_right.png,9,Community 2,NA,TRUE,j,j,NA,NA,NA,1,6,"11,13,6,15,1,4,8,10,9,7,5,2,12,14,3"
14401,commdev-image-keyboard-response,340,634301,learnblock1,602,img/planet10_left.png,10,Community 2,NA,TRUE,f,f,NA,NA,NA,1,6,"11,13,6,15,1,4,8,10,9,7,5,2,12,14,3"
14401,commdev-image-keyboard-response,341,635562,learnblock1,730,img/planet9_left.png,9,Community 2,NA,TRUE,f,f,NA,NA,NA,1,6,"11,13,6,15,1,4,8,10,9,7,5,2,12,14,3"
14401,commdev-image-keyboard-response,342,636821,learnblock1,610,img/planet8_right.png,8,Community 2,NA,TRUE,j,j,NA,NA,NA,1,6,"11,13,6,15,1,4,8,10,9,7,5,2,12,14,3"
14401,commdev-image-keyboard-response,343,638082,learnblock1,577,img/planet4_right.png,4,Community 2,NA,TRUE,j,j,NA,NA,NA,1,6,"11,13,6,15,1,4,8,10,9,7,5,2,12,14,3"
14401,commdev-image-keyboard-response,344,639342,learnblock1,594,img/planet9_right.png,9,Community 2,NA,TRUE,j,j,NA,NA,NA,1,6,"11,13,6,15,1,4,8,10,9,7,5,2,12,14,3"
14401,commdev-image-keyboard-response,345,640602,learnblock1,630,img/planet8_right.png,8,Community 2,NA,TRUE,j,j,NA,NA,NA,1,6,"11,13,6,15,1,4,8,10,9,7,5,2,12,14,3"
14401,commdev-image-keyboard-response,346,641861,learnblock1,592,img/planet10_left.png,10,Community 2,NA,TRUE,f,f,NA,NA,NA,1,6,"11,13,6,15,1,4,8,10,9,7,5,2,12,14,3"
14401,commdev-image-keyboard-response,347,643122,learnblock1,684,img/planet9_left.png,9,Community 2,NA,TRUE,f,f,NA,NA,NA,1,6,"11,13,6,15,1,4,8,10,9,7,5,2,12,14,3"
14401,commdev-image-keyboard-response,351,689471,learnblock2,1216.9999999998836,img/planet15_right.png,15,Community 1,NA,TRUE,j,j,NA,NA,NA,1,6,"11,13,6,15,1,4,8,10,9,7,5,2,12,14,3"
14401,commdev-image-keyboard-response,352,690723,learnblock2,804,img/planet13_left.png,13,Community 1,NA,TRUE,f,f,NA,NA,NA,1,6,"11,13,6,15,1,4,8,10,9,7,5,2,12,14,3"
14401,commdev-image-keyboard-response,353,691975,learnblock2,706,img/planet11_right.png,11,Community 1,NA,TRUE,j,j,NA,NA,NA,1,6,"11,13,6,15,1,4,8,10,9,7,5,2,12,14,3"
14401,commdev-image-keyboard-response,354,693227,learnblock2,624,img/planet15_left.png,15,Community 1,NA,FALSE,j,f,NA,NA,NA,1,6,"11,13,6,15,1,4,8,10,9,7,5,2,12,14,3"
14401,commdev-image-keyboard-response,355,694478,learnblock2,549,img/planet4_right.png,4,Community 2,NA,TRUE,j,j,NA,NA,NA,1,6,"11,13,6,15,1,4,8,10,9,7,5,2,12,14,3"
14401,commdev-image-keyboard-response,356,695730,learnblock2,606.0000000001164,img/planet8_left.png,8,Community 2,NA,TRUE,f,f,NA,NA,NA,1,6,"11,13,6,15,1,4,8,10,9,7,5,2,12,14,3"
14401,commdev-image-keyboard-response,357,696982,learnblock2,730.0000000001164,img/planet7_right.png,7,Community 2,NA,TRUE,j,j,NA,NA,NA,1,6,"11,13,6,15,1,4,8,10,9,7,5,2,12,14,3"
14401,commdev-image-keyboard-response,358,698234,learnblock2,553,img/planet8_left.png,8,Community 2,NA,FALSE,j,f,NA,NA,NA,1,6,"11,13,6,15,1,4,8,10,9,7,5,2,12,14,3"
14401,commdev-image-keyboard-response,359,699486,learnblock2,527.9999999998836,img/planet4_right.png,4,Community 2,NA,TRUE,j,j,NA,NA,NA,1,6,"11,13,6,15,1,4,8,10,9,7,5,2,12,14,3"
14401,commdev-image-keyboard-response,360,700737,learnblock2,623.0000000001164,img/planet15_left.png,15,Community 1,NA,TRUE,f,f,NA,NA,NA,1,6,"11,13,6,15,1,4,8,10,9,7,5,2,12,14,3"
14401,commdev-image-keyboard-response,361,702014,learnblock2,579.0000000001164,img/planet6_right.png,6,Community 1,NA,TRUE,j,j,NA,NA,NA,1,6,"11,13,6,15,1,4,8,10,9,7,5,2,12,14,3"
14401,commdev-image-keyboard-response,362,703274,learnblock2,568,img/planet1_left.png,1,Community 1,NA,TRUE,f,f,NA,NA,NA,1,6,"11,13,6,15,1,4,8,10,9,7,5,2,12,14,3"
14401,commdev-image-keyboard-response,363,704534,learnblock2,649,img/planet13_left.png,13,Community 1,NA,TRUE,f,f,NA,NA,NA,1,6,"11,13,6,15,1,4,8,10,9,7,5,2,12,14,3"
14401,commdev-image-keyboard-response,364,705794,learnblock2,627,img/planet15_left.png,15,Community 1,NA,TRUE,f,f,NA,NA,NA,1,6,"11,13,6,15,1,4,8,10,9,7,5,2,12,14,3"
14401,commdev-image-keyboard-response,365,707054,learnblock2,584,img/planet4_right.png,4,Community 2,NA,TRUE,j,j,NA,NA,NA,1,6,"11,13,6,15,1,4,8,10,9,7,5,2,12,14,3"
14401,commdev-image-keyboard-response,366,708314,learnblock2,606,img/planet8_left.png,8,Community 2,NA,TRUE,f,f,NA,NA,NA,1,6,"11,13,6,15,1,4,8,10,9,7,5,2,12,14,3"
14401,commdev-image-keyboard-response,367,709574,learnblock2,656.0000000001164,img/planet10_right.png,10,Community 2,NA,TRUE,j,j,NA,NA,NA,1,6,"11,13,6,15,1,4,8,10,9,7,5,2,12,14,3"
14401,commdev-image-keyboard-response,368,710834,learnblock2,583.0000000001164,img/planet9_right.png,9,Community 2,NA,TRUE,j,j,NA,NA,NA,1,6,"11,13,6,15,1,4,8,10,9,7,5,2,12,14,3"
14401,commdev-image-keyboard-response,369,712094,learnblock2,559.0000000001164,img/planet7_left.png,7,Community 2,NA,TRUE,f,f,NA,NA,NA,1,6,"11,13,6,15,1,4,8,10,9,7,5,2,12,14,3"
14401,commdev-image-keyboard-response,370,713354,learnblock2,729,img/planet8_left.png,8,Community 2,NA,TRUE,f,f,NA,NA,NA,1,6,"11,13,6,15,1,4,8,10,9,7,5,2,12,14,3"
14401,commdev-image-keyboard-response,371,714614,learnblock2,631.0000000001164,img/planet7_right.png,7,Community 2,NA,TRUE,j,j,NA,NA,NA,1,6,"11,13,6,15,1,4,8,10,9,7,5,2,12,14,3"
14401,commdev-image-keyboard-response,372,715874,learnblock2,567.9999999998836,img/planet4_right.png,4,Community 2,NA,TRUE,j,j,NA,NA,NA,1,6,"11,13,6,15,1,4,8,10,9,7,5,2,12,14,3"
14401,commdev-image-keyboard-response,373,717134,learnblock2,772,img/planet15_right.png,15,Community 1,NA,TRUE,j,j,NA,NA,NA,1,6,"11,13,6,15,1,4,8,10,9,7,5,2,12,14,3"
14401,commdev-image-keyboard-response,374,718395,learnblock2,585,img/planet13_right.png,13,Community 1,NA,TRUE,j,j,NA,NA,NA,1,6,"11,13,6,15,1,4,8,10,9,7,5,2,12,14,3"
14401,commdev-image-keyboard-response,375,719654,learnblock2,634,img/planet11_left.png,11,Community 1,NA,TRUE,f,f,NA,NA,NA,1,6,"11,13,6,15,1,4,8,10,9,7,5,2,12,14,3"
14401,commdev-image-keyboard-response,376,720915,learnblock2,620,img/planet6_right.png,6,Community 1,NA,TRUE,j,j,NA,NA,NA,1,6,"11,13,6,15,1,4,8,10,9,7,5,2,12,14,3"
14401,commdev-image-keyboard-response,377,722174,learnblock2,594.0000000001164,img/planet15_left.png,15,Community 1,NA,TRUE,f,f,NA,NA,NA,1,6,"11,13,6,15,1,4,8,10,9,7,5,2,12,14,3"
14401,commdev-image-keyboard-response,378,723434,learnblock2,718,img/planet11_right.png,11,Community 1,NA,TRUE,j,j,NA,NA,NA,1,6,"11,13,6,15,1,4,8,10,9,7,5,2,12,14,3"
14401,commdev-image-keyboard-response,379,724695,learnblock2,601,img/planet1_left.png,1,Community 1,NA,TRUE,f,f,NA,NA,NA,1,6,"11,13,6,15,1,4,8,10,9,7,5,2,12,14,3"
14401,commdev-image-keyboard-response,380,725954,learnblock2,630,img/planet13_right.png,13,Community 1,NA,TRUE,j,j,NA,NA,NA,1,6,"11,13,6,15,1,4,8,10,9,7,5,2,12,14,3"
14401,commdev-image-keyboard-response,381,727214,learnblock2,690.0000000001164,img/planet11_right.png,11,Community 1,NA,TRUE,j,j,NA,NA,NA,1,6,"11,13,6,15,1,4,8,10,9,7,5,2,12,14,3"
14401,commdev-image-keyboard-response,382,728475,learnblock2,590,img/planet1_right.png,1,Community 1,NA,TRUE,j,j,NA,NA,NA,1,6,"11,13,6,15,1,4,8,10,9,7,5,2,12,14,3"
14401,commdev-image-keyboard-response,383,729735,learnblock2,640.0000000001164,img/planet11_left.png,11,Community 1,NA,TRUE,f,f,NA,NA,NA,1,6,"11,13,6,15,1,4,8,10,9,7,5,2,12,14,3"
14401,commdev-image-keyboard-response,384,730995,learnblock2,616.9999999998836,img/planet13_right.png,13,Community 1,NA,TRUE,j,j,NA,NA,NA,1,6,"11,13,6,15,1,4,8,10,9,7,5,2,12,14,3"
14401,commdev-image-keyboard-response,385,732255,learnblock2,906.9999999998836,img/planet15_left.png,15,Community 1,NA,TRUE,f,f,NA,NA,NA,1,6,"11,13,6,15,1,4,8,10,9,7,5,2,12,14,3"
14401,commdev-image-keyboard-response,386,733515,learnblock2,750,img/planet13_left.png,13,Community 1,NA,TRUE,f,f,NA,NA,NA,1,6,"11,13,6,15,1,4,8,10,9,7,5,2,12,14,3"
14401,commdev-image-keyboard-response,387,734775,learnblock2,589,img/planet15_left.png,15,Community 1,NA,TRUE,f,f,NA,NA,NA,1,6,"11,13,6,15,1,4,8,10,9,7,5,2,12,14,3"
14401,commdev-image-keyboard-response,388,736035,learnblock2,685,img/planet6_right.png,6,Community 1,NA,TRUE,j,j,NA,NA,NA,1,6,"11,13,6,15,1,4,8,10,9,7,5,2,12,14,3"
14401,commdev-image-keyboard-response,389,737295,learnblock2,654,img/planet1_right.png,1,Community 1,NA,TRUE,j,j,NA,NA,NA,1,6,"11,13,6,15,1,4,8,10,9,7,5,2,12,14,3"
14401,commdev-image-keyboard-response,390,738555,learnblock2,601,img/planet6_right.png,6,Community 1,NA,TRUE,j,j,NA,NA,NA,1,6,"11,13,6,15,1,4,8,10,9,7,5,2,12,14,3"
14401,commdev-image-keyboard-response,391,739815,learnblock2,520,img/planet11_left.png,11,Community 1,NA,TRUE,f,f,NA,NA,NA,1,6,"11,13,6,15,1,4,8,10,9,7,5,2,12,14,3"
14401,commdev-image-keyboard-response,392,741075,learnblock2,598.0000000001164,img/planet1_left.png,1,Community 1,NA,TRUE,f,f,NA,NA,NA,1,6,"11,13,6,15,1,4,8,10,9,7,5,2,12,14,3"
14401,commdev-image-keyboard-response,393,742335,learnblock2,781,img/planet6_left.png,6,Community 1,NA,TRUE,f,f,NA,NA,NA,1,6,"11,13,6,15,1,4,8,10,9,7,5,2,12,14,3"
14401,commdev-image-keyboard-response,394,743595,learnblock2,665,img/planet1_right.png,1,Community 1,NA,TRUE,j,j,NA,NA,NA,1,6,"11,13,6,15,1,4,8,10,9,7,5,2,12,14,3"
14401,commdev-image-keyboard-response,395,744855,learnblock2,620,img/planet6_right.png,6,Community 1,NA,TRUE,j,j,NA,NA,NA,1,6,"11,13,6,15,1,4,8,10,9,7,5,2,12,14,3"
14401,commdev-image-keyboard-response,396,746115,learnblock2,749,img/planet15_left.png,15,Community 1,NA,TRUE,f,f,NA,NA,NA,1,6,"11,13,6,15,1,4,8,10,9,7,5,2,12,14,3"
14401,commdev-image-keyboard-response,397,747375,learnblock2,684.9999999998836,img/planet6_left.png,6,Community 1,NA,TRUE,f,f,NA,NA,NA,1,6,"11,13,6,15,1,4,8,10,9,7,5,2,12,14,3"
14401,commdev-image-keyboard-response,398,748636,learnblock2,690,img/planet13_left.png,13,Community 1,NA,TRUE,f,f,NA,NA,NA,1,6,"11,13,6,15,1,4,8,10,9,7,5,2,12,14,3"
14401,commdev-image-keyboard-response,399,749895,learnblock2,576,img/planet11_right.png,11,Community 1,NA,TRUE,j,j,NA,NA,NA,1,6,"11,13,6,15,1,4,8,10,9,7,5,2,12,14,3"
14401,commdev-image-keyboard-response,400,751156,learnblock2,633,img/planet6_right.png,6,Community 1,NA,TRUE,j,j,NA,NA,NA,1,6,"11,13,6,15,1,4,8,10,9,7,5,2,12,14,3"
14401,commdev-image-keyboard-response,401,752415,learnblock2,585.0000000001164,img/planet13_right.png,13,Community 1,NA,TRUE,j,j,NA,NA,NA,1,6,"11,13,6,15,1,4,8,10,9,7,5,2,12,14,3"
14401,commdev-image-keyboard-response,402,753675,learnblock2,557.0000000001164,img/planet6_right.png,6,Community 1,NA,TRUE,j,j,NA,NA,NA,1,6,"11,13,6,15,1,4,8,10,9,7,5,2,12,14,3"
14401,commdev-image-keyboard-response,403,754935,learnblock2,595,img/planet13_right.png,13,Community 1,NA,TRUE,j,j,NA,NA,NA,1,6,"11,13,6,15,1,4,8,10,9,7,5,2,12,14,3"
14401,commdev-image-keyboard-response,404,756196,learnblock2,484.0000000001164,img/planet6_right.png,6,Community 1,NA,TRUE,j,j,NA,NA,NA,1,6,"11,13,6,15,1,4,8,10,9,7,5,2,12,14,3"
14401,commdev-image-keyboard-response,405,757455,learnblock2,746.0000000001164,img/planet11_left.png,11,Community 1,NA,TRUE,f,f,NA,NA,NA,1,6,"11,13,6,15,1,4,8,10,9,7,5,2,12,14,3"
14401,commdev-image-keyboard-response,406,758716,learnblock2,543,img/planet13_right.png,13,Community 1,NA,TRUE,j,j,NA,NA,NA,1,6,"11,13,6,15,1,4,8,10,9,7,5,2,12,14,3"
14401,commdev-image-keyboard-response,407,759975,learnblock2,568.0000000001164,img/planet6_left.png,6,Community 1,NA,TRUE,f,f,NA,NA,NA,1,6,"11,13,6,15,1,4,8,10,9,7,5,2,12,14,3"
14401,commdev-image-keyboard-response,408,761236,learnblock2,560,img/planet15_right.png,15,Community 1,NA,TRUE,j,j,NA,NA,NA,1,6,"11,13,6,15,1,4,8,10,9,7,5,2,12,14,3"
14401,commdev-image-keyboard-response,409,762495,learnblock2,562,img/planet6_right.png,6,Community 1,NA,TRUE,j,j,NA,NA,NA,1,6,"11,13,6,15,1,4,8,10,9,7,5,2,12,14,3"
14401,commdev-image-keyboard-response,410,763756,learnblock2,710.9999999998836,img/planet15_right.png,15,Community 1,NA,TRUE,j,j,NA,NA,NA,1,6,"11,13,6,15,1,4,8,10,9,7,5,2,12,14,3"
14401,commdev-image-keyboard-response,411,765015,learnblock2,581.0000000001164,img/planet11_right.png,11,Community 1,NA,TRUE,j,j,NA,NA,NA,1,6,"11,13,6,15,1,4,8,10,9,7,5,2,12,14,3"
14401,commdev-image-keyboard-response,412,766276,learnblock2,578.9999999998836,img/planet1_right.png,1,Community 1,NA,TRUE,j,j,NA,NA,NA,1,6,"11,13,6,15,1,4,8,10,9,7,5,2,12,14,3"
14401,commdev-image-keyboard-response,413,767535,learnblock2,674,img/planet6_left.png,6,Community 1,NA,TRUE,f,f,NA,NA,NA,1,6,"11,13,6,15,1,4,8,10,9,7,5,2,12,14,3"
14401,commdev-image-keyboard-response,414,768796,learnblock2,626,img/planet15_left.png,15,Community 1,NA,TRUE,f,f,NA,NA,NA,1,6,"11,13,6,15,1,4,8,10,9,7,5,2,12,14,3"
14401,commdev-image-keyboard-response,415,770055,learnblock2,628,img/planet11_left.png,11,Community 1,NA,TRUE,f,f,NA,NA,NA,1,6,"11,13,6,15,1,4,8,10,9,7,5,2,12,14,3"
14401,commdev-image-keyboard-response,416,771316,learnblock2,734,img/planet6_right.png,6,Community 1,NA,TRUE,j,j,NA,NA,NA,1,6,"11,13,6,15,1,4,8,10,9,7,5,2,12,14,3"
14401,commdev-image-keyboard-response,417,772575,learnblock2,685,img/planet11_left.png,11,Community 1,NA,TRUE,f,f,NA,NA,NA,1,6,"11,13,6,15,1,4,8,10,9,7,5,2,12,14,3"
14401,commdev-image-keyboard-response,418,773836,learnblock2,634,img/planet1_left.png,1,Community 1,NA,TRUE,f,f,NA,NA,NA,1,6,"11,13,6,15,1,4,8,10,9,7,5,2,12,14,3"
14401,commdev-image-keyboard-response,419,775095,learnblock2,557,img/planet11_right.png,11,Community 1,NA,FALSE,f,j,NA,NA,NA,1,6,"11,13,6,15,1,4,8,10,9,7,5,2,12,14,3"
14401,commdev-image-keyboard-response,420,776356,learnblock2,589,img/planet1_right.png,1,Community 1,NA,TRUE,j,j,NA,NA,NA,1,6,"11,13,6,15,1,4,8,10,9,7,5,2,12,14,3"
14401,commdev-image-keyboard-response,421,777616,learnblock2,565,img/planet13_left.png,13,Community 1,NA,TRUE,f,f,NA,NA,NA,1,6,"11,13,6,15,1,4,8,10,9,7,5,2,12,14,3"
14401,commdev-image-keyboard-response,422,778876,learnblock2,630,img/planet1_left.png,1,Community 1,NA,TRUE,f,f,NA,NA,NA,1,6,"11,13,6,15,1,4,8,10,9,7,5,2,12,14,3"
14401,commdev-image-keyboard-response,423,780135,learnblock2,755,img/planet6_left.png,6,Community 1,NA,TRUE,f,f,NA,NA,NA,1,6,"11,13,6,15,1,4,8,10,9,7,5,2,12,14,3"
14401,commdev-image-keyboard-response,424,781396,learnblock2,623.9999999998836,img/planet11_left.png,11,Community 1,NA,TRUE,f,f,NA,NA,NA,1,6,"11,13,6,15,1,4,8,10,9,7,5,2,12,14,3"
14401,commdev-image-keyboard-response,425,782656,learnblock2,573,img/planet15_right.png,15,Community 1,NA,TRUE,j,j,NA,NA,NA,1,6,"11,13,6,15,1,4,8,10,9,7,5,2,12,14,3"
14401,commdev-image-keyboard-response,426,783916,learnblock2,779,img/planet13_left.png,13,Community 1,NA,TRUE,f,f,NA,NA,NA,1,6,"11,13,6,15,1,4,8,10,9,7,5,2,12,14,3"
14401,commdev-image-keyboard-response,427,785175,learnblock2,594.0000000001164,img/planet6_right.png,6,Community 1,NA,TRUE,j,j,NA,NA,NA,1,6,"11,13,6,15,1,4,8,10,9,7,5,2,12,14,3"
14401,commdev-image-keyboard-response,428,786437,learnblock2,536.0000000001164,img/planet1_left.png,1,Community 1,NA,TRUE,f,f,NA,NA,NA,1,6,"11,13,6,15,1,4,8,10,9,7,5,2,12,14,3"
14401,commdev-image-keyboard-response,429,787696,learnblock2,543,img/planet13_right.png,13,Community 1,NA,TRUE,j,j,NA,NA,NA,1,6,"11,13,6,15,1,4,8,10,9,7,5,2,12,14,3"
14401,commdev-image-keyboard-response,430,788956,learnblock2,518,img/planet1_left.png,1,Community 1,NA,TRUE,f,f,NA,NA,NA,1,6,"11,13,6,15,1,4,8,10,9,7,5,2,12,14,3"
14401,commdev-image-keyboard-response,431,790217,learnblock2,462,img/planet6_right.png,6,Community 1,NA,TRUE,j,j,NA,NA,NA,1,6,"11,13,6,15,1,4,8,10,9,7,5,2,12,14,3"
14401,commdev-image-keyboard-response,432,791477,learnblock2,554.0000000001164,img/planet15_left.png,15,Community 1,NA,TRUE,f,f,NA,NA,NA,1,6,"11,13,6,15,1,4,8,10,9,7,5,2,12,14,3"
14401,commdev-image-keyboard-response,433,792736,learnblock2,581,img/planet13_right.png,13,Community 1,NA,TRUE,j,j,NA,NA,NA,1,6,"11,13,6,15,1,4,8,10,9,7,5,2,12,14,3"
14401,commdev-image-keyboard-response,434,793997,learnblock2,563,img/planet1_left.png,1,Community 1,NA,TRUE,f,f,NA,NA,NA,1,6,"11,13,6,15,1,4,8,10,9,7,5,2,12,14,3"
14401,commdev-image-keyboard-response,435,795256,learnblock2,488.9999999998836,img/planet13_right.png,13,Community 1,NA,TRUE,j,j,NA,NA,NA,1,6,"11,13,6,15,1,4,8,10,9,7,5,2,12,14,3"
14401,commdev-image-keyboard-response,436,796517,learnblock2,467.0000000001164,img/planet11_left.png,11,Community 1,NA,TRUE,f,f,NA,NA,NA,1,6,"11,13,6,15,1,4,8,10,9,7,5,2,12,14,3"
14401,commdev-image-keyboard-response,437,797777,learnblock2,547.0000000001164,img/planet6_left.png,6,Community 1,NA,FALSE,j,f,NA,NA,NA,1,6,"11,13,6,15,1,4,8,10,9,7,5,2,12,14,3"
14401,commdev-image-keyboard-response,438,799037,learnblock2,699,img/planet13_right.png,13,Community 1,NA,TRUE,j,j,NA,NA,NA,1,6,"11,13,6,15,1,4,8,10,9,7,5,2,12,14,3"
14401,commdev-image-keyboard-response,439,800297,learnblock2,857,img/planet15_right.png,15,Community 1,NA,TRUE,j,j,NA,NA,NA,1,6,"11,13,6,15,1,4,8,10,9,7,5,2,12,14,3"
14401,commdev-image-keyboard-response,440,801557,learnblock2,719.0000000001164,img/planet11_right.png,11,Community 1,NA,TRUE,j,j,NA,NA,NA,1,6,"11,13,6,15,1,4,8,10,9,7,5,2,12,14,3"
14401,commdev-image-keyboard-response,441,802817,learnblock2,656.0000000001164,img/planet1_left.png,1,Community 1,NA,TRUE,f,f,NA,NA,NA,1,6,"11,13,6,15,1,4,8,10,9,7,5,2,12,14,3"
14401,commdev-image-keyboard-response,442,804077,learnblock2,556,img/planet11_right.png,11,Community 1,NA,TRUE,j,j,NA,NA,NA,1,6,"11,13,6,15,1,4,8,10,9,7,5,2,12,14,3"
14401,commdev-image-keyboard-response,443,805337,learnblock2,796,img/planet15_right.png,15,Community 1,NA,TRUE,j,j,NA,NA,NA,1,6,"11,13,6,15,1,4,8,10,9,7,5,2,12,14,3"
14401,commdev-image-keyboard-response,444,806597,learnblock2,750,img/planet4_right.png,4,Community 2,NA,TRUE,j,j,NA,NA,NA,1,6,"11,13,6,15,1,4,8,10,9,7,5,2,12,14,3"
14401,commdev-image-keyboard-response,445,807857,learnblock2,808,img/planet8_left.png,8,Community 2,NA,TRUE,f,f,NA,NA,NA,1,6,"11,13,6,15,1,4,8,10,9,7,5,2,12,14,3"
14401,commdev-image-keyboard-response,446,809117,learnblock2,649.9999999998836,img/planet9_right.png,9,Community 2,NA,TRUE,j,j,NA,NA,NA,1,6,"11,13,6,15,1,4,8,10,9,7,5,2,12,14,3"
14401,commdev-image-keyboard-response,447,810377,learnblock2,854.9999999998836,img/planet8_right.png,8,Community 2,NA,TRUE,j,j,NA,NA,NA,1,6,"11,13,6,15,1,4,8,10,9,7,5,2,12,14,3"
14401,commdev-image-keyboard-response,448,811637,learnblock2,619,img/planet10_right.png,10,Community 2,NA,TRUE,j,j,NA,NA,NA,1,6,"11,13,6,15,1,4,8,10,9,7,5,2,12,14,3"
14401,commdev-image-keyboard-response,449,812897,learnblock2,703,img/planet8_right.png,8,Community 2,NA,TRUE,j,j,NA,NA,NA,1,6,"11,13,6,15,1,4,8,10,9,7,5,2,12,14,3"
14401,commdev-image-keyboard-response,450,814158,learnblock2,743,img/planet4_right.png,4,Community 2,NA,TRUE,j,j,NA,NA,NA,1,6,"11,13,6,15,1,4,8,10,9,7,5,2,12,14,3"
14401,commdev-image-keyboard-response,451,815418,learnblock2,746,img/planet7_right.png,7,Community 2,NA,TRUE,j,j,NA,NA,NA,1,6,"11,13,6,15,1,4,8,10,9,7,5,2,12,14,3"
14401,commdev-image-keyboard-response,452,816677,learnblock2,708,img/planet10_left.png,10,Community 2,NA,TRUE,f,f,NA,NA,NA,1,6,"11,13,6,15,1,4,8,10,9,7,5,2,12,14,3"
14401,commdev-image-keyboard-response,453,817938,learnblock2,574,img/planet2_right.png,2,Community 3,NA,TRUE,j,j,NA,NA,NA,1,6,"11,13,6,15,1,4,8,10,9,7,5,2,12,14,3"
14401,commdev-image-keyboard-response,454,819197,learnblock2,684,img/planet10_right.png,10,Community 2,NA,TRUE,j,j,NA,NA,NA,1,6,"11,13,6,15,1,4,8,10,9,7,5,2,12,14,3"
14401,commdev-image-keyboard-response,455,820457,learnblock2,695,img/planet8_left.png,8,Community 2,NA,TRUE,f,f,NA,NA,NA,1,6,"11,13,6,15,1,4,8,10,9,7,5,2,12,14,3"
14401,commdev-image-keyboard-response,456,821717,learnblock2,783,img/planet7_left.png,7,Community 2,NA,TRUE,f,f,NA,NA,NA,1,6,"11,13,6,15,1,4,8,10,9,7,5,2,12,14,3"
14401,commdev-image-keyboard-response,457,822977,learnblock2,663,img/planet9_right.png,9,Community 2,NA,TRUE,j,j,NA,NA,NA,1,6,"11,13,6,15,1,4,8,10,9,7,5,2,12,14,3"
14401,commdev-image-keyboard-response,458,824237,learnblock2,580,img/planet10_right.png,10,Community 2,NA,TRUE,j,j,NA,NA,NA,1,6,"11,13,6,15,1,4,8,10,9,7,5,2,12,14,3"
14401,commdev-image-keyboard-response,459,825498,learnblock2,800.9999999998836,img/planet7_left.png,7,Community 2,NA,TRUE,f,f,NA,NA,NA,1,6,"11,13,6,15,1,4,8,10,9,7,5,2,12,14,3"
14401,commdev-image-keyboard-response,460,826758,learnblock2,580.9999999998836,img/planet4_right.png,4,Community 2,NA,TRUE,j,j,NA,NA,NA,1,6,"11,13,6,15,1,4,8,10,9,7,5,2,12,14,3"
14401,commdev-image-keyboard-response,461,828018,learnblock2,602,img/planet9_left.png,9,Community 2,NA,TRUE,f,f,NA,NA,NA,1,6,"11,13,6,15,1,4,8,10,9,7,5,2,12,14,3"
14401,commdev-image-keyboard-response,462,829278,learnblock2,703,img/planet8_left.png,8,Community 2,NA,TRUE,f,f,NA,NA,NA,1,6,"11,13,6,15,1,4,8,10,9,7,5,2,12,14,3"
14401,commdev-image-keyboard-response,463,830537,learnblock2,822,img/planet4_right.png,4,Community 2,NA,TRUE,j,j,NA,NA,NA,1,6,"11,13,6,15,1,4,8,10,9,7,5,2,12,14,3"
14401,commdev-image-keyboard-response,464,831798,learnblock2,624.0000000001164,img/planet9_right.png,9,Community 2,NA,TRUE,j,j,NA,NA,NA,1,6,"11,13,6,15,1,4,8,10,9,7,5,2,12,14,3"
14401,commdev-image-keyboard-response,465,833058,learnblock2,697,img/planet4_left.png,4,Community 2,NA,TRUE,f,f,NA,NA,NA,1,6,"11,13,6,15,1,4,8,10,9,7,5,2,12,14,3"
14401,commdev-image-keyboard-response,466,834318,learnblock2,679.0000000001164,img/planet7_left.png,7,Community 2,NA,TRUE,f,f,NA,NA,NA,1,6,"11,13,6,15,1,4,8,10,9,7,5,2,12,14,3"
14401,commdev-image-keyboard-response,467,835578,learnblock2,603.0000000001164,img/planet10_left.png,10,Community 2,NA,TRUE,f,f,NA,NA,NA,1,6,"11,13,6,15,1,4,8,10,9,7,5,2,12,14,3"
14401,commdev-image-keyboard-response,468,836838,learnblock2,674,img/planet8_left.png,8,Community 2,NA,TRUE,f,f,NA,NA,NA,1,6,"11,13,6,15,1,4,8,10,9,7,5,2,12,14,3"
14401,commdev-image-keyboard-response,469,838098,learnblock2,590,img/planet4_right.png,4,Community 2,NA,TRUE,j,j,NA,NA,NA,1,6,"11,13,6,15,1,4,8,10,9,7,5,2,12,14,3"
14401,commdev-image-keyboard-response,470,839358,learnblock2,605,img/planet8_right.png,8,Community 2,NA,TRUE,j,j,NA,NA,NA,1,6,"11,13,6,15,1,4,8,10,9,7,5,2,12,14,3"
14401,commdev-image-keyboard-response,471,840618,learnblock2,808.9999999998836,img/planet7_left.png,7,Community 2,NA,TRUE,f,f,NA,NA,NA,1,6,"11,13,6,15,1,4,8,10,9,7,5,2,12,14,3"
14401,commdev-image-keyboard-response,472,841878,learnblock2,599,img/planet9_left.png,9,Community 2,NA,TRUE,f,f,NA,NA,NA,1,6,"11,13,6,15,1,4,8,10,9,7,5,2,12,14,3"
14401,commdev-image-keyboard-response,473,843138,learnblock2,576,img/planet8_left.png,8,Community 2,NA,TRUE,f,f,NA,NA,NA,1,6,"11,13,6,15,1,4,8,10,9,7,5,2,12,14,3"
14401,commdev-image-keyboard-response,474,844398,learnblock2,546.0000000001164,img/planet7_left.png,7,Community 2,NA,TRUE,f,f,NA,NA,NA,1,6,"11,13,6,15,1,4,8,10,9,7,5,2,12,14,3"
14401,commdev-image-keyboard-response,475,845658,learnblock2,522,img/planet9_left.png,9,Community 2,NA,TRUE,f,f,NA,NA,NA,1,6,"11,13,6,15,1,4,8,10,9,7,5,2,12,14,3"
14401,commdev-image-keyboard-response,476,846918,learnblock2,615,img/planet7_right.png,7,Community 2,NA,TRUE,j,j,NA,NA,NA,1,6,"11,13,6,15,1,4,8,10,9,7,5,2,12,14,3"
14401,commdev-image-keyboard-response,477,848178,learnblock2,646,img/planet8_left.png,8,Community 2,NA,TRUE,f,f,NA,NA,NA,1,6,"11,13,6,15,1,4,8,10,9,7,5,2,12,14,3"
14401,commdev-image-keyboard-response,478,849438,learnblock2,674,img/planet10_right.png,10,Community 2,NA,TRUE,j,j,NA,NA,NA,1,6,"11,13,6,15,1,4,8,10,9,7,5,2,12,14,3"
14401,commdev-image-keyboard-response,479,850699,learnblock2,782,img/planet8_right.png,8,Community 2,NA,TRUE,j,j,NA,NA,NA,1,6,"11,13,6,15,1,4,8,10,9,7,5,2,12,14,3"
14401,commdev-image-keyboard-response,480,851958,learnblock2,829,img/planet7_left.png,7,Community 2,NA,TRUE,f,f,NA,NA,NA,1,6,"11,13,6,15,1,4,8,10,9,7,5,2,12,14,3"
14401,commdev-image-keyboard-response,481,853219,learnblock2,632,img/planet10_left.png,10,Community 2,NA,TRUE,f,f,NA,NA,NA,1,6,"11,13,6,15,1,4,8,10,9,7,5,2,12,14,3"
14401,commdev-image-keyboard-response,482,854478,learnblock2,643,img/planet8_right.png,8,Community 2,NA,TRUE,j,j,NA,NA,NA,1,6,"11,13,6,15,1,4,8,10,9,7,5,2,12,14,3"
14401,commdev-image-keyboard-response,483,855739,learnblock2,638,img/planet10_right.png,10,Community 2,NA,TRUE,j,j,NA,NA,NA,1,6,"11,13,6,15,1,4,8,10,9,7,5,2,12,14,3"
14401,commdev-image-keyboard-response,484,856998,learnblock2,618.9999999998836,img/planet9_left.png,9,Community 2,NA,TRUE,f,f,NA,NA,NA,1,6,"11,13,6,15,1,4,8,10,9,7,5,2,12,14,3"
14401,commdev-image-keyboard-response,485,858259,learnblock2,684,img/planet7_right.png,7,Community 2,NA,TRUE,j,j,NA,NA,NA,1,6,"11,13,6,15,1,4,8,10,9,7,5,2,12,14,3"
14401,commdev-image-keyboard-response,486,859518,learnblock2,645,img/planet8_left.png,8,Community 2,NA,TRUE,f,f,NA,NA,NA,1,6,"11,13,6,15,1,4,8,10,9,7,5,2,12,14,3"
14401,commdev-image-keyboard-response,487,860779,learnblock2,608.9999999998836,img/planet10_right.png,10,Community 2,NA,TRUE,j,j,NA,NA,NA,1,6,"11,13,6,15,1,4,8,10,9,7,5,2,12,14,3"
14401,commdev-image-keyboard-response,488,862038,learnblock2,580.0000000001164,img/planet9_right.png,9,Community 2,NA,TRUE,j,j,NA,NA,NA,1,6,"11,13,6,15,1,4,8,10,9,7,5,2,12,14,3"
14401,commdev-image-keyboard-response,489,863299,learnblock2,754.0000000001164,img/planet8_right.png,8,Community 2,NA,TRUE,j,j,NA,NA,NA,1,6,"11,13,6,15,1,4,8,10,9,7,5,2,12,14,3"
14401,commdev-image-keyboard-response,490,864558,learnblock2,699,img/planet9_left.png,9,Community 2,NA,TRUE,f,f,NA,NA,NA,1,6,"11,13,6,15,1,4,8,10,9,7,5,2,12,14,3"
14401,commdev-image-keyboard-response,491,865819,learnblock2,541,img/planet4_right.png,4,Community 2,NA,TRUE,j,j,NA,NA,NA,1,6,"11,13,6,15,1,4,8,10,9,7,5,2,12,14,3"
14401,commdev-image-keyboard-response,492,867078,learnblock2,578,img/planet8_left.png,8,Community 2,NA,TRUE,f,f,NA,NA,NA,1,6,"11,13,6,15,1,4,8,10,9,7,5,2,12,14,3"
14401,commdev-image-keyboard-response,493,868339,learnblock2,715,img/planet7_left.png,7,Community 2,NA,TRUE,f,f,NA,NA,NA,1,6,"11,13,6,15,1,4,8,10,9,7,5,2,12,14,3"
14401,commdev-image-keyboard-response,494,869598,learnblock2,703.0000000001164,img/planet4_right.png,4,Community 2,NA,TRUE,j,j,NA,NA,NA,1,6,"11,13,6,15,1,4,8,10,9,7,5,2,12,14,3"
14401,commdev-image-keyboard-response,495,870859,learnblock2,645.0000000001164,img/planet9_right.png,9,Community 2,NA,TRUE,j,j,NA,NA,NA,1,6,"11,13,6,15,1,4,8,10,9,7,5,2,12,14,3"
14401,commdev-image-keyboard-response,496,872118,learnblock2,678,img/planet8_left.png,8,Community 2,NA,TRUE,f,f,NA,NA,NA,1,6,"11,13,6,15,1,4,8,10,9,7,5,2,12,14,3"
14401,commdev-image-keyboard-response,497,873379,learnblock2,758,img/planet9_left.png,9,Community 2,NA,TRUE,f,f,NA,NA,NA,1,6,"11,13,6,15,1,4,8,10,9,7,5,2,12,14,3"
14401,commdev-image-keyboard-response,498,874638,learnblock2,558,img/planet8_right.png,8,Community 2,NA,TRUE,j,j,NA,NA,NA,1,6,"11,13,6,15,1,4,8,10,9,7,5,2,12,14,3"
14401,commdev-image-keyboard-response,499,875900,learnblock2,578,img/planet7_right.png,7,Community 2,NA,TRUE,j,j,NA,NA,NA,1,6,"11,13,6,15,1,4,8,10,9,7,5,2,12,14,3"
14401,commdev-image-keyboard-response,500,877159,learnblock2,586,img/planet4_right.png,4,Community 2,NA,TRUE,j,j,NA,NA,NA,1,6,"11,13,6,15,1,4,8,10,9,7,5,2,12,14,3"
14401,commdev-image-keyboard-response,501,878419,learnblock2,597,img/planet9_left.png,9,Community 2,NA,TRUE,f,f,NA,NA,NA,1,6,"11,13,6,15,1,4,8,10,9,7,5,2,12,14,3"
14401,commdev-image-keyboard-response,502,879679,learnblock2,579,img/planet8_right.png,8,Community 2,NA,TRUE,j,j,NA,NA,NA,1,6,"11,13,6,15,1,4,8,10,9,7,5,2,12,14,3"
14401,commdev-image-keyboard-response,503,880939,learnblock2,687,img/planet9_left.png,9,Community 2,NA,TRUE,f,f,NA,NA,NA,1,6,"11,13,6,15,1,4,8,10,9,7,5,2,12,14,3"
14401,commdev-image-keyboard-response,504,882199,learnblock2,632,img/planet4_left.png,4,Community 2,NA,TRUE,f,f,NA,NA,NA,1,6,"11,13,6,15,1,4,8,10,9,7,5,2,12,14,3"
14401,commdev-image-keyboard-response,505,883460,learnblock2,567,img/planet9_right.png,9,Community 2,NA,TRUE,j,j,NA,NA,NA,1,6,"11,13,6,15,1,4,8,10,9,7,5,2,12,14,3"
14401,commdev-image-keyboard-response,506,884719,learnblock2,533,img/planet8_left.png,8,Community 2,NA,TRUE,f,f,NA,NA,NA,1,6,"11,13,6,15,1,4,8,10,9,7,5,2,12,14,3"
14401,commdev-image-keyboard-response,507,885980,learnblock2,579.0000000001164,img/planet10_left.png,10,Community 2,NA,TRUE,f,f,NA,NA,NA,1,6,"11,13,6,15,1,4,8,10,9,7,5,2,12,14,3"
14401,commdev-image-keyboard-response,508,887240,learnblock2,559,img/planet9_left.png,9,Community 2,NA,FALSE,j,f,NA,NA,NA,1,6,"11,13,6,15,1,4,8,10,9,7,5,2,12,14,3"
14401,commdev-image-keyboard-response,509,888500,learnblock2,740.9999999998836,img/planet7_right.png,7,Community 2,NA,TRUE,j,j,NA,NA,NA,1,6,"11,13,6,15,1,4,8,10,9,7,5,2,12,14,3"
14401,commdev-image-keyboard-response,510,889760,learnblock2,610.9999999998836,img/planet4_right.png,4,Community 2,NA,TRUE,j,j,NA,NA,NA,1,6,"11,13,6,15,1,4,8,10,9,7,5,2,12,14,3"
14401,commdev-image-keyboard-response,511,891020,learnblock2,798,img/planet15_right.png,15,Community 1,NA,TRUE,j,j,NA,NA,NA,1,6,"11,13,6,15,1,4,8,10,9,7,5,2,12,14,3"
14401,commdev-image-keyboard-response,512,892280,learnblock2,645,img/planet4_right.png,4,Community 2,NA,TRUE,j,j,NA,NA,NA,1,6,"11,13,6,15,1,4,8,10,9,7,5,2,12,14,3"
14401,commdev-image-keyboard-response,513,893540,learnblock2,670,img/planet15_right.png,15,Community 1,NA,TRUE,j,j,NA,NA,NA,1,6,"11,13,6,15,1,4,8,10,9,7,5,2,12,14,3"
14401,commdev-image-keyboard-response,514,894800,learnblock2,762,img/planet13_left.png,13,Community 1,NA,TRUE,f,f,NA,NA,NA,1,6,"11,13,6,15,1,4,8,10,9,7,5,2,12,14,3"
14401,commdev-image-keyboard-response,515,896060,learnblock2,659,img/planet11_right.png,11,Community 1,NA,TRUE,j,j,NA,NA,NA,1,6,"11,13,6,15,1,4,8,10,9,7,5,2,12,14,3"
14401,commdev-image-keyboard-response,516,897320,learnblock2,758,img/planet1_left.png,1,Community 1,NA,TRUE,f,f,NA,NA,NA,1,6,"11,13,6,15,1,4,8,10,9,7,5,2,12,14,3"
14401,commdev-image-keyboard-response,517,898580,learnblock2,728.0000000001164,img/planet5_left.png,5,Community 3,NA,TRUE,f,f,NA,NA,NA,1,6,"11,13,6,15,1,4,8,10,9,7,5,2,12,14,3"
14401,commdev-image-keyboard-response,518,899839,learnblock2,798,img/planet12_right.png,12,Community 3,NA,TRUE,j,j,NA,NA,NA,1,6,"11,13,6,15,1,4,8,10,9,7,5,2,12,14,3"
14401,commdev-image-keyboard-response,519,901100,learnblock2,1001.9999999998836,img/planet14_left.png,14,Community 3,NA,TRUE,f,f,NA,NA,NA,1,6,"11,13,6,15,1,4,8,10,9,7,5,2,12,14,3"
14401,commdev-image-keyboard-response,520,902360,learnblock2,911.9999999998836,img/planet2_left.png,2,Community 3,NA,TRUE,f,f,NA,NA,NA,1,6,"11,13,6,15,1,4,8,10,9,7,5,2,12,14,3"
14401,commdev-image-keyboard-response,521,903620,learnblock2,674.9999999998836,img/planet14_right.png,14,Community 3,NA,TRUE,j,j,NA,NA,NA,1,6,"11,13,6,15,1,4,8,10,9,7,5,2,12,14,3"
14401,commdev-image-keyboard-response,522,904880,learnblock2,607.9999999998836,img/planet2_right.png,2,Community 3,NA,TRUE,j,j,NA,NA,NA,1,6,"11,13,6,15,1,4,8,10,9,7,5,2,12,14,3"
14401,commdev-image-keyboard-response,523,906140,learnblock2,583,img/planet12_right.png,12,Community 3,NA,TRUE,j,j,NA,NA,NA,1,6,"11,13,6,15,1,4,8,10,9,7,5,2,12,14,3"
14401,commdev-image-keyboard-response,524,907400,learnblock2,763,img/planet3_right.png,3,Community 3,NA,TRUE,j,j,NA,NA,NA,1,6,"11,13,6,15,1,4,8,10,9,7,5,2,12,14,3"
14401,commdev-image-keyboard-response,525,908660,learnblock2,683,img/planet5_left.png,5,Community 3,NA,TRUE,f,f,NA,NA,NA,1,6,"11,13,6,15,1,4,8,10,9,7,5,2,12,14,3"
14401,commdev-image-keyboard-response,526,909920,learnblock2,631,img/planet1_left.png,1,Community 1,NA,TRUE,f,f,NA,NA,NA,1,6,"11,13,6,15,1,4,8,10,9,7,5,2,12,14,3"
14401,commdev-image-keyboard-response,527,911180,learnblock2,620,img/planet13_right.png,13,Community 1,NA,TRUE,j,j,NA,NA,NA,1,6,"11,13,6,15,1,4,8,10,9,7,5,2,12,14,3"
14401,commdev-image-keyboard-response,528,912440,learnblock2,653,img/planet6_left.png,6,Community 1,NA,TRUE,f,f,NA,NA,NA,1,6,"11,13,6,15,1,4,8,10,9,7,5,2,12,14,3"
14401,commdev-image-keyboard-response,529,913700,learnblock2,577,img/planet13_left.png,13,Community 1,NA,TRUE,f,f,NA,NA,NA,1,6,"11,13,6,15,1,4,8,10,9,7,5,2,12,14,3"
14401,commdev-image-keyboard-response,530,914960,learnblock2,713.0000000001164,img/planet1_left.png,1,Community 1,NA,TRUE,f,f,NA,NA,NA,1,6,"11,13,6,15,1,4,8,10,9,7,5,2,12,14,3"
14401,commdev-image-keyboard-response,531,916220,learnblock2,697,img/planet11_right.png,11,Community 1,NA,TRUE,j,j,NA,NA,NA,1,6,"11,13,6,15,1,4,8,10,9,7,5,2,12,14,3"
14401,commdev-image-keyboard-response,532,917481,learnblock2,556,img/planet15_left.png,15,Community 1,NA,TRUE,f,f,NA,NA,NA,1,6,"11,13,6,15,1,4,8,10,9,7,5,2,12,14,3"
14401,commdev-image-keyboard-response,533,918740,learnblock2,585,img/planet13_left.png,13,Community 1,NA,TRUE,f,f,NA,NA,NA,1,6,"11,13,6,15,1,4,8,10,9,7,5,2,12,14,3"
14401,commdev-image-keyboard-response,534,920001,learnblock2,534,img/planet15_left.png,15,Community 1,NA,TRUE,f,f,NA,NA,NA,1,6,"11,13,6,15,1,4,8,10,9,7,5,2,12,14,3"
14401,commdev-image-keyboard-response,535,921260,learnblock2,637.9999999998836,img/planet6_right.png,6,Community 1,NA,TRUE,j,j,NA,NA,NA,1,6,"11,13,6,15,1,4,8,10,9,7,5,2,12,14,3"
14401,commdev-image-keyboard-response,536,922521,learnblock2,647,img/planet1_right.png,1,Community 1,NA,TRUE,j,j,NA,NA,NA,1,6,"11,13,6,15,1,4,8,10,9,7,5,2,12,14,3"
14401,commdev-image-keyboard-response,537,923780,learnblock2,564,img/planet5_right.png,5,Community 3,NA,TRUE,j,j,NA,NA,NA,1,6,"11,13,6,15,1,4,8,10,9,7,5,2,12,14,3"
14401,commdev-image-keyboard-response,538,925041,learnblock2,732,img/planet3_right.png,3,Community 3,NA,TRUE,j,j,NA,NA,NA,1,6,"11,13,6,15,1,4,8,10,9,7,5,2,12,14,3"
14401,commdev-image-keyboard-response,539,926300,learnblock2,620,img/planet12_right.png,12,Community 3,NA,TRUE,j,j,NA,NA,NA,1,6,"11,13,6,15,1,4,8,10,9,7,5,2,12,14,3"
14401,commdev-image-keyboard-response,540,927561,learnblock2,554,img/planet14_right.png,14,Community 3,NA,TRUE,j,j,NA,NA,NA,1,6,"11,13,6,15,1,4,8,10,9,7,5,2,12,14,3"
14401,commdev-image-keyboard-response,541,928821,learnblock2,641,img/planet12_left.png,12,Community 3,NA,TRUE,f,f,NA,NA,NA,1,6,"11,13,6,15,1,4,8,10,9,7,5,2,12,14,3"
14401,commdev-image-keyboard-response,542,930081,learnblock2,598.0000000001164,img/planet5_left.png,5,Community 3,NA,TRUE,f,f,NA,NA,NA,1,6,"11,13,6,15,1,4,8,10,9,7,5,2,12,14,3"
14401,commdev-image-keyboard-response,543,931340,learnblock2,714,img/planet3_left.png,3,Community 3,NA,TRUE,f,f,NA,NA,NA,1,6,"11,13,6,15,1,4,8,10,9,7,5,2,12,14,3"
14401,commdev-image-keyboard-response,544,932601,learnblock2,534,img/planet5_left.png,5,Community 3,NA,TRUE,f,f,NA,NA,NA,1,6,"11,13,6,15,1,4,8,10,9,7,5,2,12,14,3"
14401,commdev-image-keyboard-response,545,933861,learnblock2,583,img/planet1_left.png,1,Community 1,NA,TRUE,f,f,NA,NA,NA,1,6,"11,13,6,15,1,4,8,10,9,7,5,2,12,14,3"
14401,commdev-image-keyboard-response,546,935121,learnblock2,644.9999999998836,img/planet11_left.png,11,Community 1,NA,TRUE,f,f,NA,NA,NA,1,6,"11,13,6,15,1,4,8,10,9,7,5,2,12,14,3"
14401,commdev-image-keyboard-response,547,936380,learnblock2,615.9999999998836,img/planet6_right.png,6,Community 1,NA,TRUE,j,j,NA,NA,NA,1,6,"11,13,6,15,1,4,8,10,9,7,5,2,12,14,3"
14401,commdev-image-keyboard-response,548,937641,learnblock2,676,img/planet15_right.png,15,Community 1,NA,TRUE,j,j,NA,NA,NA,1,6,"11,13,6,15,1,4,8,10,9,7,5,2,12,14,3"
14401,commdev-image-keyboard-response,549,938901,learnblock2,586.0000000001164,img/planet4_right.png,4,Community 2,NA,TRUE,j,j,NA,NA,NA,1,6,"11,13,6,15,1,4,8,10,9,7,5,2,12,14,3"
14401,commdev-image-keyboard-response,550,940161,learnblock2,760,img/planet7_left.png,7,Community 2,NA,TRUE,f,f,NA,NA,NA,1,6,"11,13,6,15,1,4,8,10,9,7,5,2,12,14,3"
14401,commdev-image-keyboard-response,551,941421,learnblock2,665,img/planet4_right.png,4,Community 2,NA,TRUE,j,j,NA,NA,NA,1,6,"11,13,6,15,1,4,8,10,9,7,5,2,12,14,3"
14401,commdev-image-keyboard-response,552,942681,learnblock2,692,img/planet7_right.png,7,Community 2,NA,TRUE,j,j,NA,NA,NA,1,6,"11,13,6,15,1,4,8,10,9,7,5,2,12,14,3"
14401,commdev-image-keyboard-response,553,943941,learnblock2,583,img/planet8_right.png,8,Community 2,NA,TRUE,j,j,NA,NA,NA,1,6,"11,13,6,15,1,4,8,10,9,7,5,2,12,14,3"
14401,commdev-image-keyboard-response,554,945201,learnblock2,504,img/planet10_right.png,10,Community 2,NA,TRUE,j,j,NA,NA,NA,1,6,"11,13,6,15,1,4,8,10,9,7,5,2,12,14,3"
14401,commdev-image-keyboard-response,555,946461,learnblock2,536,img/planet7_left.png,7,Community 2,NA,TRUE,f,f,NA,NA,NA,1,6,"11,13,6,15,1,4,8,10,9,7,5,2,12,14,3"
14401,commdev-image-keyboard-response,556,947721,learnblock2,585,img/planet10_right.png,10,Community 2,NA,TRUE,j,j,NA,NA,NA,1,6,"11,13,6,15,1,4,8,10,9,7,5,2,12,14,3"
14401,commdev-image-keyboard-response,557,948981,learnblock2,551,img/planet9_left.png,9,Community 2,NA,TRUE,f,f,NA,NA,NA,1,6,"11,13,6,15,1,4,8,10,9,7,5,2,12,14,3"
14401,commdev-image-keyboard-response,558,950242,learnblock2,543.0000000001164,img/planet7_right.png,7,Community 2,NA,TRUE,j,j,NA,NA,NA,1,6,"11,13,6,15,1,4,8,10,9,7,5,2,12,14,3"
14401,commdev-image-keyboard-response,559,951501,learnblock2,630.9999999998836,img/planet8_right.png,8,Community 2,NA,TRUE,j,j,NA,NA,NA,1,6,"11,13,6,15,1,4,8,10,9,7,5,2,12,14,3"
14401,commdev-image-keyboard-response,560,952762,learnblock2,487.9999999998836,img/planet10_right.png,10,Community 2,NA,TRUE,j,j,NA,NA,NA,1,6,"11,13,6,15,1,4,8,10,9,7,5,2,12,14,3"
14401,commdev-image-keyboard-response,561,954021,learnblock2,552.0000000001164,img/planet2_left.png,2,Community 3,NA,TRUE,f,f,NA,NA,NA,1,6,"11,13,6,15,1,4,8,10,9,7,5,2,12,14,3"
14401,commdev-image-keyboard-response,562,955282,learnblock2,538.9999999998836,img/planet12_right.png,12,Community 3,NA,TRUE,j,j,NA,NA,NA,1,6,"11,13,6,15,1,4,8,10,9,7,5,2,12,14,3"
14401,commdev-image-keyboard-response,563,956541,learnblock2,512,img/planet5_right.png,5,Community 3,NA,TRUE,j,j,NA,NA,NA,1,6,"11,13,6,15,1,4,8,10,9,7,5,2,12,14,3"
14401,commdev-image-keyboard-response,564,957802,learnblock2,569,img/planet1_left.png,1,Community 1,NA,TRUE,f,f,NA,NA,NA,1,6,"11,13,6,15,1,4,8,10,9,7,5,2,12,14,3"
14401,commdev-image-keyboard-response,565,959061,learnblock2,530,img/planet11_left.png,11,Community 1,NA,FALSE,j,f,NA,NA,NA,1,6,"11,13,6,15,1,4,8,10,9,7,5,2,12,14,3"
14401,commdev-image-keyboard-response,566,960322,learnblock2,598.0000000001164,img/planet1_left.png,1,Community 1,NA,TRUE,f,f,NA,NA,NA,1,6,"11,13,6,15,1,4,8,10,9,7,5,2,12,14,3"
14401,commdev-image-keyboard-response,567,961581,learnblock2,558,img/planet11_right.png,11,Community 1,NA,TRUE,j,j,NA,NA,NA,1,6,"11,13,6,15,1,4,8,10,9,7,5,2,12,14,3"
14401,commdev-image-keyboard-response,568,962842,learnblock2,607,img/planet1_left.png,1,Community 1,NA,TRUE,f,f,NA,NA,NA,1,6,"11,13,6,15,1,4,8,10,9,7,5,2,12,14,3"
14401,commdev-image-keyboard-response,569,964101,learnblock2,517,img/planet11_right.png,11,Community 1,NA,TRUE,j,j,NA,NA,NA,1,6,"11,13,6,15,1,4,8,10,9,7,5,2,12,14,3"
14401,commdev-image-keyboard-response,570,965362,learnblock2,732,img/planet15_right.png,15,Community 1,NA,TRUE,j,j,NA,NA,NA,1,6,"11,13,6,15,1,4,8,10,9,7,5,2,12,14,3"
14401,commdev-image-keyboard-response,571,966621,learnblock2,585.9999999998836,img/planet11_right.png,11,Community 1,NA,TRUE,j,j,NA,NA,NA,1,6,"11,13,6,15,1,4,8,10,9,7,5,2,12,14,3"
14401,commdev-image-keyboard-response,572,967882,learnblock2,764,img/planet15_left.png,15,Community 1,NA,TRUE,f,f,NA,NA,NA,1,6,"11,13,6,15,1,4,8,10,9,7,5,2,12,14,3"
14401,commdev-image-keyboard-response,573,969141,learnblock2,844,img/planet6_left.png,6,Community 1,NA,TRUE,f,f,NA,NA,NA,1,6,"11,13,6,15,1,4,8,10,9,7,5,2,12,14,3"
14401,commdev-image-keyboard-response,574,970402,learnblock2,751.9999999998836,img/planet13_left.png,13,Community 1,NA,TRUE,f,f,NA,NA,NA,1,6,"11,13,6,15,1,4,8,10,9,7,5,2,12,14,3"
14401,commdev-image-keyboard-response,575,971661,learnblock2,616,img/planet6_left.png,6,Community 1,NA,TRUE,f,f,NA,NA,NA,1,6,"11,13,6,15,1,4,8,10,9,7,5,2,12,14,3"
14401,commdev-image-keyboard-response,576,972922,learnblock2,869,img/planet1_right.png,1,Community 1,NA,TRUE,j,j,NA,NA,NA,1,6,"11,13,6,15,1,4,8,10,9,7,5,2,12,14,3"
14401,commdev-image-keyboard-response,577,974181,learnblock2,849.0000000001164,img/planet5_right.png,5,Community 3,NA,TRUE,j,j,NA,NA,NA,1,6,"11,13,6,15,1,4,8,10,9,7,5,2,12,14,3"
14401,commdev-image-keyboard-response,578,975442,learnblock2,694,img/planet14_right.png,14,Community 3,NA,TRUE,j,j,NA,NA,NA,1,6,"11,13,6,15,1,4,8,10,9,7,5,2,12,14,3"
14401,commdev-image-keyboard-response,579,976701,learnblock2,777,img/planet12_left.png,12,Community 3,NA,TRUE,f,f,NA,NA,NA,1,6,"11,13,6,15,1,4,8,10,9,7,5,2,12,14,3"
14401,commdev-image-keyboard-response,580,977963,learnblock2,631,img/planet14_right.png,14,Community 3,NA,TRUE,j,j,NA,NA,NA,1,6,"11,13,6,15,1,4,8,10,9,7,5,2,12,14,3"
14401,commdev-image-keyboard-response,581,979221,learnblock2,632,img/planet5_left.png,5,Community 3,NA,TRUE,f,f,NA,NA,NA,1,6,"11,13,6,15,1,4,8,10,9,7,5,2,12,14,3"
14401,commdev-image-keyboard-response,582,980483,learnblock2,580,img/planet3_right.png,3,Community 3,NA,TRUE,j,j,NA,NA,NA,1,6,"11,13,6,15,1,4,8,10,9,7,5,2,12,14,3"
14401,commdev-image-keyboard-response,583,981742,learnblock2,533.0000000001164,img/planet5_right.png,5,Community 3,NA,TRUE,j,j,NA,NA,NA,1,6,"11,13,6,15,1,4,8,10,9,7,5,2,12,14,3"
14401,commdev-image-keyboard-response,584,983003,learnblock2,637.9999999998836,img/planet3_left.png,3,Community 3,NA,TRUE,f,f,NA,NA,NA,1,6,"11,13,6,15,1,4,8,10,9,7,5,2,12,14,3"
14401,commdev-image-keyboard-response,585,984263,learnblock2,544.9999999998836,img/planet12_right.png,12,Community 3,NA,TRUE,j,j,NA,NA,NA,1,6,"11,13,6,15,1,4,8,10,9,7,5,2,12,14,3"
14401,commdev-image-keyboard-response,586,985523,learnblock2,545,img/planet5_left.png,5,Community 3,NA,TRUE,f,f,NA,NA,NA,1,6,"11,13,6,15,1,4,8,10,9,7,5,2,12,14,3"
14401,commdev-image-keyboard-response,587,986782,learnblock2,584,img/planet1_left.png,1,Community 1,NA,FALSE,j,f,NA,NA,NA,1,6,"11,13,6,15,1,4,8,10,9,7,5,2,12,14,3"
14401,commdev-image-keyboard-response,588,988043,learnblock2,598,img/planet13_right.png,13,Community 1,NA,TRUE,j,j,NA,NA,NA,1,6,"11,13,6,15,1,4,8,10,9,7,5,2,12,14,3"
14401,commdev-image-keyboard-response,589,989303,learnblock2,595,img/planet15_left.png,15,Community 1,NA,TRUE,f,f,NA,NA,NA,1,6,"11,13,6,15,1,4,8,10,9,7,5,2,12,14,3"
14401,commdev-image-keyboard-response,590,990562,learnblock2,566,img/planet4_right.png,4,Community 2,NA,TRUE,j,j,NA,NA,NA,1,6,"11,13,6,15,1,4,8,10,9,7,5,2,12,14,3"
14401,commdev-image-keyboard-response,591,991823,learnblock2,750,img/planet15_right.png,15,Community 1,NA,TRUE,j,j,NA,NA,NA,1,6,"11,13,6,15,1,4,8,10,9,7,5,2,12,14,3"
14401,commdev-image-keyboard-response,592,993083,learnblock2,607,img/planet6_right.png,6,Community 1,NA,TRUE,j,j,NA,NA,NA,1,6,"11,13,6,15,1,4,8,10,9,7,5,2,12,14,3"
14401,commdev-image-keyboard-response,593,994343,learnblock2,568,img/planet1_right.png,1,Community 1,NA,TRUE,j,j,NA,NA,NA,1,6,"11,13,6,15,1,4,8,10,9,7,5,2,12,14,3"
14401,commdev-image-keyboard-response,594,995603,learnblock2,580,img/planet6_left.png,6,Community 1,NA,TRUE,f,f,NA,NA,NA,1,6,"11,13,6,15,1,4,8,10,9,7,5,2,12,14,3"
14401,commdev-image-keyboard-response,595,996863,learnblock2,548,img/planet11_right.png,11,Community 1,NA,TRUE,j,j,NA,NA,NA,1,6,"11,13,6,15,1,4,8,10,9,7,5,2,12,14,3"
14401,commdev-image-keyboard-response,596,998123,learnblock2,739.9999999998836,img/planet15_right.png,15,Community 1,NA,TRUE,j,j,NA,NA,NA,1,6,"11,13,6,15,1,4,8,10,9,7,5,2,12,14,3"
14401,commdev-image-keyboard-response,597,999383,learnblock2,729.9999999998836,img/planet11_left.png,11,Community 1,NA,TRUE,f,f,NA,NA,NA,1,6,"11,13,6,15,1,4,8,10,9,7,5,2,12,14,3"
14401,commdev-image-keyboard-response,598,1000643,learnblock2,616,img/planet13_left.png,13,Community 1,NA,TRUE,f,f,NA,NA,NA,1,6,"11,13,6,15,1,4,8,10,9,7,5,2,12,14,3"
14401,commdev-image-keyboard-response,599,1001903,learnblock2,547,img/planet15_left.png,15,Community 1,NA,TRUE,f,f,NA,NA,NA,1,6,"11,13,6,15,1,4,8,10,9,7,5,2,12,14,3"
14401,commdev-image-keyboard-response,600,1003163,learnblock2,663,img/planet11_right.png,11,Community 1,NA,TRUE,j,j,NA,NA,NA,1,6,"11,13,6,15,1,4,8,10,9,7,5,2,12,14,3"
14401,commdev-image-keyboard-response,601,1004423,learnblock2,762,img/planet1_left.png,1,Community 1,NA,TRUE,f,f,NA,NA,NA,1,6,"11,13,6,15,1,4,8,10,9,7,5,2,12,14,3"
14401,commdev-image-keyboard-response,602,1005683,learnblock2,636,img/planet6_right.png,6,Community 1,NA,TRUE,j,j,NA,NA,NA,1,6,"11,13,6,15,1,4,8,10,9,7,5,2,12,14,3"
14401,commdev-image-keyboard-response,603,1006943,learnblock2,704.0000000001164,img/planet11_left.png,11,Community 1,NA,FALSE,j,f,NA,NA,NA,1,6,"11,13,6,15,1,4,8,10,9,7,5,2,12,14,3"
14401,commdev-image-keyboard-response,604,1008203,learnblock2,598.0000000001164,img/planet1_right.png,1,Community 1,NA,TRUE,j,j,NA,NA,NA,1,6,"11,13,6,15,1,4,8,10,9,7,5,2,12,14,3"
14401,commdev-image-keyboard-response,605,1009463,learnblock2,619,img/planet5_right.png,5,Community 3,NA,TRUE,j,j,NA,NA,NA,1,6,"11,13,6,15,1,4,8,10,9,7,5,2,12,14,3"
14401,commdev-image-keyboard-response,606,1010723,learnblock2,827,img/planet14_left.png,14,Community 3,NA,TRUE,f,f,NA,NA,NA,1,6,"11,13,6,15,1,4,8,10,9,7,5,2,12,14,3"
14401,commdev-image-keyboard-response,607,1011983,learnblock2,641,img/planet2_left.png,2,Community 3,NA,TRUE,f,f,NA,NA,NA,1,6,"11,13,6,15,1,4,8,10,9,7,5,2,12,14,3"
14401,commdev-image-keyboard-response,608,1013243,learnblock2,907,img/planet3_left.png,3,Community 3,NA,TRUE,f,f,NA,NA,NA,1,6,"11,13,6,15,1,4,8,10,9,7,5,2,12,14,3"
14401,commdev-image-keyboard-response,609,1014503,learnblock2,618.9999999998836,img/planet14_left.png,14,Community 3,NA,TRUE,f,f,NA,NA,NA,1,6,"11,13,6,15,1,4,8,10,9,7,5,2,12,14,3"
14401,commdev-image-keyboard-response,610,1015763,learnblock2,653.9999999998836,img/planet3_right.png,3,Community 3,NA,TRUE,j,j,NA,NA,NA,1,6,"11,13,6,15,1,4,8,10,9,7,5,2,12,14,3"
14401,commdev-image-keyboard-response,611,1017024,learnblock2,700,img/planet14_left.png,14,Community 3,NA,TRUE,f,f,NA,NA,NA,1,6,"11,13,6,15,1,4,8,10,9,7,5,2,12,14,3"
14401,commdev-image-keyboard-response,612,1018283,learnblock2,609,img/planet5_right.png,5,Community 3,NA,TRUE,j,j,NA,NA,NA,1,6,"11,13,6,15,1,4,8,10,9,7,5,2,12,14,3"
