subject_id,trial_type,trial_index,time_elapsed,block,rt,stimulus,planet,community,response,correct,key_press,learning_correct_response,parse,init_locations,final_locations,browser_interactions,num_comp,planet_map
14717,commdev-instructions,7,28743,NA,1516.3999998569489,"<p>In this game, you will be shown a 3x3 grid of patterns.</p> <p>The last one in the bottom right-hand corner, <strong>will be missing:</strong></p> <div style='width: 700px;'><div style='float: top;'><img style='width: 200px;' src='practice/p1_M1.png'></img><p class='small'>You need to select<strong> which of the four possible patterns </strong>along the bottom<strong> fits into the gap:</strong></p></div><div style='float: top;'><img style='width: 300px;' src='practice/p1_T1.png'></img></div><br>",NA,NA,NA,NA,NA,NA,NA,NA,NA,1,6,"13,10,11,9,12,5,6,8,15,1,3,4,14,7,2"
14717,commdev-instructions,8,47823,NA,947,"<p>Try to be as fast and as accurate as you can be.</p> <p>If you cannot solve the puzzle then you should guess - you will not be penalised for an incorrect answer.</p> <p>The task contains a shuffled mix of easy, medium and hard puzzles.</p> <p>You will have <strong>30 seconds</strong> to complete each puzzle.</p><br>",NA,NA,NA,NA,NA,NA,NA,NA,NA,1,6,"13,10,11,9,12,5,6,8,15,1,3,4,14,7,2"
14717,commdev-instructions,17,78272,NA,1044.8999998569489,<p><strong>Success!</strong></p> <p>You seem to be getting the hang of this...</p> <p>Let's move on to the real trials.</p><br>,NA,NA,NA,NA,NA,NA,NA,NA,NA,1,6,"13,10,11,9,12,5,6,8,15,1,3,4,14,7,2"
14717,commdev-instructions,180,375084,NA,1771.1000001430511,"<p>In this game, you are a scientist on board a space shuttle. </p><p> On each mission, you will visit planets all across the universe.</p><img src=""img/controlroom.jpg"" width=300vw>",NA,NA,NA,NA,NA,NA,NA,NA,NA,1,6,"13,10,11,9,12,5,6,8,15,1,3,4,14,7,2"
14717,commdev-instructions,181,378029,NA,865.3999998569489,"<p>Here are a few planets you might see:</p><img src=""img/practice1.png"" width=200vw><img src=""img/practice2.png"" width=200vw><img src=""img/practice3.png"" width=200vw>",NA,NA,NA,NA,NA,NA,NA,NA,NA,1,6,"13,10,11,9,12,5,6,8,15,1,3,4,14,7,2"
14717,commdev-instructions,182,386549,NA,1105.9000000953674,"<p>Your job as a scientist is to record which direction the winds are moving on each planet.</p><p>There are two types of wind directions:</p><img src=""img/practice1_left.png"" width=200vw><img src=""img/practice1_right.png"" width=200vw>",NA,NA,NA,NA,NA,NA,NA,NA,NA,1,6,"13,10,11,9,12,5,6,8,15,1,3,4,14,7,2"
14717,commdev-instructions,183,394397,NA,2964.7000000476837,"<p>If the winds are moving this way, press the letter <strong>F</strong> on the keyboard as fast as you can.</p><img src=""img/leftwind.png"" width=250vw>",NA,NA,NA,NA,NA,NA,NA,NA,NA,1,6,"13,10,11,9,12,5,6,8,15,1,3,4,14,7,2"
14717,commdev-instructions,184,399435,NA,542,"<p>If the winds are moving this way, press the letter <strong>J</strong> on the keyboard as fast as you can.</p><img src=""img/rightwind.png"" width=350vw>",NA,NA,NA,NA,NA,NA,NA,NA,NA,1,6,"13,10,11,9,12,5,6,8,15,1,3,4,14,7,2"
14717,commdev-instructions,185,404681,NA,818.7999999523163,<p>You will have 1 second to respond. Try to respond before the time runs out!,NA,NA,NA,NA,NA,NA,NA,NA,NA,1,6,"13,10,11,9,12,5,6,8,15,1,3,4,14,7,2"
14717,commdev-instructions,186,410945,NA,823,<p>The planets you will visit will look different from each other.</p><p>You should respond <strong>only</strong> based on wind direction.,NA,NA,NA,NA,NA,NA,NA,NA,NA,1,6,"13,10,11,9,12,5,6,8,15,1,3,4,14,7,2"
14717,commdev-instructions,187,416736,NA,622.5,"<p> Ready to start the practice round? </p><p> Remember, press <strong>F</strong> or <strong>J</strong> depending on the wind direction.<br><img src=""img/categorize_planet_example.png""",NA,NA,NA,NA,NA,NA,NA,NA,NA,1,6,"13,10,11,9,12,5,6,8,15,1,3,4,14,7,2"
14717,commdev-instructions,199,464172,NA,704.9000000953674,"<p>Great, now try a short practice mission. </p><p> This time, you will have 1 second to respond and you won't know whether you pressed the right or wrong key for each planet.</p>",NA,NA,NA,NA,NA,NA,NA,NA,NA,1,6,"13,10,11,9,12,5,6,8,15,1,3,4,14,7,2"
14717,commdev-image-keyboard-response,200,465541,practice,1168.7999999523163,img/practice3_left.png,NA,Number not found in mappings,NA,TRUE,f,f,NA,NA,NA,1,6,"13,10,11,9,12,5,6,8,15,1,3,4,14,7,2"
14717,commdev-image-keyboard-response,201,466796,practice,724.0999999046326,img/practice4_left.png,NA,Number not found in mappings,NA,TRUE,f,f,NA,NA,NA,1,6,"13,10,11,9,12,5,6,8,15,1,3,4,14,7,2"
14717,commdev-image-keyboard-response,202,468059,practice,669.5999999046326,img/practice2_right.png,NA,Number not found in mappings,NA,FALSE,f,j,NA,NA,NA,1,6,"13,10,11,9,12,5,6,8,15,1,3,4,14,7,2"
14717,commdev-image-keyboard-response,203,469324,practice,590.5,img/practice4_left.png,NA,Number not found in mappings,NA,TRUE,f,f,NA,NA,NA,1,6,"13,10,11,9,12,5,6,8,15,1,3,4,14,7,2"
14717,commdev-image-keyboard-response,204,470576,practice,1053.2999999523163,img/practice2_left.png,NA,Number not found in mappings,NA,TRUE,f,f,NA,NA,NA,1,6,"13,10,11,9,12,5,6,8,15,1,3,4,14,7,2"
14717,commdev-image-keyboard-response,205,471835,practice,809.2999999523163,img/practice3_left.png,NA,Number not found in mappings,NA,TRUE,f,f,NA,NA,NA,1,6,"13,10,11,9,12,5,6,8,15,1,3,4,14,7,2"
14717,commdev-image-keyboard-response,206,473094,practice,645.5,img/practice1_right.png,NA,Number not found in mappings,NA,TRUE,j,j,NA,NA,NA,1,6,"13,10,11,9,12,5,6,8,15,1,3,4,14,7,2"
14717,commdev-image-keyboard-response,207,474354,practice,667.0999999046326,img/practice2_left.png,NA,Number not found in mappings,NA,TRUE,f,f,NA,NA,NA,1,6,"13,10,11,9,12,5,6,8,15,1,3,4,14,7,2"
14717,commdev-instructions,208,484412,NA,504.5,"<p>Great job with the practice round.</p><p>During real missions, you won't know whether you pressed the right or wrong key for each planet.</p><p>But between missions, we will tell you how you did overall.</p>",NA,NA,NA,NA,NA,NA,NA,NA,NA,1,6,"13,10,11,9,12,5,6,8,15,1,3,4,14,7,2"
14717,commdev-instructions,209,493399,NA,742.5,<p>Try your best! You will be paid a bonus based on how many correct responses you make!</p><p>Responses that are too slow will not count toward your bonus.</p>,NA,NA,NA,NA,NA,NA,NA,NA,NA,1,6,"13,10,11,9,12,5,6,8,15,1,3,4,14,7,2"
14717,commdev-instructions,210,500084,NA,486.2999999523163,"<p>You are almost ready to start the real game.</p><p> First, we are going to ask you some questions about how the game works.</p>",NA,NA,NA,NA,NA,NA,NA,NA,NA,1,6,"13,10,11,9,12,5,6,8,15,1,3,4,14,7,2"
14717,commdev-instructions,219,558391,NA,NA,NA,NA,NA,NA,NA,NA,NA,NA,NA,NA,1,6,"13,10,11,9,12,5,6,8,15,1,3,4,14,7,2"
14717,commdev-image-keyboard-response,221,578040,learnblock1,null,img/planet12_right.png,12,Community 1,NA,FALSE,null,j,NA,NA,NA,1,6,"13,10,11,9,12,5,6,8,15,1,3,4,14,7,2"
14717,commdev-image-keyboard-response,222,579298,learnblock1,null,img/planet10_right.png,10,Community 1,NA,FALSE,null,j,NA,NA,NA,1,6,"13,10,11,9,12,5,6,8,15,1,3,4,14,7,2"
14717,commdev-image-keyboard-response,223,580555,learnblock1,950.2999999523163,img/planet12_left.png,12,Community 1,NA,TRUE,f,f,NA,NA,NA,1,6,"13,10,11,9,12,5,6,8,15,1,3,4,14,7,2"
14717,commdev-image-keyboard-response,224,581810,learnblock1,null,img/planet11_right.png,11,Community 1,NA,FALSE,null,j,NA,NA,NA,1,6,"13,10,11,9,12,5,6,8,15,1,3,4,14,7,2"
14717,commdev-image-keyboard-response,225,583063,learnblock1,782.6999998092651,img/planet9_left.png,9,Community 1,NA,TRUE,f,f,NA,NA,NA,1,6,"13,10,11,9,12,5,6,8,15,1,3,4,14,7,2"
14717,commdev-image-keyboard-response,226,584320,learnblock1,null,img/planet5_left.png,5,Community 2,NA,FALSE,null,f,NA,NA,NA,1,6,"13,10,11,9,12,5,6,8,15,1,3,4,14,7,2"
14717,commdev-image-keyboard-response,227,585586,learnblock1,47.90000009536743,img/planet9_left.png,9,Community 1,NA,TRUE,f,f,NA,NA,NA,1,6,"13,10,11,9,12,5,6,8,15,1,3,4,14,7,2"
14717,commdev-image-keyboard-response,228,586851,learnblock1,null,img/planet10_right.png,10,Community 1,NA,FALSE,null,j,NA,NA,NA,1,6,"13,10,11,9,12,5,6,8,15,1,3,4,14,7,2"
14717,commdev-image-keyboard-response,229,588112,learnblock1,702,img/planet12_left.png,12,Community 1,NA,TRUE,f,f,NA,NA,NA,1,6,"13,10,11,9,12,5,6,8,15,1,3,4,14,7,2"
14717,commdev-image-keyboard-response,230,589368,learnblock1,769.2999999523163,img/planet10_left.png,10,Community 1,NA,TRUE,f,f,NA,NA,NA,1,6,"13,10,11,9,12,5,6,8,15,1,3,4,14,7,2"
14717,commdev-image-keyboard-response,231,590631,learnblock1,null,img/planet9_right.png,9,Community 1,NA,FALSE,null,j,NA,NA,NA,1,6,"13,10,11,9,12,5,6,8,15,1,3,4,14,7,2"
14717,commdev-image-keyboard-response,232,591887,learnblock1,664.3000001907349,img/planet10_left.png,10,Community 1,NA,TRUE,f,f,NA,NA,NA,1,6,"13,10,11,9,12,5,6,8,15,1,3,4,14,7,2"
14717,commdev-image-keyboard-response,233,593142,learnblock1,null,img/planet12_right.png,12,Community 1,NA,FALSE,null,j,NA,NA,NA,1,6,"13,10,11,9,12,5,6,8,15,1,3,4,14,7,2"
14717,commdev-image-keyboard-response,234,594402,learnblock1,null,img/planet3_right.png,3,Community 3,NA,FALSE,null,j,NA,NA,NA,1,6,"13,10,11,9,12,5,6,8,15,1,3,4,14,7,2"
14717,commdev-image-keyboard-response,235,595657,learnblock1,782.5,img/planet12_left.png,12,Community 1,NA,TRUE,f,f,NA,NA,NA,1,6,"13,10,11,9,12,5,6,8,15,1,3,4,14,7,2"
14717,commdev-image-keyboard-response,236,596923,learnblock1,null,img/planet11_right.png,11,Community 1,NA,FALSE,null,j,NA,NA,NA,1,6,"13,10,11,9,12,5,6,8,15,1,3,4,14,7,2"
14717,commdev-image-keyboard-response,237,598182,learnblock1,null,img/planet9_left.png,9,Community 1,NA,FALSE,null,f,NA,NA,NA,1,6,"13,10,11,9,12,5,6,8,15,1,3,4,14,7,2"
14717,commdev-image-keyboard-response,238,599438,learnblock1,null,img/planet5_right.png,5,Community 2,NA,FALSE,null,j,NA,NA,NA,1,6,"13,10,11,9,12,5,6,8,15,1,3,4,14,7,2"
14717,commdev-image-keyboard-response,239,600692,learnblock1,618.7000000476837,img/planet9_left.png,9,Community 1,NA,TRUE,f,f,NA,NA,NA,1,6,"13,10,11,9,12,5,6,8,15,1,3,4,14,7,2"
14717,commdev-image-keyboard-response,240,601948,learnblock1,null,img/planet10_right.png,10,Community 1,NA,FALSE,null,j,NA,NA,NA,1,6,"13,10,11,9,12,5,6,8,15,1,3,4,14,7,2"
14717,commdev-image-keyboard-response,241,603204,learnblock1,null,img/planet11_right.png,11,Community 1,NA,FALSE,null,j,NA,NA,NA,1,6,"13,10,11,9,12,5,6,8,15,1,3,4,14,7,2"
14717,commdev-image-keyboard-response,242,604456,learnblock1,715.7000000476837,img/planet9_left.png,9,Community 1,NA,TRUE,f,f,NA,NA,NA,1,6,"13,10,11,9,12,5,6,8,15,1,3,4,14,7,2"
14717,commdev-image-keyboard-response,243,605708,learnblock1,null,img/planet13_left.png,13,Community 1,NA,FALSE,null,f,NA,NA,NA,1,6,"13,10,11,9,12,5,6,8,15,1,3,4,14,7,2"
14717,commdev-image-keyboard-response,244,606960,learnblock1,196.20000004768372,img/planet10_left.png,10,Community 1,NA,TRUE,f,f,NA,NA,NA,1,6,"13,10,11,9,12,5,6,8,15,1,3,4,14,7,2"
14717,commdev-image-keyboard-response,245,608211,learnblock1,416.5,img/planet9_left.png,9,Community 1,NA,TRUE,f,f,NA,NA,NA,1,6,"13,10,11,9,12,5,6,8,15,1,3,4,14,7,2"
14717,commdev-image-keyboard-response,246,609464,learnblock1,758.4000000953674,img/planet5_left.png,5,Community 2,NA,TRUE,f,f,NA,NA,NA,1,6,"13,10,11,9,12,5,6,8,15,1,3,4,14,7,2"
14717,commdev-image-keyboard-response,247,610715,learnblock1,649.7000000476837,img/planet9_left.png,9,Community 1,NA,TRUE,f,f,NA,NA,NA,1,6,"13,10,11,9,12,5,6,8,15,1,3,4,14,7,2"
14717,commdev-image-keyboard-response,248,611967,learnblock1,null,img/planet10_right.png,10,Community 1,NA,FALSE,null,j,NA,NA,NA,1,6,"13,10,11,9,12,5,6,8,15,1,3,4,14,7,2"
14717,commdev-image-keyboard-response,249,613219,learnblock1,584.7000000476837,img/planet11_left.png,11,Community 1,NA,TRUE,f,f,NA,NA,NA,1,6,"13,10,11,9,12,5,6,8,15,1,3,4,14,7,2"
14717,commdev-image-keyboard-response,250,614481,learnblock1,null,img/planet13_right.png,13,Community 1,NA,FALSE,null,j,NA,NA,NA,1,6,"13,10,11,9,12,5,6,8,15,1,3,4,14,7,2"
14717,commdev-image-keyboard-response,251,615742,learnblock1,856.4000000953674,img/planet11_left.png,11,Community 1,NA,TRUE,f,f,NA,NA,NA,1,6,"13,10,11,9,12,5,6,8,15,1,3,4,14,7,2"
14717,commdev-image-keyboard-response,252,616994,learnblock1,746.2999999523163,img/planet10_left.png,10,Community 1,NA,TRUE,f,f,NA,NA,NA,1,6,"13,10,11,9,12,5,6,8,15,1,3,4,14,7,2"
14717,commdev-image-keyboard-response,253,618245,learnblock1,null,img/planet11_right.png,11,Community 1,NA,FALSE,null,j,NA,NA,NA,1,6,"13,10,11,9,12,5,6,8,15,1,3,4,14,7,2"
14717,commdev-image-keyboard-response,254,619497,learnblock1,null,img/planet12_right.png,12,Community 1,NA,FALSE,null,j,NA,NA,NA,1,6,"13,10,11,9,12,5,6,8,15,1,3,4,14,7,2"
14717,commdev-image-keyboard-response,255,620749,learnblock1,null,img/planet11_right.png,11,Community 1,NA,FALSE,null,j,NA,NA,NA,1,6,"13,10,11,9,12,5,6,8,15,1,3,4,14,7,2"
14717,commdev-image-keyboard-response,256,622000,learnblock1,812.1999998092651,img/planet10_left.png,10,Community 1,NA,TRUE,f,f,NA,NA,NA,1,6,"13,10,11,9,12,5,6,8,15,1,3,4,14,7,2"
14717,commdev-image-keyboard-response,257,623251,learnblock1,858.5,img/planet11_left.png,11,Community 1,NA,TRUE,f,f,NA,NA,NA,1,6,"13,10,11,9,12,5,6,8,15,1,3,4,14,7,2"
14717,commdev-image-keyboard-response,258,624503,learnblock1,836.3000001907349,img/planet13_left.png,13,Community 1,NA,TRUE,f,f,NA,NA,NA,1,6,"13,10,11,9,12,5,6,8,15,1,3,4,14,7,2"
14717,commdev-image-keyboard-response,259,625754,learnblock1,666.5,img/planet10_right.png,10,Community 1,NA,FALSE,f,j,NA,NA,NA,1,6,"13,10,11,9,12,5,6,8,15,1,3,4,14,7,2"
14717,commdev-image-keyboard-response,260,627006,learnblock1,654.3999998569489,img/planet12_left.png,12,Community 1,NA,TRUE,f,f,NA,NA,NA,1,6,"13,10,11,9,12,5,6,8,15,1,3,4,14,7,2"
14717,commdev-image-keyboard-response,261,628258,learnblock1,794.5999999046326,img/planet13_left.png,13,Community 1,NA,TRUE,f,f,NA,NA,NA,1,6,"13,10,11,9,12,5,6,8,15,1,3,4,14,7,2"
14717,commdev-image-keyboard-response,262,629510,learnblock1,638,img/planet9_left.png,9,Community 1,NA,TRUE,f,f,NA,NA,NA,1,6,"13,10,11,9,12,5,6,8,15,1,3,4,14,7,2"
14717,commdev-image-keyboard-response,263,630761,learnblock1,null,img/planet5_right.png,5,Community 2,NA,FALSE,null,j,NA,NA,NA,1,6,"13,10,11,9,12,5,6,8,15,1,3,4,14,7,2"
14717,commdev-image-keyboard-response,264,632013,learnblock1,null,img/planet1_right.png,1,Community 2,NA,FALSE,null,j,NA,NA,NA,1,6,"13,10,11,9,12,5,6,8,15,1,3,4,14,7,2"
14717,commdev-image-keyboard-response,265,633265,learnblock1,1011.8999998569489,img/planet6_right.png,6,Community 2,NA,FALSE,f,j,NA,NA,NA,1,6,"13,10,11,9,12,5,6,8,15,1,3,4,14,7,2"
14717,commdev-image-keyboard-response,266,634517,learnblock1,null,img/planet1_right.png,1,Community 2,NA,FALSE,null,j,NA,NA,NA,1,6,"13,10,11,9,12,5,6,8,15,1,3,4,14,7,2"
14717,commdev-image-keyboard-response,267,635769,learnblock1,979.6000001430511,img/planet6_left.png,6,Community 2,NA,TRUE,f,f,NA,NA,NA,1,6,"13,10,11,9,12,5,6,8,15,1,3,4,14,7,2"
14717,commdev-image-keyboard-response,268,637020,learnblock1,null,img/planet8_right.png,8,Community 2,NA,FALSE,null,j,NA,NA,NA,1,6,"13,10,11,9,12,5,6,8,15,1,3,4,14,7,2"
14717,commdev-image-keyboard-response,269,638273,learnblock1,675.3000001907349,img/planet15_right.png,15,Community 2,NA,FALSE,f,j,NA,NA,NA,1,6,"13,10,11,9,12,5,6,8,15,1,3,4,14,7,2"
14717,commdev-image-keyboard-response,270,639525,learnblock1,959.5999999046326,img/planet1_right.png,1,Community 2,NA,FALSE,f,j,NA,NA,NA,1,6,"13,10,11,9,12,5,6,8,15,1,3,4,14,7,2"
14717,commdev-image-keyboard-response,271,640776,learnblock1,916.2000000476837,img/planet15_left.png,15,Community 2,NA,TRUE,f,f,NA,NA,NA,1,6,"13,10,11,9,12,5,6,8,15,1,3,4,14,7,2"
14717,commdev-image-keyboard-response,272,642027,learnblock1,745.2999999523163,img/planet5_left.png,5,Community 2,NA,TRUE,f,f,NA,NA,NA,1,6,"13,10,11,9,12,5,6,8,15,1,3,4,14,7,2"
14717,commdev-image-keyboard-response,273,643288,learnblock1,678.5,img/planet9_left.png,9,Community 1,NA,TRUE,f,f,NA,NA,NA,1,6,"13,10,11,9,12,5,6,8,15,1,3,4,14,7,2"
14717,commdev-image-keyboard-response,274,644540,learnblock1,null,img/planet11_right.png,11,Community 1,NA,FALSE,null,j,NA,NA,NA,1,6,"13,10,11,9,12,5,6,8,15,1,3,4,14,7,2"
14717,commdev-image-keyboard-response,275,645792,learnblock1,884.0999999046326,img/planet13_left.png,13,Community 1,NA,TRUE,f,f,NA,NA,NA,1,6,"13,10,11,9,12,5,6,8,15,1,3,4,14,7,2"
14717,commdev-image-keyboard-response,276,647044,learnblock1,null,img/planet12_right.png,12,Community 1,NA,FALSE,null,j,NA,NA,NA,1,6,"13,10,11,9,12,5,6,8,15,1,3,4,14,7,2"
14717,commdev-image-keyboard-response,277,648295,learnblock1,494.2000000476837,img/planet11_right.png,11,Community 1,NA,FALSE,f,j,NA,NA,NA,1,6,"13,10,11,9,12,5,6,8,15,1,3,4,14,7,2"
14717,commdev-image-keyboard-response,278,649546,learnblock1,null,img/planet9_left.png,9,Community 1,NA,FALSE,null,f,NA,NA,NA,1,6,"13,10,11,9,12,5,6,8,15,1,3,4,14,7,2"
14717,commdev-image-keyboard-response,279,650798,learnblock1,null,img/planet5_right.png,5,Community 2,NA,FALSE,null,j,NA,NA,NA,1,6,"13,10,11,9,12,5,6,8,15,1,3,4,14,7,2"
14717,commdev-image-keyboard-response,280,652050,learnblock1,null,img/planet15_right.png,15,Community 2,NA,FALSE,null,j,NA,NA,NA,1,6,"13,10,11,9,12,5,6,8,15,1,3,4,14,7,2"
14717,commdev-image-keyboard-response,281,653301,learnblock1,926.7999999523163,img/planet6_right.png,6,Community 2,NA,FALSE,f,j,NA,NA,NA,1,6,"13,10,11,9,12,5,6,8,15,1,3,4,14,7,2"
14717,commdev-image-keyboard-response,282,654553,learnblock1,null,img/planet5_right.png,5,Community 2,NA,FALSE,null,j,NA,NA,NA,1,6,"13,10,11,9,12,5,6,8,15,1,3,4,14,7,2"
14717,commdev-image-keyboard-response,283,655804,learnblock1,910.9000000953674,img/planet15_left.png,15,Community 2,NA,TRUE,f,f,NA,NA,NA,1,6,"13,10,11,9,12,5,6,8,15,1,3,4,14,7,2"
14717,commdev-image-keyboard-response,284,657056,learnblock1,null,img/planet6_right.png,6,Community 2,NA,FALSE,null,j,NA,NA,NA,1,6,"13,10,11,9,12,5,6,8,15,1,3,4,14,7,2"
14717,commdev-image-keyboard-response,285,658307,learnblock1,null,img/planet15_right.png,15,Community 2,NA,FALSE,null,j,NA,NA,NA,1,6,"13,10,11,9,12,5,6,8,15,1,3,4,14,7,2"
14717,commdev-image-keyboard-response,286,659559,learnblock1,939.5,img/planet6_left.png,6,Community 2,NA,TRUE,f,f,NA,NA,NA,1,6,"13,10,11,9,12,5,6,8,15,1,3,4,14,7,2"
14717,commdev-image-keyboard-response,287,660811,learnblock1,849.1999998092651,img/planet15_left.png,15,Community 2,NA,TRUE,f,f,NA,NA,NA,1,6,"13,10,11,9,12,5,6,8,15,1,3,4,14,7,2"
14717,commdev-image-keyboard-response,288,662063,learnblock1,null,img/planet1_right.png,1,Community 2,NA,FALSE,null,j,NA,NA,NA,1,6,"13,10,11,9,12,5,6,8,15,1,3,4,14,7,2"
14717,commdev-image-keyboard-response,289,663314,learnblock1,721.1000001430511,img/planet6_right.png,6,Community 2,NA,FALSE,f,j,NA,NA,NA,1,6,"13,10,11,9,12,5,6,8,15,1,3,4,14,7,2"
14717,commdev-image-keyboard-response,290,664565,learnblock1,1038.8999998569489,img/planet15_left.png,15,Community 2,NA,TRUE,f,f,NA,NA,NA,1,6,"13,10,11,9,12,5,6,8,15,1,3,4,14,7,2"
14717,commdev-image-keyboard-response,291,665817,learnblock1,811.5,img/planet6_left.png,6,Community 2,NA,TRUE,f,f,NA,NA,NA,1,6,"13,10,11,9,12,5,6,8,15,1,3,4,14,7,2"
14717,commdev-image-keyboard-response,292,667068,learnblock1,719.7999999523163,img/planet5_left.png,5,Community 2,NA,TRUE,f,f,NA,NA,NA,1,6,"13,10,11,9,12,5,6,8,15,1,3,4,14,7,2"
14717,commdev-image-keyboard-response,293,668320,learnblock1,676.8999998569489,img/planet15_left.png,15,Community 2,NA,TRUE,f,f,NA,NA,NA,1,6,"13,10,11,9,12,5,6,8,15,1,3,4,14,7,2"
14717,commdev-image-keyboard-response,294,669572,learnblock1,null,img/planet8_right.png,8,Community 2,NA,FALSE,null,j,NA,NA,NA,1,6,"13,10,11,9,12,5,6,8,15,1,3,4,14,7,2"
14717,commdev-image-keyboard-response,295,670824,learnblock1,null,img/planet4_right.png,4,Community 3,NA,FALSE,null,j,NA,NA,NA,1,6,"13,10,11,9,12,5,6,8,15,1,3,4,14,7,2"
14717,commdev-image-keyboard-response,296,672075,learnblock1,865.1999998092651,img/planet2_left.png,2,Community 3,NA,TRUE,f,f,NA,NA,NA,1,6,"13,10,11,9,12,5,6,8,15,1,3,4,14,7,2"
14717,commdev-image-keyboard-response,297,673327,learnblock1,null,img/planet4_right.png,4,Community 3,NA,FALSE,null,j,NA,NA,NA,1,6,"13,10,11,9,12,5,6,8,15,1,3,4,14,7,2"
14717,commdev-image-keyboard-response,298,674579,learnblock1,753.7000000476837,img/planet14_right.png,14,Community 3,NA,FALSE,f,j,NA,NA,NA,1,6,"13,10,11,9,12,5,6,8,15,1,3,4,14,7,2"
14717,commdev-image-keyboard-response,299,675831,learnblock1,902.2000000476837,img/planet4_right.png,4,Community 3,NA,FALSE,f,j,NA,NA,NA,1,6,"13,10,11,9,12,5,6,8,15,1,3,4,14,7,2"
14717,commdev-image-keyboard-response,300,677082,learnblock1,null,img/planet2_right.png,2,Community 3,NA,FALSE,null,j,NA,NA,NA,1,6,"13,10,11,9,12,5,6,8,15,1,3,4,14,7,2"
14717,commdev-image-keyboard-response,301,678333,learnblock1,null,img/planet7_right.png,7,Community 3,NA,FALSE,null,j,NA,NA,NA,1,6,"13,10,11,9,12,5,6,8,15,1,3,4,14,7,2"
14717,commdev-image-keyboard-response,302,679584,learnblock1,null,img/planet3_right.png,3,Community 3,NA,FALSE,null,j,NA,NA,NA,1,6,"13,10,11,9,12,5,6,8,15,1,3,4,14,7,2"
14717,commdev-image-keyboard-response,303,680836,learnblock1,832,img/planet12_left.png,12,Community 1,NA,TRUE,f,f,NA,NA,NA,1,6,"13,10,11,9,12,5,6,8,15,1,3,4,14,7,2"
14717,commdev-image-keyboard-response,304,682087,learnblock1,null,img/planet11_right.png,11,Community 1,NA,FALSE,null,j,NA,NA,NA,1,6,"13,10,11,9,12,5,6,8,15,1,3,4,14,7,2"
14717,commdev-image-keyboard-response,305,683339,learnblock1,null,img/planet9_right.png,9,Community 1,NA,FALSE,null,j,NA,NA,NA,1,6,"13,10,11,9,12,5,6,8,15,1,3,4,14,7,2"
14717,commdev-image-keyboard-response,306,684591,learnblock1,null,img/planet5_left.png,5,Community 2,NA,FALSE,null,f,NA,NA,NA,1,6,"13,10,11,9,12,5,6,8,15,1,3,4,14,7,2"
14717,commdev-image-keyboard-response,307,685842,learnblock1,688.7999999523163,img/planet15_right.png,15,Community 2,NA,FALSE,f,j,NA,NA,NA,1,6,"13,10,11,9,12,5,6,8,15,1,3,4,14,7,2"
14717,commdev-image-keyboard-response,308,687095,learnblock1,814.6000001430511,img/planet1_left.png,1,Community 2,NA,TRUE,f,f,NA,NA,NA,1,6,"13,10,11,9,12,5,6,8,15,1,3,4,14,7,2"
14717,commdev-image-keyboard-response,309,688346,learnblock1,1018.5,img/planet5_left.png,5,Community 2,NA,TRUE,f,f,NA,NA,NA,1,6,"13,10,11,9,12,5,6,8,15,1,3,4,14,7,2"
14717,commdev-image-keyboard-response,310,689598,learnblock1,902.3000001907349,img/planet9_left.png,9,Community 1,NA,TRUE,f,f,NA,NA,NA,1,6,"13,10,11,9,12,5,6,8,15,1,3,4,14,7,2"
14717,commdev-image-keyboard-response,311,690850,learnblock1,1161.5,img/planet5_left.png,5,Community 2,NA,TRUE,f,f,NA,NA,NA,1,6,"13,10,11,9,12,5,6,8,15,1,3,4,14,7,2"
14717,commdev-image-keyboard-response,312,692101,learnblock1,870.7999999523163,img/planet1_left.png,1,Community 2,NA,TRUE,f,f,NA,NA,NA,1,6,"13,10,11,9,12,5,6,8,15,1,3,4,14,7,2"
14717,commdev-image-keyboard-response,313,693352,learnblock1,null,img/planet8_left.png,8,Community 2,NA,FALSE,null,f,NA,NA,NA,1,6,"13,10,11,9,12,5,6,8,15,1,3,4,14,7,2"
14717,commdev-image-keyboard-response,314,694603,learnblock1,808.2000000476837,img/planet6_left.png,6,Community 2,NA,TRUE,f,f,NA,NA,NA,1,6,"13,10,11,9,12,5,6,8,15,1,3,4,14,7,2"
14717,commdev-image-keyboard-response,315,695855,learnblock1,804.5,img/planet1_left.png,1,Community 2,NA,TRUE,f,f,NA,NA,NA,1,6,"13,10,11,9,12,5,6,8,15,1,3,4,14,7,2"
14717,commdev-image-keyboard-response,316,697107,learnblock1,753.2000000476837,img/planet6_left.png,6,Community 2,NA,TRUE,f,f,NA,NA,NA,1,6,"13,10,11,9,12,5,6,8,15,1,3,4,14,7,2"
14717,commdev-image-keyboard-response,317,698359,learnblock1,null,img/planet5_right.png,5,Community 2,NA,FALSE,null,j,NA,NA,NA,1,6,"13,10,11,9,12,5,6,8,15,1,3,4,14,7,2"
14717,commdev-image-keyboard-response,318,699611,learnblock1,null,img/planet1_right.png,1,Community 2,NA,FALSE,null,j,NA,NA,NA,1,6,"13,10,11,9,12,5,6,8,15,1,3,4,14,7,2"
14717,commdev-image-keyboard-response,319,700863,learnblock1,773.6999998092651,img/planet6_left.png,6,Community 2,NA,TRUE,f,f,NA,NA,NA,1,6,"13,10,11,9,12,5,6,8,15,1,3,4,14,7,2"
14717,commdev-image-keyboard-response,320,702115,learnblock1,945.0999999046326,img/planet15_left.png,15,Community 2,NA,TRUE,f,f,NA,NA,NA,1,6,"13,10,11,9,12,5,6,8,15,1,3,4,14,7,2"
14717,commdev-image-keyboard-response,321,703366,learnblock1,null,img/planet5_right.png,5,Community 2,NA,FALSE,null,j,NA,NA,NA,1,6,"13,10,11,9,12,5,6,8,15,1,3,4,14,7,2"
14717,commdev-image-keyboard-response,322,704618,learnblock1,994.6000001430511,img/planet15_left.png,15,Community 2,NA,TRUE,f,f,NA,NA,NA,1,6,"13,10,11,9,12,5,6,8,15,1,3,4,14,7,2"
14717,commdev-image-keyboard-response,323,705869,learnblock1,null,img/planet5_right.png,5,Community 2,NA,FALSE,null,j,NA,NA,NA,1,6,"13,10,11,9,12,5,6,8,15,1,3,4,14,7,2"
14717,commdev-image-keyboard-response,324,707120,learnblock1,916.8000001907349,img/planet15_right.png,15,Community 2,NA,FALSE,f,j,NA,NA,NA,1,6,"13,10,11,9,12,5,6,8,15,1,3,4,14,7,2"
14717,commdev-image-keyboard-response,325,708371,learnblock1,null,img/planet5_right.png,5,Community 2,NA,FALSE,null,j,NA,NA,NA,1,6,"13,10,11,9,12,5,6,8,15,1,3,4,14,7,2"
14717,commdev-image-keyboard-response,326,709623,learnblock1,null,img/planet1_right.png,1,Community 2,NA,FALSE,null,j,NA,NA,NA,1,6,"13,10,11,9,12,5,6,8,15,1,3,4,14,7,2"
14717,commdev-image-keyboard-response,327,710874,learnblock1,null,img/planet5_right.png,5,Community 2,NA,FALSE,null,j,NA,NA,NA,1,6,"13,10,11,9,12,5,6,8,15,1,3,4,14,7,2"
14717,commdev-image-keyboard-response,328,712125,learnblock1,814.5999999046326,img/planet6_left.png,6,Community 2,NA,TRUE,f,f,NA,NA,NA,1,6,"13,10,11,9,12,5,6,8,15,1,3,4,14,7,2"
14717,commdev-image-keyboard-response,329,713377,learnblock1,923.9000000953674,img/planet8_left.png,8,Community 2,NA,TRUE,f,f,NA,NA,NA,1,6,"13,10,11,9,12,5,6,8,15,1,3,4,14,7,2"
14717,commdev-image-keyboard-response,330,714629,learnblock1,null,img/planet4_right.png,4,Community 3,NA,FALSE,null,j,NA,NA,NA,1,6,"13,10,11,9,12,5,6,8,15,1,3,4,14,7,2"
14717,commdev-image-keyboard-response,331,715880,learnblock1,null,img/planet14_left.png,14,Community 3,NA,FALSE,null,f,NA,NA,NA,1,6,"13,10,11,9,12,5,6,8,15,1,3,4,14,7,2"
14717,commdev-image-keyboard-response,332,717131,learnblock1,null,img/planet7_left.png,7,Community 3,NA,FALSE,null,f,NA,NA,NA,1,6,"13,10,11,9,12,5,6,8,15,1,3,4,14,7,2"
14717,commdev-image-keyboard-response,333,718383,learnblock1,null,img/planet14_left.png,14,Community 3,NA,FALSE,null,f,NA,NA,NA,1,6,"13,10,11,9,12,5,6,8,15,1,3,4,14,7,2"
14717,commdev-image-keyboard-response,334,719634,learnblock1,null,img/planet7_left.png,7,Community 3,NA,FALSE,null,f,NA,NA,NA,1,6,"13,10,11,9,12,5,6,8,15,1,3,4,14,7,2"
14717,commdev-image-keyboard-response,335,720900,learnblock1,null,img/planet4_right.png,4,Community 3,NA,FALSE,null,j,NA,NA,NA,1,6,"13,10,11,9,12,5,6,8,15,1,3,4,14,7,2"
14717,commdev-image-keyboard-response,336,722152,learnblock1,null,img/planet7_right.png,7,Community 3,NA,FALSE,null,j,NA,NA,NA,1,6,"13,10,11,9,12,5,6,8,15,1,3,4,14,7,2"
14717,commdev-image-keyboard-response,337,723404,learnblock1,null,img/planet14_left.png,14,Community 3,NA,FALSE,null,f,NA,NA,NA,1,6,"13,10,11,9,12,5,6,8,15,1,3,4,14,7,2"
14717,commdev-image-keyboard-response,338,724655,learnblock1,null,img/planet7_left.png,7,Community 3,NA,FALSE,null,f,NA,NA,NA,1,6,"13,10,11,9,12,5,6,8,15,1,3,4,14,7,2"
14717,commdev-image-keyboard-response,339,725908,learnblock1,null,img/planet2_right.png,2,Community 3,NA,FALSE,null,j,NA,NA,NA,1,6,"13,10,11,9,12,5,6,8,15,1,3,4,14,7,2"
14717,commdev-image-keyboard-response,340,727159,learnblock1,989.0999999046326,img/planet7_left.png,7,Community 3,NA,TRUE,f,f,NA,NA,NA,1,6,"13,10,11,9,12,5,6,8,15,1,3,4,14,7,2"
14717,commdev-image-keyboard-response,341,728411,learnblock1,null,img/planet14_right.png,14,Community 3,NA,FALSE,null,j,NA,NA,NA,1,6,"13,10,11,9,12,5,6,8,15,1,3,4,14,7,2"
14717,commdev-image-keyboard-response,342,729662,learnblock1,null,img/planet4_right.png,4,Community 3,NA,FALSE,null,j,NA,NA,NA,1,6,"13,10,11,9,12,5,6,8,15,1,3,4,14,7,2"
14717,commdev-image-keyboard-response,343,730913,learnblock1,null,img/planet8_left.png,8,Community 2,NA,FALSE,null,f,NA,NA,NA,1,6,"13,10,11,9,12,5,6,8,15,1,3,4,14,7,2"
14717,commdev-image-keyboard-response,344,732165,learnblock1,104.29999995231628,img/planet4_right.png,4,Community 3,NA,FALSE,f,j,NA,NA,NA,1,6,"13,10,11,9,12,5,6,8,15,1,3,4,14,7,2"
14717,commdev-image-keyboard-response,345,733417,learnblock1,1083.3999998569489,img/planet14_right.png,14,Community 3,NA,FALSE,f,j,NA,NA,NA,1,6,"13,10,11,9,12,5,6,8,15,1,3,4,14,7,2"
14717,commdev-image-keyboard-response,346,734669,learnblock1,null,img/planet3_right.png,3,Community 3,NA,FALSE,null,j,NA,NA,NA,1,6,"13,10,11,9,12,5,6,8,15,1,3,4,14,7,2"
14717,commdev-image-keyboard-response,347,735921,learnblock1,907.7000000476837,img/planet14_right.png,14,Community 3,NA,FALSE,f,j,NA,NA,NA,1,6,"13,10,11,9,12,5,6,8,15,1,3,4,14,7,2"
14717,commdev-image-keyboard-response,348,737172,learnblock1,null,img/planet3_right.png,3,Community 3,NA,FALSE,null,j,NA,NA,NA,1,6,"13,10,11,9,12,5,6,8,15,1,3,4,14,7,2"
14717,commdev-image-keyboard-response,349,738425,learnblock1,null,img/planet14_right.png,14,Community 3,NA,FALSE,null,j,NA,NA,NA,1,6,"13,10,11,9,12,5,6,8,15,1,3,4,14,7,2"
14717,commdev-image-keyboard-response,350,739676,learnblock1,null,img/planet4_right.png,4,Community 3,NA,FALSE,null,j,NA,NA,NA,1,6,"13,10,11,9,12,5,6,8,15,1,3,4,14,7,2"
14717,commdev-image-keyboard-response,351,740929,learnblock1,null,img/planet2_right.png,2,Community 3,NA,FALSE,null,j,NA,NA,NA,1,6,"13,10,11,9,12,5,6,8,15,1,3,4,14,7,2"
14717,commdev-image-keyboard-response,352,742180,learnblock1,null,img/planet14_right.png,14,Community 3,NA,FALSE,null,j,NA,NA,NA,1,6,"13,10,11,9,12,5,6,8,15,1,3,4,14,7,2"
14717,commdev-image-keyboard-response,353,743431,learnblock1,null,img/planet7_left.png,7,Community 3,NA,FALSE,null,f,NA,NA,NA,1,6,"13,10,11,9,12,5,6,8,15,1,3,4,14,7,2"
14717,commdev-image-keyboard-response,354,744683,learnblock1,41.799999952316284,img/planet14_left.png,14,Community 3,NA,TRUE,f,f,NA,NA,NA,1,6,"13,10,11,9,12,5,6,8,15,1,3,4,14,7,2"
14717,commdev-image-keyboard-response,355,745935,learnblock1,797.6000001430511,img/planet7_left.png,7,Community 3,NA,TRUE,f,f,NA,NA,NA,1,6,"13,10,11,9,12,5,6,8,15,1,3,4,14,7,2"
14717,commdev-image-keyboard-response,356,747186,learnblock1,825.2000000476837,img/planet3_right.png,3,Community 3,NA,FALSE,f,j,NA,NA,NA,1,6,"13,10,11,9,12,5,6,8,15,1,3,4,14,7,2"
14717,commdev-image-keyboard-response,357,748437,learnblock1,null,img/planet14_right.png,14,Community 3,NA,FALSE,null,j,NA,NA,NA,1,6,"13,10,11,9,12,5,6,8,15,1,3,4,14,7,2"
14717,commdev-image-keyboard-response,358,749689,learnblock1,988.6000001430511,img/planet2_left.png,2,Community 3,NA,TRUE,f,f,NA,NA,NA,1,6,"13,10,11,9,12,5,6,8,15,1,3,4,14,7,2"
14717,commdev-image-keyboard-response,359,750940,learnblock1,768.5999999046326,img/planet7_left.png,7,Community 3,NA,TRUE,f,f,NA,NA,NA,1,6,"13,10,11,9,12,5,6,8,15,1,3,4,14,7,2"
14717,commdev-image-keyboard-response,360,752192,learnblock1,597.2000000476837,img/planet2_right.png,2,Community 3,NA,FALSE,f,j,NA,NA,NA,1,6,"13,10,11,9,12,5,6,8,15,1,3,4,14,7,2"
14717,commdev-image-keyboard-response,361,753444,learnblock1,584.7999999523163,img/planet7_right.png,7,Community 3,NA,FALSE,f,j,NA,NA,NA,1,6,"13,10,11,9,12,5,6,8,15,1,3,4,14,7,2"
14717,commdev-image-keyboard-response,362,754695,learnblock1,null,img/planet14_right.png,14,Community 3,NA,FALSE,null,j,NA,NA,NA,1,6,"13,10,11,9,12,5,6,8,15,1,3,4,14,7,2"
14717,commdev-image-keyboard-response,363,755947,learnblock1,null,img/planet3_left.png,3,Community 3,NA,FALSE,null,f,NA,NA,NA,1,6,"13,10,11,9,12,5,6,8,15,1,3,4,14,7,2"
14717,commdev-image-keyboard-response,364,757199,learnblock1,654.5,img/planet14_right.png,14,Community 3,NA,FALSE,f,j,NA,NA,NA,1,6,"13,10,11,9,12,5,6,8,15,1,3,4,14,7,2"
14717,commdev-image-keyboard-response,365,758451,learnblock1,null,img/planet4_right.png,4,Community 3,NA,FALSE,null,j,NA,NA,NA,1,6,"13,10,11,9,12,5,6,8,15,1,3,4,14,7,2"
14717,commdev-image-keyboard-response,366,759708,learnblock1,806.9000000953674,img/planet8_right.png,8,Community 2,NA,FALSE,f,j,NA,NA,NA,1,6,"13,10,11,9,12,5,6,8,15,1,3,4,14,7,2"
14717,commdev-image-keyboard-response,367,760959,learnblock1,989.0999999046326,img/planet4_left.png,4,Community 3,NA,TRUE,f,f,NA,NA,NA,1,6,"13,10,11,9,12,5,6,8,15,1,3,4,14,7,2"
14717,commdev-image-keyboard-response,368,762216,learnblock1,753.5999999046326,img/planet2_left.png,2,Community 3,NA,TRUE,f,f,NA,NA,NA,1,6,"13,10,11,9,12,5,6,8,15,1,3,4,14,7,2"
14717,commdev-image-keyboard-response,369,763467,learnblock1,865.2999999523163,img/planet4_left.png,4,Community 3,NA,TRUE,f,f,NA,NA,NA,1,6,"13,10,11,9,12,5,6,8,15,1,3,4,14,7,2"
14717,commdev-image-keyboard-response,370,764720,learnblock1,846.2999999523163,img/planet7_left.png,7,Community 3,NA,TRUE,f,f,NA,NA,NA,1,6,"13,10,11,9,12,5,6,8,15,1,3,4,14,7,2"
14717,commdev-image-keyboard-response,371,765982,learnblock1,null,img/planet3_right.png,3,Community 3,NA,FALSE,null,j,NA,NA,NA,1,6,"13,10,11,9,12,5,6,8,15,1,3,4,14,7,2"
14717,commdev-image-keyboard-response,372,767235,learnblock1,null,img/planet12_right.png,12,Community 1,NA,FALSE,null,j,NA,NA,NA,1,6,"13,10,11,9,12,5,6,8,15,1,3,4,14,7,2"
14717,commdev-image-keyboard-response,373,768487,learnblock1,null,img/planet13_left.png,13,Community 1,NA,FALSE,null,f,NA,NA,NA,1,6,"13,10,11,9,12,5,6,8,15,1,3,4,14,7,2"
14717,commdev-image-keyboard-response,374,769738,learnblock1,362,img/planet9_right.png,9,Community 1,NA,FALSE,f,j,NA,NA,NA,1,6,"13,10,11,9,12,5,6,8,15,1,3,4,14,7,2"
14717,commdev-image-keyboard-response,375,770991,learnblock1,null,img/planet13_right.png,13,Community 1,NA,FALSE,null,j,NA,NA,NA,1,6,"13,10,11,9,12,5,6,8,15,1,3,4,14,7,2"
14717,commdev-image-keyboard-response,376,772243,learnblock1,null,img/planet10_right.png,10,Community 1,NA,FALSE,null,j,NA,NA,NA,1,6,"13,10,11,9,12,5,6,8,15,1,3,4,14,7,2"
14717,commdev-image-keyboard-response,377,773494,learnblock1,1022.0999999046326,img/planet12_left.png,12,Community 1,NA,TRUE,f,f,NA,NA,NA,1,6,"13,10,11,9,12,5,6,8,15,1,3,4,14,7,2"
14717,commdev-image-keyboard-response,378,774746,learnblock1,867.4000000953674,img/planet3_right.png,3,Community 3,NA,FALSE,f,j,NA,NA,NA,1,6,"13,10,11,9,12,5,6,8,15,1,3,4,14,7,2"
14717,commdev-image-keyboard-response,379,775998,learnblock1,null,img/planet14_right.png,14,Community 3,NA,FALSE,null,j,NA,NA,NA,1,6,"13,10,11,9,12,5,6,8,15,1,3,4,14,7,2"
14717,commdev-image-keyboard-response,380,777259,learnblock1,67.20000004768372,img/planet2_left.png,2,Community 3,NA,TRUE,f,f,NA,NA,NA,1,6,"13,10,11,9,12,5,6,8,15,1,3,4,14,7,2"
14717,commdev-image-keyboard-response,381,778511,learnblock1,null,img/planet14_right.png,14,Community 3,NA,FALSE,null,j,NA,NA,NA,1,6,"13,10,11,9,12,5,6,8,15,1,3,4,14,7,2"
14717,commdev-image-keyboard-response,382,779763,learnblock1,538,img/planet7_left.png,7,Community 3,NA,TRUE,f,f,NA,NA,NA,1,6,"13,10,11,9,12,5,6,8,15,1,3,4,14,7,2"
14717,commdev-image-keyboard-response,383,781027,learnblock1,142,img/planet14_left.png,14,Community 3,NA,TRUE,f,f,NA,NA,NA,1,6,"13,10,11,9,12,5,6,8,15,1,3,4,14,7,2"
14717,commdev-image-keyboard-response,384,782278,learnblock1,23.100000143051147,img/planet2_left.png,2,Community 3,NA,TRUE,f,f,NA,NA,NA,1,6,"13,10,11,9,12,5,6,8,15,1,3,4,14,7,2"
14717,commdev-image-keyboard-response,385,783529,learnblock1,755.3999998569489,img/planet3_left.png,3,Community 3,NA,TRUE,f,f,NA,NA,NA,1,6,"13,10,11,9,12,5,6,8,15,1,3,4,14,7,2"
14717,commdev-image-keyboard-response,386,784781,learnblock1,null,img/planet7_left.png,7,Community 3,NA,FALSE,null,f,NA,NA,NA,1,6,"13,10,11,9,12,5,6,8,15,1,3,4,14,7,2"
14717,commdev-image-keyboard-response,387,786033,learnblock1,11.5,img/planet2_left.png,2,Community 3,NA,TRUE,f,f,NA,NA,NA,1,6,"13,10,11,9,12,5,6,8,15,1,3,4,14,7,2"
14717,commdev-image-keyboard-response,388,787285,learnblock1,447.40000009536743,img/planet14_left.png,14,Community 3,NA,TRUE,f,f,NA,NA,NA,1,6,"13,10,11,9,12,5,6,8,15,1,3,4,14,7,2"
14717,commdev-image-keyboard-response,389,788537,learnblock1,259.2000000476837,img/planet7_right.png,7,Community 3,NA,FALSE,f,j,NA,NA,NA,1,6,"13,10,11,9,12,5,6,8,15,1,3,4,14,7,2"
14717,commdev-image-keyboard-response,390,789789,learnblock1,null,img/planet3_right.png,3,Community 3,NA,FALSE,null,j,NA,NA,NA,1,6,"13,10,11,9,12,5,6,8,15,1,3,4,14,7,2"
14717,commdev-image-keyboard-response,391,791042,learnblock1,771.0999999046326,img/planet12_left.png,12,Community 1,NA,TRUE,f,f,NA,NA,NA,1,6,"13,10,11,9,12,5,6,8,15,1,3,4,14,7,2"
14717,commdev-image-keyboard-response,392,792293,learnblock1,798.4000000953674,img/planet10_left.png,10,Community 1,NA,TRUE,f,f,NA,NA,NA,1,6,"13,10,11,9,12,5,6,8,15,1,3,4,14,7,2"
14717,commdev-image-keyboard-response,393,793544,learnblock1,948.2000000476837,img/planet12_left.png,12,Community 1,NA,TRUE,f,f,NA,NA,NA,1,6,"13,10,11,9,12,5,6,8,15,1,3,4,14,7,2"
14717,commdev-image-keyboard-response,394,794796,learnblock1,832.9000000953674,img/planet10_right.png,10,Community 1,NA,FALSE,f,j,NA,NA,NA,1,6,"13,10,11,9,12,5,6,8,15,1,3,4,14,7,2"
14717,commdev-image-keyboard-response,395,796047,learnblock1,null,img/planet11_right.png,11,Community 1,NA,FALSE,null,j,NA,NA,NA,1,6,"13,10,11,9,12,5,6,8,15,1,3,4,14,7,2"
14717,commdev-image-keyboard-response,396,797300,learnblock1,null,img/planet9_right.png,9,Community 1,NA,FALSE,null,j,NA,NA,NA,1,6,"13,10,11,9,12,5,6,8,15,1,3,4,14,7,2"
14717,commdev-image-keyboard-response,397,798551,learnblock1,854.2999999523163,img/planet13_left.png,13,Community 1,NA,TRUE,f,f,NA,NA,NA,1,6,"13,10,11,9,12,5,6,8,15,1,3,4,14,7,2"
14717,commdev-image-keyboard-response,398,799803,learnblock1,null,img/planet11_left.png,11,Community 1,NA,FALSE,null,f,NA,NA,NA,1,6,"13,10,11,9,12,5,6,8,15,1,3,4,14,7,2"
14717,commdev-image-keyboard-response,399,801055,learnblock1,85.39999985694885,img/planet9_right.png,9,Community 1,NA,FALSE,f,j,NA,NA,NA,1,6,"13,10,11,9,12,5,6,8,15,1,3,4,14,7,2"
14717,commdev-image-keyboard-response,400,802306,learnblock1,41.90000009536743,img/planet5_right.png,5,Community 2,NA,FALSE,f,j,NA,NA,NA,1,6,"13,10,11,9,12,5,6,8,15,1,3,4,14,7,2"
14717,commdev-image-keyboard-response,401,803558,learnblock1,null,img/planet6_right.png,6,Community 2,NA,FALSE,null,j,NA,NA,NA,1,6,"13,10,11,9,12,5,6,8,15,1,3,4,14,7,2"
14717,commdev-image-keyboard-response,402,804809,learnblock1,827,img/planet15_left.png,15,Community 2,NA,TRUE,f,f,NA,NA,NA,1,6,"13,10,11,9,12,5,6,8,15,1,3,4,14,7,2"
14717,commdev-image-keyboard-response,403,806061,learnblock1,null,img/planet6_right.png,6,Community 2,NA,FALSE,null,j,NA,NA,NA,1,6,"13,10,11,9,12,5,6,8,15,1,3,4,14,7,2"
14717,commdev-image-keyboard-response,404,807312,learnblock1,1011.2000000476837,img/planet8_left.png,8,Community 2,NA,TRUE,f,f,NA,NA,NA,1,6,"13,10,11,9,12,5,6,8,15,1,3,4,14,7,2"
14717,commdev-image-keyboard-response,405,808564,learnblock1,null,img/planet15_right.png,15,Community 2,NA,FALSE,null,j,NA,NA,NA,1,6,"13,10,11,9,12,5,6,8,15,1,3,4,14,7,2"
14717,commdev-image-keyboard-response,406,809816,learnblock1,405.39999985694885,img/planet8_right.png,8,Community 2,NA,FALSE,f,j,NA,NA,NA,1,6,"13,10,11,9,12,5,6,8,15,1,3,4,14,7,2"
14717,commdev-image-keyboard-response,407,811068,learnblock1,null,img/planet4_right.png,4,Community 3,NA,FALSE,null,j,NA,NA,NA,1,6,"13,10,11,9,12,5,6,8,15,1,3,4,14,7,2"
14717,commdev-image-keyboard-response,408,812319,learnblock1,null,img/planet2_right.png,2,Community 3,NA,FALSE,null,j,NA,NA,NA,1,6,"13,10,11,9,12,5,6,8,15,1,3,4,14,7,2"
14717,commdev-image-keyboard-response,409,813571,learnblock1,585.2000000476837,img/planet7_left.png,7,Community 3,NA,TRUE,f,f,NA,NA,NA,1,6,"13,10,11,9,12,5,6,8,15,1,3,4,14,7,2"
14717,commdev-image-keyboard-response,410,814824,learnblock1,null,img/planet3_right.png,3,Community 3,NA,FALSE,null,j,NA,NA,NA,1,6,"13,10,11,9,12,5,6,8,15,1,3,4,14,7,2"
14717,commdev-image-keyboard-response,411,816075,learnblock1,1081.2000000476837,img/planet12_right.png,12,Community 1,NA,FALSE,f,j,NA,NA,NA,1,6,"13,10,11,9,12,5,6,8,15,1,3,4,14,7,2"
14717,commdev-image-keyboard-response,412,817327,learnblock1,null,img/planet10_right.png,10,Community 1,NA,FALSE,null,j,NA,NA,NA,1,6,"13,10,11,9,12,5,6,8,15,1,3,4,14,7,2"
14717,commdev-image-keyboard-response,413,818578,learnblock1,1243.2000000476837,img/planet9_left.png,9,Community 1,NA,TRUE,f,f,NA,NA,NA,1,6,"13,10,11,9,12,5,6,8,15,1,3,4,14,7,2"
14717,commdev-image-keyboard-response,414,819830,learnblock1,1246.5999999046326,img/planet10_right.png,10,Community 1,NA,FALSE,f,j,NA,NA,NA,1,6,"13,10,11,9,12,5,6,8,15,1,3,4,14,7,2"
14717,commdev-image-keyboard-response,415,821081,learnblock1,null,img/planet13_right.png,13,Community 1,NA,FALSE,null,j,NA,NA,NA,1,6,"13,10,11,9,12,5,6,8,15,1,3,4,14,7,2"
14717,commdev-image-keyboard-response,416,822332,learnblock1,335.2000000476837,img/planet12_left.png,12,Community 1,NA,TRUE,f,f,NA,NA,NA,1,6,"13,10,11,9,12,5,6,8,15,1,3,4,14,7,2"
14717,commdev-image-keyboard-response,417,823584,learnblock1,null,img/planet10_left.png,10,Community 1,NA,FALSE,null,f,NA,NA,NA,1,6,"13,10,11,9,12,5,6,8,15,1,3,4,14,7,2"
14717,commdev-image-keyboard-response,418,824835,learnblock1,720.9000000953674,img/planet12_left.png,12,Community 1,NA,TRUE,f,f,NA,NA,NA,1,6,"13,10,11,9,12,5,6,8,15,1,3,4,14,7,2"
14717,commdev-image-keyboard-response,419,826087,learnblock1,null,img/planet13_right.png,13,Community 1,NA,FALSE,null,j,NA,NA,NA,1,6,"13,10,11,9,12,5,6,8,15,1,3,4,14,7,2"
14717,commdev-image-keyboard-response,420,827339,learnblock1,570.5,img/planet9_right.png,9,Community 1,NA,FALSE,f,j,NA,NA,NA,1,6,"13,10,11,9,12,5,6,8,15,1,3,4,14,7,2"
14717,commdev-image-keyboard-response,421,828590,learnblock1,654.2999999523163,img/planet11_left.png,11,Community 1,NA,TRUE,f,f,NA,NA,NA,1,6,"13,10,11,9,12,5,6,8,15,1,3,4,14,7,2"
14717,commdev-image-keyboard-response,422,829842,learnblock1,null,img/planet10_left.png,10,Community 1,NA,FALSE,null,f,NA,NA,NA,1,6,"13,10,11,9,12,5,6,8,15,1,3,4,14,7,2"
14717,commdev-image-keyboard-response,423,831093,learnblock1,359.5,img/planet13_right.png,13,Community 1,NA,FALSE,f,j,NA,NA,NA,1,6,"13,10,11,9,12,5,6,8,15,1,3,4,14,7,2"
14717,commdev-image-keyboard-response,424,832345,learnblock1,null,img/planet9_right.png,9,Community 1,NA,FALSE,null,j,NA,NA,NA,1,6,"13,10,11,9,12,5,6,8,15,1,3,4,14,7,2"
14717,commdev-image-keyboard-response,425,833597,learnblock1,830.7000000476837,img/planet11_left.png,11,Community 1,NA,TRUE,f,f,NA,NA,NA,1,6,"13,10,11,9,12,5,6,8,15,1,3,4,14,7,2"
14717,commdev-image-keyboard-response,426,834848,learnblock1,null,img/planet13_right.png,13,Community 1,NA,FALSE,null,j,NA,NA,NA,1,6,"13,10,11,9,12,5,6,8,15,1,3,4,14,7,2"
14717,commdev-image-keyboard-response,427,836100,learnblock1,null,img/planet12_right.png,12,Community 1,NA,FALSE,null,j,NA,NA,NA,1,6,"13,10,11,9,12,5,6,8,15,1,3,4,14,7,2"
14717,commdev-image-keyboard-response,428,837352,learnblock1,null,img/planet3_right.png,3,Community 3,NA,FALSE,null,j,NA,NA,NA,1,6,"13,10,11,9,12,5,6,8,15,1,3,4,14,7,2"
14717,commdev-image-keyboard-response,429,838603,learnblock1,975.9000000953674,img/planet7_left.png,7,Community 3,NA,TRUE,f,f,NA,NA,NA,1,6,"13,10,11,9,12,5,6,8,15,1,3,4,14,7,2"
14717,commdev-image-keyboard-response,430,839868,learnblock1,null,img/planet14_left.png,14,Community 3,NA,FALSE,null,f,NA,NA,NA,1,6,"13,10,11,9,12,5,6,8,15,1,3,4,14,7,2"
14717,commdev-image-keyboard-response,431,841119,learnblock1,null,img/planet3_right.png,3,Community 3,NA,FALSE,null,j,NA,NA,NA,1,6,"13,10,11,9,12,5,6,8,15,1,3,4,14,7,2"
14717,commdev-image-keyboard-response,432,842370,learnblock1,289.7000000476837,img/planet7_left.png,7,Community 3,NA,TRUE,f,f,NA,NA,NA,1,6,"13,10,11,9,12,5,6,8,15,1,3,4,14,7,2"
14717,commdev-image-keyboard-response,433,843622,learnblock1,54.60000014305115,img/planet14_left.png,14,Community 3,NA,TRUE,f,f,NA,NA,NA,1,6,"13,10,11,9,12,5,6,8,15,1,3,4,14,7,2"
14717,commdev-image-keyboard-response,434,844874,learnblock1,667.4000000953674,img/planet3_left.png,3,Community 3,NA,TRUE,f,f,NA,NA,NA,1,6,"13,10,11,9,12,5,6,8,15,1,3,4,14,7,2"
14717,commdev-image-keyboard-response,435,846125,learnblock1,null,img/planet7_left.png,7,Community 3,NA,FALSE,null,f,NA,NA,NA,1,6,"13,10,11,9,12,5,6,8,15,1,3,4,14,7,2"
14717,commdev-image-keyboard-response,436,847377,learnblock1,null,img/planet14_left.png,14,Community 3,NA,FALSE,null,f,NA,NA,NA,1,6,"13,10,11,9,12,5,6,8,15,1,3,4,14,7,2"
14717,commdev-image-keyboard-response,437,848629,learnblock1,1151.3999998569489,img/planet7_right.png,7,Community 3,NA,FALSE,f,j,NA,NA,NA,1,6,"13,10,11,9,12,5,6,8,15,1,3,4,14,7,2"
14717,commdev-image-keyboard-response,438,849880,learnblock1,null,img/planet3_right.png,3,Community 3,NA,FALSE,null,j,NA,NA,NA,1,6,"13,10,11,9,12,5,6,8,15,1,3,4,14,7,2"
14717,commdev-image-keyboard-response,439,851146,learnblock1,null,img/planet7_right.png,7,Community 3,NA,FALSE,null,j,NA,NA,NA,1,6,"13,10,11,9,12,5,6,8,15,1,3,4,14,7,2"
14717,commdev-image-keyboard-response,440,852398,learnblock1,null,img/planet2_right.png,2,Community 3,NA,FALSE,null,j,NA,NA,NA,1,6,"13,10,11,9,12,5,6,8,15,1,3,4,14,7,2"
14717,commdev-image-keyboard-response,441,853649,learnblock1,null,img/planet4_left.png,4,Community 3,NA,FALSE,null,f,NA,NA,NA,1,6,"13,10,11,9,12,5,6,8,15,1,3,4,14,7,2"
14717,commdev-image-keyboard-response,442,854901,learnblock1,80.09999990463257,img/planet2_right.png,2,Community 3,NA,FALSE,f,j,NA,NA,NA,1,6,"13,10,11,9,12,5,6,8,15,1,3,4,14,7,2"
14717,commdev-image-keyboard-response,443,856153,learnblock1,null,img/planet4_left.png,4,Community 3,NA,FALSE,null,f,NA,NA,NA,1,6,"13,10,11,9,12,5,6,8,15,1,3,4,14,7,2"
14717,commdev-image-keyboard-response,444,857404,learnblock1,null,img/planet7_left.png,7,Community 3,NA,FALSE,null,f,NA,NA,NA,1,6,"13,10,11,9,12,5,6,8,15,1,3,4,14,7,2"
14717,commdev-image-keyboard-response,445,858656,learnblock1,21.199999809265137,img/planet14_left.png,14,Community 3,NA,TRUE,f,f,NA,NA,NA,1,6,"13,10,11,9,12,5,6,8,15,1,3,4,14,7,2"
14717,commdev-image-keyboard-response,446,859907,learnblock1,null,img/planet4_right.png,4,Community 3,NA,FALSE,null,j,NA,NA,NA,1,6,"13,10,11,9,12,5,6,8,15,1,3,4,14,7,2"
14717,commdev-image-keyboard-response,447,861159,learnblock1,null,img/planet2_right.png,2,Community 3,NA,FALSE,null,j,NA,NA,NA,1,6,"13,10,11,9,12,5,6,8,15,1,3,4,14,7,2"
14717,commdev-image-keyboard-response,448,862411,learnblock1,null,img/planet3_right.png,3,Community 3,NA,FALSE,null,j,NA,NA,NA,1,6,"13,10,11,9,12,5,6,8,15,1,3,4,14,7,2"
14717,commdev-image-keyboard-response,449,863662,learnblock1,null,img/planet14_right.png,14,Community 3,NA,FALSE,null,j,NA,NA,NA,1,6,"13,10,11,9,12,5,6,8,15,1,3,4,14,7,2"
14717,commdev-image-keyboard-response,450,864915,learnblock1,730.4000000953674,img/planet2_left.png,2,Community 3,NA,TRUE,f,f,NA,NA,NA,1,6,"13,10,11,9,12,5,6,8,15,1,3,4,14,7,2"
14717,commdev-image-keyboard-response,451,866166,learnblock1,null,img/planet3_right.png,3,Community 3,NA,FALSE,null,j,NA,NA,NA,1,6,"13,10,11,9,12,5,6,8,15,1,3,4,14,7,2"
14717,commdev-image-keyboard-response,452,867418,learnblock1,null,img/planet14_left.png,14,Community 3,NA,FALSE,null,f,NA,NA,NA,1,6,"13,10,11,9,12,5,6,8,15,1,3,4,14,7,2"
14717,commdev-image-keyboard-response,453,868671,learnblock1,952.2999999523163,img/planet4_left.png,4,Community 3,NA,TRUE,f,f,NA,NA,NA,1,6,"13,10,11,9,12,5,6,8,15,1,3,4,14,7,2"
14717,commdev-image-keyboard-response,454,869922,learnblock1,null,img/planet14_right.png,14,Community 3,NA,FALSE,null,j,NA,NA,NA,1,6,"13,10,11,9,12,5,6,8,15,1,3,4,14,7,2"
14717,commdev-image-keyboard-response,455,871173,learnblock1,838.8999998569489,img/planet7_left.png,7,Community 3,NA,TRUE,f,f,NA,NA,NA,1,6,"13,10,11,9,12,5,6,8,15,1,3,4,14,7,2"
14717,commdev-image-keyboard-response,456,872425,learnblock1,236.59999990463257,img/planet4_right.png,4,Community 3,NA,FALSE,f,j,NA,NA,NA,1,6,"13,10,11,9,12,5,6,8,15,1,3,4,14,7,2"
14717,commdev-image-keyboard-response,457,873676,learnblock1,936,img/planet8_left.png,8,Community 2,NA,TRUE,f,f,NA,NA,NA,1,6,"13,10,11,9,12,5,6,8,15,1,3,4,14,7,2"
14717,commdev-image-keyboard-response,458,874927,learnblock1,null,img/planet4_right.png,4,Community 3,NA,FALSE,null,j,NA,NA,NA,1,6,"13,10,11,9,12,5,6,8,15,1,3,4,14,7,2"
14717,commdev-image-keyboard-response,459,876178,learnblock1,874.0999999046326,img/planet7_left.png,7,Community 3,NA,TRUE,f,f,NA,NA,NA,1,6,"13,10,11,9,12,5,6,8,15,1,3,4,14,7,2"
14717,commdev-image-keyboard-response,460,877430,learnblock1,null,img/planet2_right.png,2,Community 3,NA,FALSE,null,j,NA,NA,NA,1,6,"13,10,11,9,12,5,6,8,15,1,3,4,14,7,2"
14717,commdev-image-keyboard-response,461,878682,learnblock1,826.3999998569489,img/planet4_left.png,4,Community 3,NA,TRUE,f,f,NA,NA,NA,1,6,"13,10,11,9,12,5,6,8,15,1,3,4,14,7,2"
14717,commdev-image-keyboard-response,462,879935,learnblock1,null,img/planet2_left.png,2,Community 3,NA,FALSE,null,f,NA,NA,NA,1,6,"13,10,11,9,12,5,6,8,15,1,3,4,14,7,2"
14717,commdev-image-keyboard-response,463,881186,learnblock1,null,img/planet14_right.png,14,Community 3,NA,FALSE,null,j,NA,NA,NA,1,6,"13,10,11,9,12,5,6,8,15,1,3,4,14,7,2"
14717,commdev-image-keyboard-response,464,882438,learnblock1,526.4000000953674,img/planet7_right.png,7,Community 3,NA,FALSE,f,j,NA,NA,NA,1,6,"13,10,11,9,12,5,6,8,15,1,3,4,14,7,2"
14717,commdev-image-keyboard-response,465,883689,learnblock1,null,img/planet4_right.png,4,Community 3,NA,FALSE,null,j,NA,NA,NA,1,6,"13,10,11,9,12,5,6,8,15,1,3,4,14,7,2"
14717,commdev-image-keyboard-response,466,884940,learnblock1,744.3999998569489,img/planet8_left.png,8,Community 2,NA,TRUE,f,f,NA,NA,NA,1,6,"13,10,11,9,12,5,6,8,15,1,3,4,14,7,2"
14717,commdev-image-keyboard-response,467,886192,learnblock1,null,img/planet4_right.png,4,Community 3,NA,FALSE,null,j,NA,NA,NA,1,6,"13,10,11,9,12,5,6,8,15,1,3,4,14,7,2"
14717,commdev-image-keyboard-response,468,887443,learnblock1,593.4000000953674,img/planet2_left.png,2,Community 3,NA,TRUE,f,f,NA,NA,NA,1,6,"13,10,11,9,12,5,6,8,15,1,3,4,14,7,2"
14717,commdev-image-keyboard-response,469,888694,learnblock1,846.1999998092651,img/planet14_left.png,14,Community 3,NA,TRUE,f,f,NA,NA,NA,1,6,"13,10,11,9,12,5,6,8,15,1,3,4,14,7,2"
14717,commdev-image-keyboard-response,470,889947,learnblock1,null,img/planet4_right.png,4,Community 3,NA,FALSE,null,j,NA,NA,NA,1,6,"13,10,11,9,12,5,6,8,15,1,3,4,14,7,2"
14717,commdev-image-keyboard-response,471,891198,learnblock1,989.5,img/planet8_right.png,8,Community 2,NA,FALSE,f,j,NA,NA,NA,1,6,"13,10,11,9,12,5,6,8,15,1,3,4,14,7,2"
14717,commdev-image-keyboard-response,472,892450,learnblock1,null,img/planet4_left.png,4,Community 3,NA,FALSE,null,f,NA,NA,NA,1,6,"13,10,11,9,12,5,6,8,15,1,3,4,14,7,2"
14717,commdev-image-keyboard-response,473,893703,learnblock1,942.4000000953674,img/planet7_left.png,7,Community 3,NA,TRUE,f,f,NA,NA,NA,1,6,"13,10,11,9,12,5,6,8,15,1,3,4,14,7,2"
14717,commdev-image-keyboard-response,474,894954,learnblock1,905.2000000476837,img/planet4_left.png,4,Community 3,NA,TRUE,f,f,NA,NA,NA,1,6,"13,10,11,9,12,5,6,8,15,1,3,4,14,7,2"
14717,commdev-image-keyboard-response,475,896205,learnblock1,863,img/planet14_left.png,14,Community 3,NA,TRUE,f,f,NA,NA,NA,1,6,"13,10,11,9,12,5,6,8,15,1,3,4,14,7,2"
14717,commdev-image-keyboard-response,476,897457,learnblock1,1035.7000000476837,img/planet7_right.png,7,Community 3,NA,FALSE,f,j,NA,NA,NA,1,6,"13,10,11,9,12,5,6,8,15,1,3,4,14,7,2"
14717,commdev-image-keyboard-response,477,898720,learnblock1,984.7999999523163,img/planet3_left.png,3,Community 3,NA,TRUE,f,f,NA,NA,NA,1,6,"13,10,11,9,12,5,6,8,15,1,3,4,14,7,2"
14717,commdev-image-keyboard-response,478,899972,learnblock1,null,img/planet14_right.png,14,Community 3,NA,FALSE,null,j,NA,NA,NA,1,6,"13,10,11,9,12,5,6,8,15,1,3,4,14,7,2"
14717,commdev-image-keyboard-response,479,901223,learnblock1,null,img/planet3_right.png,3,Community 3,NA,FALSE,null,j,NA,NA,NA,1,6,"13,10,11,9,12,5,6,8,15,1,3,4,14,7,2"
14717,commdev-image-keyboard-response,480,902474,learnblock1,null,img/planet14_left.png,14,Community 3,NA,FALSE,null,f,NA,NA,NA,1,6,"13,10,11,9,12,5,6,8,15,1,3,4,14,7,2"
14717,commdev-image-keyboard-response,481,903726,learnblock1,725.5999999046326,img/planet4_right.png,4,Community 3,NA,FALSE,f,j,NA,NA,NA,1,6,"13,10,11,9,12,5,6,8,15,1,3,4,14,7,2"
14717,commdev-image-keyboard-response,482,904978,learnblock1,null,img/planet8_right.png,8,Community 2,NA,FALSE,null,j,NA,NA,NA,1,6,"13,10,11,9,12,5,6,8,15,1,3,4,14,7,2"
14717,commdev-image-keyboard-response,483,906229,learnblock1,838.0999999046326,img/planet4_left.png,4,Community 3,NA,TRUE,f,f,NA,NA,NA,1,6,"13,10,11,9,12,5,6,8,15,1,3,4,14,7,2"
14717,commdev-image-keyboard-response,484,907488,learnblock1,884.2999999523163,img/planet8_left.png,8,Community 2,NA,TRUE,f,f,NA,NA,NA,1,6,"13,10,11,9,12,5,6,8,15,1,3,4,14,7,2"
14717,commdev-image-keyboard-response,485,908739,learnblock1,null,img/planet15_left.png,15,Community 2,NA,FALSE,null,f,NA,NA,NA,1,6,"13,10,11,9,12,5,6,8,15,1,3,4,14,7,2"
14717,commdev-image-keyboard-response,486,909991,learnblock1,1221.2999999523163,img/planet5_right.png,5,Community 2,NA,FALSE,f,j,NA,NA,NA,1,6,"13,10,11,9,12,5,6,8,15,1,3,4,14,7,2"
14717,commdev-image-keyboard-response,487,911242,learnblock1,null,img/planet15_right.png,15,Community 2,NA,FALSE,null,j,NA,NA,NA,1,6,"13,10,11,9,12,5,6,8,15,1,3,4,14,7,2"
14717,commdev-image-keyboard-response,488,912493,learnblock1,1015.5999999046326,img/planet6_left.png,6,Community 2,NA,TRUE,f,f,NA,NA,NA,1,6,"13,10,11,9,12,5,6,8,15,1,3,4,14,7,2"
14717,commdev-image-keyboard-response,489,913744,learnblock1,996.5999999046326,img/planet5_left.png,5,Community 2,NA,TRUE,f,f,NA,NA,NA,1,6,"13,10,11,9,12,5,6,8,15,1,3,4,14,7,2"
14717,commdev-image-keyboard-response,490,914996,learnblock1,1145.1000001430511,img/planet9_left.png,9,Community 1,NA,TRUE,f,f,NA,NA,NA,1,6,"13,10,11,9,12,5,6,8,15,1,3,4,14,7,2"
14717,commdev-image-keyboard-response,491,916247,learnblock1,null,img/planet13_right.png,13,Community 1,NA,FALSE,null,j,NA,NA,NA,1,6,"13,10,11,9,12,5,6,8,15,1,3,4,14,7,2"
14717,commdev-image-keyboard-response,492,917498,learnblock1,null,img/planet10_left.png,10,Community 1,NA,FALSE,null,f,NA,NA,NA,1,6,"13,10,11,9,12,5,6,8,15,1,3,4,14,7,2"
14717,commdev-image-keyboard-response,493,918750,learnblock1,null,img/planet11_left.png,11,Community 1,NA,FALSE,null,f,NA,NA,NA,1,6,"13,10,11,9,12,5,6,8,15,1,3,4,14,7,2"
14717,commdev-image-keyboard-response,494,920002,learnblock1,803.4000000953674,img/planet10_left.png,10,Community 1,NA,TRUE,f,f,NA,NA,NA,1,6,"13,10,11,9,12,5,6,8,15,1,3,4,14,7,2"
14717,commdev-image-keyboard-response,495,921253,learnblock1,894.5999999046326,img/planet12_left.png,12,Community 1,NA,TRUE,f,f,NA,NA,NA,1,6,"13,10,11,9,12,5,6,8,15,1,3,4,14,7,2"
14717,commdev-image-keyboard-response,496,922514,learnblock1,683.9000000953674,img/planet10_left.png,10,Community 1,NA,TRUE,f,f,NA,NA,NA,1,6,"13,10,11,9,12,5,6,8,15,1,3,4,14,7,2"
14717,commdev-image-keyboard-response,497,923766,learnblock1,null,img/planet11_right.png,11,Community 1,NA,FALSE,null,j,NA,NA,NA,1,6,"13,10,11,9,12,5,6,8,15,1,3,4,14,7,2"
14717,commdev-image-keyboard-response,498,925019,learnblock1,651.2000000476837,img/planet9_left.png,9,Community 1,NA,TRUE,f,f,NA,NA,NA,1,6,"13,10,11,9,12,5,6,8,15,1,3,4,14,7,2"
14717,commdev-image-keyboard-response,499,926270,learnblock1,534.5999999046326,img/planet13_left.png,13,Community 1,NA,TRUE,f,f,NA,NA,NA,1,6,"13,10,11,9,12,5,6,8,15,1,3,4,14,7,2"
14717,commdev-image-keyboard-response,500,927522,learnblock1,538.2000000476837,img/planet11_right.png,11,Community 1,NA,FALSE,f,j,NA,NA,NA,1,6,"13,10,11,9,12,5,6,8,15,1,3,4,14,7,2"
14717,commdev-image-keyboard-response,501,928774,learnblock1,null,img/planet13_right.png,13,Community 1,NA,FALSE,null,j,NA,NA,NA,1,6,"13,10,11,9,12,5,6,8,15,1,3,4,14,7,2"
14717,commdev-image-keyboard-response,502,930026,learnblock1,null,img/planet9_right.png,9,Community 1,NA,FALSE,null,j,NA,NA,NA,1,6,"13,10,11,9,12,5,6,8,15,1,3,4,14,7,2"
14717,commdev-image-keyboard-response,503,931278,learnblock1,null,img/planet5_right.png,5,Community 2,NA,FALSE,null,j,NA,NA,NA,1,6,"13,10,11,9,12,5,6,8,15,1,3,4,14,7,2"
14717,commdev-image-keyboard-response,504,932529,learnblock1,796.0999999046326,img/planet6_left.png,6,Community 2,NA,TRUE,f,f,NA,NA,NA,1,6,"13,10,11,9,12,5,6,8,15,1,3,4,14,7,2"
14717,commdev-image-keyboard-response,505,933781,learnblock1,null,img/planet1_right.png,1,Community 2,NA,FALSE,null,j,NA,NA,NA,1,6,"13,10,11,9,12,5,6,8,15,1,3,4,14,7,2"
14717,commdev-image-keyboard-response,506,935033,learnblock1,null,img/planet6_right.png,6,Community 2,NA,FALSE,null,j,NA,NA,NA,1,6,"13,10,11,9,12,5,6,8,15,1,3,4,14,7,2"
14717,commdev-image-keyboard-response,507,936285,learnblock1,848.3999998569489,img/planet15_left.png,15,Community 2,NA,TRUE,f,f,NA,NA,NA,1,6,"13,10,11,9,12,5,6,8,15,1,3,4,14,7,2"
14717,commdev-image-keyboard-response,508,937537,learnblock1,null,img/planet6_right.png,6,Community 2,NA,FALSE,null,j,NA,NA,NA,1,6,"13,10,11,9,12,5,6,8,15,1,3,4,14,7,2"
14717,commdev-image-keyboard-response,509,938790,learnblock1,952.5999999046326,img/planet8_right.png,8,Community 2,NA,FALSE,f,j,NA,NA,NA,1,6,"13,10,11,9,12,5,6,8,15,1,3,4,14,7,2"
14717,commdev-image-keyboard-response,510,940041,learnblock1,null,img/planet1_right.png,1,Community 2,NA,FALSE,null,j,NA,NA,NA,1,6,"13,10,11,9,12,5,6,8,15,1,3,4,14,7,2"
14717,commdev-image-keyboard-response,511,941292,learnblock1,959.5999999046326,img/planet5_left.png,5,Community 2,NA,TRUE,f,f,NA,NA,NA,1,6,"13,10,11,9,12,5,6,8,15,1,3,4,14,7,2"
14717,commdev-image-keyboard-response,512,942544,learnblock1,null,img/planet9_right.png,9,Community 1,NA,FALSE,null,j,NA,NA,NA,1,6,"13,10,11,9,12,5,6,8,15,1,3,4,14,7,2"
14717,commdev-image-keyboard-response,513,943795,learnblock1,null,img/planet10_left.png,10,Community 1,NA,FALSE,null,f,NA,NA,NA,1,6,"13,10,11,9,12,5,6,8,15,1,3,4,14,7,2"
14717,commdev-image-keyboard-response,514,945047,learnblock1,null,img/planet12_left.png,12,Community 1,NA,FALSE,null,f,NA,NA,NA,1,6,"13,10,11,9,12,5,6,8,15,1,3,4,14,7,2"
14717,commdev-image-keyboard-response,515,946299,learnblock1,130.5,img/planet3_left.png,3,Community 3,NA,TRUE,f,f,NA,NA,NA,1,6,"13,10,11,9,12,5,6,8,15,1,3,4,14,7,2"
14717,commdev-image-keyboard-response,516,947551,learnblock1,null,img/planet14_right.png,14,Community 3,NA,FALSE,null,j,NA,NA,NA,1,6,"13,10,11,9,12,5,6,8,15,1,3,4,14,7,2"
14717,commdev-image-keyboard-response,517,948802,learnblock1,386.5,img/planet2_left.png,2,Community 3,NA,TRUE,f,f,NA,NA,NA,1,6,"13,10,11,9,12,5,6,8,15,1,3,4,14,7,2"
14717,commdev-image-keyboard-response,518,950054,learnblock1,null,img/planet14_right.png,14,Community 3,NA,FALSE,null,j,NA,NA,NA,1,6,"13,10,11,9,12,5,6,8,15,1,3,4,14,7,2"
14717,commdev-image-keyboard-response,519,951305,learnblock1,538.7000000476837,img/planet7_left.png,7,Community 3,NA,TRUE,f,f,NA,NA,NA,1,6,"13,10,11,9,12,5,6,8,15,1,3,4,14,7,2"
14717,commdev-image-keyboard-response,520,952556,learnblock1,null,img/planet14_right.png,14,Community 3,NA,FALSE,null,j,NA,NA,NA,1,6,"13,10,11,9,12,5,6,8,15,1,3,4,14,7,2"
14717,commdev-image-keyboard-response,524,1141125,learnblock2,918.7999999523163,img/planet8_right.png,8,Community 2,NA,FALSE,f,j,NA,NA,NA,1,6,"13,10,11,9,12,5,6,8,15,1,3,4,14,7,2"
14717,commdev-image-keyboard-response,525,1142377,learnblock2,null,img/planet6_right.png,6,Community 2,NA,FALSE,null,j,NA,NA,NA,1,6,"13,10,11,9,12,5,6,8,15,1,3,4,14,7,2"
14717,commdev-image-keyboard-response,526,1143628,learnblock2,null,img/planet8_right.png,8,Community 2,NA,FALSE,null,j,NA,NA,NA,1,6,"13,10,11,9,12,5,6,8,15,1,3,4,14,7,2"
14717,commdev-image-keyboard-response,527,1144880,learnblock2,null,img/planet1_right.png,1,Community 2,NA,FALSE,null,j,NA,NA,NA,1,6,"13,10,11,9,12,5,6,8,15,1,3,4,14,7,2"
14717,commdev-image-keyboard-response,528,1146131,learnblock2,648.1000001430511,img/planet6_left.png,6,Community 2,NA,TRUE,f,f,NA,NA,NA,1,6,"13,10,11,9,12,5,6,8,15,1,3,4,14,7,2"
14717,commdev-image-keyboard-response,529,1147387,learnblock2,981.0999999046326,img/planet8_left.png,8,Community 2,NA,TRUE,f,f,NA,NA,NA,1,6,"13,10,11,9,12,5,6,8,15,1,3,4,14,7,2"
14717,commdev-image-keyboard-response,530,1148640,learnblock2,null,img/planet4_right.png,4,Community 3,NA,FALSE,null,j,NA,NA,NA,1,6,"13,10,11,9,12,5,6,8,15,1,3,4,14,7,2"
14717,commdev-image-keyboard-response,531,1149891,learnblock2,680.5999999046326,img/planet8_left.png,8,Community 2,NA,TRUE,f,f,NA,NA,NA,1,6,"13,10,11,9,12,5,6,8,15,1,3,4,14,7,2"
14717,commdev-image-keyboard-response,532,1151143,learnblock2,null,img/planet1_right.png,1,Community 2,NA,FALSE,null,j,NA,NA,NA,1,6,"13,10,11,9,12,5,6,8,15,1,3,4,14,7,2"
14717,commdev-image-keyboard-response,533,1152393,learnblock2,null,img/planet6_left.png,6,Community 2,NA,FALSE,null,f,NA,NA,NA,1,6,"13,10,11,9,12,5,6,8,15,1,3,4,14,7,2"
14717,commdev-image-keyboard-response,534,1153645,learnblock2,750.7000000476837,img/planet1_left.png,1,Community 2,NA,TRUE,f,f,NA,NA,NA,1,6,"13,10,11,9,12,5,6,8,15,1,3,4,14,7,2"
14717,commdev-image-keyboard-response,535,1154896,learnblock2,755.4000000953674,img/planet15_left.png,15,Community 2,NA,TRUE,f,f,NA,NA,NA,1,6,"13,10,11,9,12,5,6,8,15,1,3,4,14,7,2"
14717,commdev-image-keyboard-response,536,1156148,learnblock2,783.7000000476837,img/planet1_left.png,1,Community 2,NA,TRUE,f,f,NA,NA,NA,1,6,"13,10,11,9,12,5,6,8,15,1,3,4,14,7,2"
14717,commdev-image-keyboard-response,537,1157400,learnblock2,null,img/planet15_right.png,15,Community 2,NA,FALSE,null,j,NA,NA,NA,1,6,"13,10,11,9,12,5,6,8,15,1,3,4,14,7,2"
14717,commdev-image-keyboard-response,538,1158652,learnblock2,760.5,img/planet8_left.png,8,Community 2,NA,TRUE,f,f,NA,NA,NA,1,6,"13,10,11,9,12,5,6,8,15,1,3,4,14,7,2"
14717,commdev-image-keyboard-response,539,1159904,learnblock2,685.1000001430511,img/planet1_left.png,1,Community 2,NA,TRUE,f,f,NA,NA,NA,1,6,"13,10,11,9,12,5,6,8,15,1,3,4,14,7,2"
14717,commdev-image-keyboard-response,540,1161156,learnblock2,null,img/planet6_right.png,6,Community 2,NA,FALSE,null,j,NA,NA,NA,1,6,"13,10,11,9,12,5,6,8,15,1,3,4,14,7,2"
14717,commdev-image-keyboard-response,541,1162408,learnblock2,null,img/planet1_right.png,1,Community 2,NA,FALSE,null,j,NA,NA,NA,1,6,"13,10,11,9,12,5,6,8,15,1,3,4,14,7,2"
14717,commdev-image-keyboard-response,542,1163660,learnblock2,null,img/planet5_right.png,5,Community 2,NA,FALSE,null,j,NA,NA,NA,1,6,"13,10,11,9,12,5,6,8,15,1,3,4,14,7,2"
14717,commdev-image-keyboard-response,543,1164913,learnblock2,755.5,img/planet15_left.png,15,Community 2,NA,TRUE,f,f,NA,NA,NA,1,6,"13,10,11,9,12,5,6,8,15,1,3,4,14,7,2"
14717,commdev-image-keyboard-response,544,1166165,learnblock2,799.6000001430511,img/planet1_left.png,1,Community 2,NA,TRUE,f,f,NA,NA,NA,1,6,"13,10,11,9,12,5,6,8,15,1,3,4,14,7,2"
14717,commdev-image-keyboard-response,545,1167416,learnblock2,675.7999999523163,img/planet6_left.png,6,Community 2,NA,TRUE,f,f,NA,NA,NA,1,6,"13,10,11,9,12,5,6,8,15,1,3,4,14,7,2"
14717,commdev-image-keyboard-response,546,1168669,learnblock2,679.9000000953674,img/planet5_left.png,5,Community 2,NA,TRUE,f,f,NA,NA,NA,1,6,"13,10,11,9,12,5,6,8,15,1,3,4,14,7,2"
14717,commdev-image-keyboard-response,547,1169921,learnblock2,null,img/planet9_right.png,9,Community 1,NA,FALSE,null,j,NA,NA,NA,1,6,"13,10,11,9,12,5,6,8,15,1,3,4,14,7,2"
14717,commdev-image-keyboard-response,548,1171172,learnblock2,760.5999999046326,img/planet5_left.png,5,Community 2,NA,TRUE,f,f,NA,NA,NA,1,6,"13,10,11,9,12,5,6,8,15,1,3,4,14,7,2"
14717,commdev-image-keyboard-response,549,1172424,learnblock2,748.9000000953674,img/planet6_left.png,6,Community 2,NA,TRUE,f,f,NA,NA,NA,1,6,"13,10,11,9,12,5,6,8,15,1,3,4,14,7,2"
14717,commdev-image-keyboard-response,550,1173675,learnblock2,735.2999999523163,img/planet1_left.png,1,Community 2,NA,TRUE,f,f,NA,NA,NA,1,6,"13,10,11,9,12,5,6,8,15,1,3,4,14,7,2"
14717,commdev-image-keyboard-response,551,1174927,learnblock2,null,img/planet5_right.png,5,Community 2,NA,FALSE,null,j,NA,NA,NA,1,6,"13,10,11,9,12,5,6,8,15,1,3,4,14,7,2"
14717,commdev-image-keyboard-response,552,1176179,learnblock2,null,img/planet1_right.png,1,Community 2,NA,FALSE,null,j,NA,NA,NA,1,6,"13,10,11,9,12,5,6,8,15,1,3,4,14,7,2"
14717,commdev-image-keyboard-response,553,1177430,learnblock2,null,img/planet5_right.png,5,Community 2,NA,FALSE,null,j,NA,NA,NA,1,6,"13,10,11,9,12,5,6,8,15,1,3,4,14,7,2"
14717,commdev-image-keyboard-response,554,1178682,learnblock2,null,img/planet6_right.png,6,Community 2,NA,FALSE,null,j,NA,NA,NA,1,6,"13,10,11,9,12,5,6,8,15,1,3,4,14,7,2"
14717,commdev-image-keyboard-response,555,1179934,learnblock2,750.0999999046326,img/planet15_left.png,15,Community 2,NA,TRUE,f,f,NA,NA,NA,1,6,"13,10,11,9,12,5,6,8,15,1,3,4,14,7,2"
14717,commdev-image-keyboard-response,556,1181186,learnblock2,779.2999999523163,img/planet8_left.png,8,Community 2,NA,TRUE,f,f,NA,NA,NA,1,6,"13,10,11,9,12,5,6,8,15,1,3,4,14,7,2"
14717,commdev-image-keyboard-response,557,1182438,learnblock2,789.7999999523163,img/planet6_left.png,6,Community 2,NA,TRUE,f,f,NA,NA,NA,1,6,"13,10,11,9,12,5,6,8,15,1,3,4,14,7,2"
14717,commdev-image-keyboard-response,558,1183690,learnblock2,null,img/planet5_right.png,5,Community 2,NA,FALSE,null,j,NA,NA,NA,1,6,"13,10,11,9,12,5,6,8,15,1,3,4,14,7,2"
14717,commdev-image-keyboard-response,559,1184956,learnblock2,null,img/planet9_right.png,9,Community 1,NA,FALSE,null,j,NA,NA,NA,1,6,"13,10,11,9,12,5,6,8,15,1,3,4,14,7,2"
14717,commdev-image-keyboard-response,560,1186222,learnblock2,700,img/planet11_left.png,11,Community 1,NA,TRUE,f,f,NA,NA,NA,1,6,"13,10,11,9,12,5,6,8,15,1,3,4,14,7,2"
14717,commdev-image-keyboard-response,561,1187474,learnblock2,null,img/planet9_right.png,9,Community 1,NA,FALSE,null,j,NA,NA,NA,1,6,"13,10,11,9,12,5,6,8,15,1,3,4,14,7,2"
14717,commdev-image-keyboard-response,562,1188727,learnblock2,null,img/planet11_right.png,11,Community 1,NA,FALSE,null,j,NA,NA,NA,1,6,"13,10,11,9,12,5,6,8,15,1,3,4,14,7,2"
14717,commdev-image-keyboard-response,563,1189978,learnblock2,818,img/planet12_left.png,12,Community 1,NA,TRUE,f,f,NA,NA,NA,1,6,"13,10,11,9,12,5,6,8,15,1,3,4,14,7,2"
14717,commdev-image-keyboard-response,564,1191230,learnblock2,870.8000001907349,img/planet11_left.png,11,Community 1,NA,TRUE,f,f,NA,NA,NA,1,6,"13,10,11,9,12,5,6,8,15,1,3,4,14,7,2"
14717,commdev-image-keyboard-response,565,1192482,learnblock2,811.3999998569489,img/planet9_left.png,9,Community 1,NA,TRUE,f,f,NA,NA,NA,1,6,"13,10,11,9,12,5,6,8,15,1,3,4,14,7,2"
14717,commdev-image-keyboard-response,566,1193733,learnblock2,null,img/planet13_right.png,13,Community 1,NA,FALSE,null,j,NA,NA,NA,1,6,"13,10,11,9,12,5,6,8,15,1,3,4,14,7,2"
14717,commdev-image-keyboard-response,567,1194985,learnblock2,914.3999998569489,img/planet9_left.png,9,Community 1,NA,TRUE,f,f,NA,NA,NA,1,6,"13,10,11,9,12,5,6,8,15,1,3,4,14,7,2"
14717,commdev-image-keyboard-response,568,1196237,learnblock2,null,img/planet10_right.png,10,Community 1,NA,FALSE,null,j,NA,NA,NA,1,6,"13,10,11,9,12,5,6,8,15,1,3,4,14,7,2"
14717,commdev-image-keyboard-response,569,1197488,learnblock2,789.2999999523163,img/planet12_left.png,12,Community 1,NA,TRUE,f,f,NA,NA,NA,1,6,"13,10,11,9,12,5,6,8,15,1,3,4,14,7,2"
14717,commdev-image-keyboard-response,570,1198740,learnblock2,null,img/planet10_left.png,10,Community 1,NA,FALSE,null,f,NA,NA,NA,1,6,"13,10,11,9,12,5,6,8,15,1,3,4,14,7,2"
14717,commdev-image-keyboard-response,571,1199992,learnblock2,627.7000000476837,img/planet9_left.png,9,Community 1,NA,TRUE,f,f,NA,NA,NA,1,6,"13,10,11,9,12,5,6,8,15,1,3,4,14,7,2"
14717,commdev-image-keyboard-response,572,1201243,learnblock2,697.7000000476837,img/planet13_left.png,13,Community 1,NA,TRUE,f,f,NA,NA,NA,1,6,"13,10,11,9,12,5,6,8,15,1,3,4,14,7,2"
14717,commdev-image-keyboard-response,573,1202494,learnblock2,null,img/planet10_right.png,10,Community 1,NA,FALSE,null,j,NA,NA,NA,1,6,"13,10,11,9,12,5,6,8,15,1,3,4,14,7,2"
14717,commdev-image-keyboard-response,574,1203746,learnblock2,753.5,img/planet12_left.png,12,Community 1,NA,TRUE,f,f,NA,NA,NA,1,6,"13,10,11,9,12,5,6,8,15,1,3,4,14,7,2"
14717,commdev-image-keyboard-response,575,1204998,learnblock2,855.2999999523163,img/planet3_left.png,3,Community 3,NA,TRUE,f,f,NA,NA,NA,1,6,"13,10,11,9,12,5,6,8,15,1,3,4,14,7,2"
14717,commdev-image-keyboard-response,576,1206250,learnblock2,906.1000001430511,img/planet7_left.png,7,Community 3,NA,TRUE,f,f,NA,NA,NA,1,6,"13,10,11,9,12,5,6,8,15,1,3,4,14,7,2"
14717,commdev-image-keyboard-response,577,1207503,learnblock2,1023.6000001430511,img/planet14_left.png,14,Community 3,NA,TRUE,f,f,NA,NA,NA,1,6,"13,10,11,9,12,5,6,8,15,1,3,4,14,7,2"
14717,commdev-image-keyboard-response,578,1208754,learnblock2,null,img/planet2_right.png,2,Community 3,NA,FALSE,null,j,NA,NA,NA,1,6,"13,10,11,9,12,5,6,8,15,1,3,4,14,7,2"
14717,commdev-image-keyboard-response,579,1210006,learnblock2,null,img/planet7_right.png,7,Community 3,NA,FALSE,null,j,NA,NA,NA,1,6,"13,10,11,9,12,5,6,8,15,1,3,4,14,7,2"
14717,commdev-image-keyboard-response,580,1211258,learnblock2,731,img/planet14_left.png,14,Community 3,NA,TRUE,f,f,NA,NA,NA,1,6,"13,10,11,9,12,5,6,8,15,1,3,4,14,7,2"
14717,commdev-image-keyboard-response,581,1212523,learnblock2,null,img/planet4_right.png,4,Community 3,NA,FALSE,null,j,NA,NA,NA,1,6,"13,10,11,9,12,5,6,8,15,1,3,4,14,7,2"
14717,commdev-image-keyboard-response,582,1213774,learnblock2,908.9000000953674,img/planet2_left.png,2,Community 3,NA,TRUE,f,f,NA,NA,NA,1,6,"13,10,11,9,12,5,6,8,15,1,3,4,14,7,2"
14717,commdev-image-keyboard-response,583,1215026,learnblock2,null,img/planet14_right.png,14,Community 3,NA,FALSE,null,j,NA,NA,NA,1,6,"13,10,11,9,12,5,6,8,15,1,3,4,14,7,2"
14717,commdev-image-keyboard-response,584,1216278,learnblock2,830.1000001430511,img/planet4_left.png,4,Community 3,NA,TRUE,f,f,NA,NA,NA,1,6,"13,10,11,9,12,5,6,8,15,1,3,4,14,7,2"
14717,commdev-image-keyboard-response,585,1217530,learnblock2,null,img/planet8_left.png,8,Community 2,NA,FALSE,null,f,NA,NA,NA,1,6,"13,10,11,9,12,5,6,8,15,1,3,4,14,7,2"
14717,commdev-image-keyboard-response,586,1218783,learnblock2,775.1000001430511,img/planet6_left.png,6,Community 2,NA,TRUE,f,f,NA,NA,NA,1,6,"13,10,11,9,12,5,6,8,15,1,3,4,14,7,2"
14717,commdev-image-keyboard-response,587,1220034,learnblock2,769.5999999046326,img/planet8_left.png,8,Community 2,NA,TRUE,f,f,NA,NA,NA,1,6,"13,10,11,9,12,5,6,8,15,1,3,4,14,7,2"
14717,commdev-image-keyboard-response,588,1221286,learnblock2,null,img/planet1_right.png,1,Community 2,NA,FALSE,null,j,NA,NA,NA,1,6,"13,10,11,9,12,5,6,8,15,1,3,4,14,7,2"
14717,commdev-image-keyboard-response,589,1222537,learnblock2,674.2999999523163,img/planet8_left.png,8,Community 2,NA,TRUE,f,f,NA,NA,NA,1,6,"13,10,11,9,12,5,6,8,15,1,3,4,14,7,2"
14717,commdev-image-keyboard-response,590,1223790,learnblock2,799,img/planet1_left.png,1,Community 2,NA,TRUE,f,f,NA,NA,NA,1,6,"13,10,11,9,12,5,6,8,15,1,3,4,14,7,2"
14717,commdev-image-keyboard-response,591,1225041,learnblock2,883.4000000953674,img/planet15_left.png,15,Community 2,NA,TRUE,f,f,NA,NA,NA,1,6,"13,10,11,9,12,5,6,8,15,1,3,4,14,7,2"
14717,commdev-image-keyboard-response,592,1226294,learnblock2,null,img/planet8_right.png,8,Community 2,NA,FALSE,null,j,NA,NA,NA,1,6,"13,10,11,9,12,5,6,8,15,1,3,4,14,7,2"
14717,commdev-image-keyboard-response,593,1227545,learnblock2,null,img/planet15_right.png,15,Community 2,NA,FALSE,null,j,NA,NA,NA,1,6,"13,10,11,9,12,5,6,8,15,1,3,4,14,7,2"
14717,commdev-image-keyboard-response,594,1228798,learnblock2,719.1000001430511,img/planet8_left.png,8,Community 2,NA,TRUE,f,f,NA,NA,NA,1,6,"13,10,11,9,12,5,6,8,15,1,3,4,14,7,2"
14717,commdev-image-keyboard-response,595,1230049,learnblock2,690.5999999046326,img/planet15_left.png,15,Community 2,NA,TRUE,f,f,NA,NA,NA,1,6,"13,10,11,9,12,5,6,8,15,1,3,4,14,7,2"
14717,commdev-image-keyboard-response,596,1231300,learnblock2,768.6000001430511,img/planet5_left.png,5,Community 2,NA,TRUE,f,f,NA,NA,NA,1,6,"13,10,11,9,12,5,6,8,15,1,3,4,14,7,2"
14717,commdev-image-keyboard-response,597,1232552,learnblock2,852.1999998092651,img/planet1_left.png,1,Community 2,NA,TRUE,f,f,NA,NA,NA,1,6,"13,10,11,9,12,5,6,8,15,1,3,4,14,7,2"
14717,commdev-image-keyboard-response,598,1233816,learnblock2,857.4000000953674,img/planet15_left.png,15,Community 2,NA,TRUE,f,f,NA,NA,NA,1,6,"13,10,11,9,12,5,6,8,15,1,3,4,14,7,2"
14717,commdev-image-keyboard-response,599,1235068,learnblock2,null,img/planet5_right.png,5,Community 2,NA,FALSE,null,j,NA,NA,NA,1,6,"13,10,11,9,12,5,6,8,15,1,3,4,14,7,2"
14717,commdev-image-keyboard-response,600,1236320,learnblock2,788.2999999523163,img/planet15_left.png,15,Community 2,NA,TRUE,f,f,NA,NA,NA,1,6,"13,10,11,9,12,5,6,8,15,1,3,4,14,7,2"
14717,commdev-image-keyboard-response,601,1237572,learnblock2,800.1999998092651,img/planet5_left.png,5,Community 2,NA,TRUE,f,f,NA,NA,NA,1,6,"13,10,11,9,12,5,6,8,15,1,3,4,14,7,2"
14717,commdev-image-keyboard-response,602,1238823,learnblock2,844.2999999523163,img/planet1_left.png,1,Community 2,NA,TRUE,f,f,NA,NA,NA,1,6,"13,10,11,9,12,5,6,8,15,1,3,4,14,7,2"
14717,commdev-image-keyboard-response,603,1240075,learnblock2,null,img/planet8_right.png,8,Community 2,NA,FALSE,null,j,NA,NA,NA,1,6,"13,10,11,9,12,5,6,8,15,1,3,4,14,7,2"
14717,commdev-image-keyboard-response,604,1241326,learnblock2,766.0999999046326,img/planet4_left.png,4,Community 3,NA,TRUE,f,f,NA,NA,NA,1,6,"13,10,11,9,12,5,6,8,15,1,3,4,14,7,2"
14717,commdev-image-keyboard-response,605,1242578,learnblock2,1074.2999999523163,img/planet14_left.png,14,Community 3,NA,TRUE,f,f,NA,NA,NA,1,6,"13,10,11,9,12,5,6,8,15,1,3,4,14,7,2"
14717,commdev-image-keyboard-response,606,1243829,learnblock2,null,img/planet7_right.png,7,Community 3,NA,FALSE,null,j,NA,NA,NA,1,6,"13,10,11,9,12,5,6,8,15,1,3,4,14,7,2"
14717,commdev-image-keyboard-response,607,1245081,learnblock2,null,img/planet3_right.png,3,Community 3,NA,FALSE,null,j,NA,NA,NA,1,6,"13,10,11,9,12,5,6,8,15,1,3,4,14,7,2"
14717,commdev-image-keyboard-response,608,1246332,learnblock2,null,img/planet7_right.png,7,Community 3,NA,FALSE,null,j,NA,NA,NA,1,6,"13,10,11,9,12,5,6,8,15,1,3,4,14,7,2"
14717,commdev-image-keyboard-response,609,1247584,learnblock2,867.5,img/planet4_left.png,4,Community 3,NA,TRUE,f,f,NA,NA,NA,1,6,"13,10,11,9,12,5,6,8,15,1,3,4,14,7,2"
14717,commdev-image-keyboard-response,610,1248840,learnblock2,null,img/planet7_right.png,7,Community 3,NA,FALSE,null,j,NA,NA,NA,1,6,"13,10,11,9,12,5,6,8,15,1,3,4,14,7,2"
14717,commdev-image-keyboard-response,611,1250092,learnblock2,735.5,img/planet4_left.png,4,Community 3,NA,TRUE,f,f,NA,NA,NA,1,6,"13,10,11,9,12,5,6,8,15,1,3,4,14,7,2"
14717,commdev-image-keyboard-response,612,1251343,learnblock2,null,img/planet14_right.png,14,Community 3,NA,FALSE,null,j,NA,NA,NA,1,6,"13,10,11,9,12,5,6,8,15,1,3,4,14,7,2"
14717,commdev-image-keyboard-response,613,1252595,learnblock2,null,img/planet7_right.png,7,Community 3,NA,FALSE,null,j,NA,NA,NA,1,6,"13,10,11,9,12,5,6,8,15,1,3,4,14,7,2"
14717,commdev-image-keyboard-response,614,1253847,learnblock2,null,img/planet3_right.png,3,Community 3,NA,FALSE,null,j,NA,NA,NA,1,6,"13,10,11,9,12,5,6,8,15,1,3,4,14,7,2"
14717,commdev-image-keyboard-response,615,1255098,learnblock2,858.4000000953674,img/planet12_left.png,12,Community 1,NA,TRUE,f,f,NA,NA,NA,1,6,"13,10,11,9,12,5,6,8,15,1,3,4,14,7,2"
14717,commdev-image-keyboard-response,616,1256349,learnblock2,727.3000001907349,img/planet10_left.png,10,Community 1,NA,TRUE,f,f,NA,NA,NA,1,6,"13,10,11,9,12,5,6,8,15,1,3,4,14,7,2"
14717,commdev-image-keyboard-response,617,1257601,learnblock2,null,img/planet12_right.png,12,Community 1,NA,FALSE,null,j,NA,NA,NA,1,6,"13,10,11,9,12,5,6,8,15,1,3,4,14,7,2"
14717,commdev-image-keyboard-response,618,1258852,learnblock2,775.4000000953674,img/planet3_left.png,3,Community 3,NA,TRUE,f,f,NA,NA,NA,1,6,"13,10,11,9,12,5,6,8,15,1,3,4,14,7,2"
14717,commdev-image-keyboard-response,619,1260104,learnblock2,null,img/planet2_right.png,2,Community 3,NA,FALSE,null,j,NA,NA,NA,1,6,"13,10,11,9,12,5,6,8,15,1,3,4,14,7,2"
14717,commdev-image-keyboard-response,620,1261358,learnblock2,551.6999998092651,img/planet4_left.png,4,Community 3,NA,TRUE,f,f,NA,NA,NA,1,6,"13,10,11,9,12,5,6,8,15,1,3,4,14,7,2"
14717,commdev-image-keyboard-response,621,1262610,learnblock2,null,img/planet2_right.png,2,Community 3,NA,FALSE,null,j,NA,NA,NA,1,6,"13,10,11,9,12,5,6,8,15,1,3,4,14,7,2"
14717,commdev-image-keyboard-response,622,1263861,learnblock2,743.4000000953674,img/planet7_left.png,7,Community 3,NA,TRUE,f,f,NA,NA,NA,1,6,"13,10,11,9,12,5,6,8,15,1,3,4,14,7,2"
14717,commdev-image-keyboard-response,623,1265112,learnblock2,null,img/planet3_right.png,3,Community 3,NA,FALSE,null,j,NA,NA,NA,1,6,"13,10,11,9,12,5,6,8,15,1,3,4,14,7,2"
14717,commdev-image-keyboard-response,624,1266365,learnblock2,728.5,img/planet2_left.png,2,Community 3,NA,TRUE,f,f,NA,NA,NA,1,6,"13,10,11,9,12,5,6,8,15,1,3,4,14,7,2"
14717,commdev-image-keyboard-response,625,1267616,learnblock2,null,img/planet3_right.png,3,Community 3,NA,FALSE,null,j,NA,NA,NA,1,6,"13,10,11,9,12,5,6,8,15,1,3,4,14,7,2"
14717,commdev-image-keyboard-response,626,1268869,learnblock2,504.09999990463257,img/planet2_right.png,2,Community 3,NA,FALSE,f,j,NA,NA,NA,1,6,"13,10,11,9,12,5,6,8,15,1,3,4,14,7,2"
14717,commdev-image-keyboard-response,627,1270121,learnblock2,1179.4000000953674,img/planet7_left.png,7,Community 3,NA,TRUE,f,f,NA,NA,NA,1,6,"13,10,11,9,12,5,6,8,15,1,3,4,14,7,2"
14717,commdev-image-keyboard-response,628,1271373,learnblock2,975.7000000476837,img/planet3_left.png,3,Community 3,NA,TRUE,f,f,NA,NA,NA,1,6,"13,10,11,9,12,5,6,8,15,1,3,4,14,7,2"
14717,commdev-image-keyboard-response,629,1272624,learnblock2,null,img/planet2_right.png,2,Community 3,NA,FALSE,null,j,NA,NA,NA,1,6,"13,10,11,9,12,5,6,8,15,1,3,4,14,7,2"
14717,commdev-image-keyboard-response,630,1273876,learnblock2,776.7999999523163,img/planet7_right.png,7,Community 3,NA,FALSE,f,j,NA,NA,NA,1,6,"13,10,11,9,12,5,6,8,15,1,3,4,14,7,2"
14717,commdev-image-keyboard-response,631,1275128,learnblock2,null,img/planet4_right.png,4,Community 3,NA,FALSE,null,j,NA,NA,NA,1,6,"13,10,11,9,12,5,6,8,15,1,3,4,14,7,2"
14717,commdev-image-keyboard-response,632,1276379,learnblock2,null,img/planet14_right.png,14,Community 3,NA,FALSE,null,j,NA,NA,NA,1,6,"13,10,11,9,12,5,6,8,15,1,3,4,14,7,2"
14717,commdev-image-keyboard-response,633,1277631,learnblock2,null,img/planet4_right.png,4,Community 3,NA,FALSE,null,j,NA,NA,NA,1,6,"13,10,11,9,12,5,6,8,15,1,3,4,14,7,2"
14717,commdev-image-keyboard-response,634,1278882,learnblock2,null,img/planet8_right.png,8,Community 2,NA,FALSE,null,j,NA,NA,NA,1,6,"13,10,11,9,12,5,6,8,15,1,3,4,14,7,2"
14717,commdev-image-keyboard-response,635,1280134,learnblock2,null,img/planet15_right.png,15,Community 2,NA,FALSE,null,j,NA,NA,NA,1,6,"13,10,11,9,12,5,6,8,15,1,3,4,14,7,2"
14717,commdev-image-keyboard-response,636,1281386,learnblock2,null,img/planet8_left.png,8,Community 2,NA,FALSE,null,f,NA,NA,NA,1,6,"13,10,11,9,12,5,6,8,15,1,3,4,14,7,2"
14717,commdev-image-keyboard-response,637,1282637,learnblock2,null,img/planet1_right.png,1,Community 2,NA,FALSE,null,j,NA,NA,NA,1,6,"13,10,11,9,12,5,6,8,15,1,3,4,14,7,2"
14717,commdev-image-keyboard-response,638,1283889,learnblock2,null,img/planet6_right.png,6,Community 2,NA,FALSE,null,j,NA,NA,NA,1,6,"13,10,11,9,12,5,6,8,15,1,3,4,14,7,2"
14717,commdev-image-keyboard-response,639,1285141,learnblock2,null,img/planet5_right.png,5,Community 2,NA,FALSE,null,j,NA,NA,NA,1,6,"13,10,11,9,12,5,6,8,15,1,3,4,14,7,2"
14717,commdev-image-keyboard-response,640,1286392,learnblock2,596.7000000476837,img/planet6_left.png,6,Community 2,NA,TRUE,f,f,NA,NA,NA,1,6,"13,10,11,9,12,5,6,8,15,1,3,4,14,7,2"
14717,commdev-image-keyboard-response,641,1287643,learnblock2,null,img/planet8_right.png,8,Community 2,NA,FALSE,null,j,NA,NA,NA,1,6,"13,10,11,9,12,5,6,8,15,1,3,4,14,7,2"
14717,commdev-image-keyboard-response,642,1288895,learnblock2,566,img/planet6_left.png,6,Community 2,NA,TRUE,f,f,NA,NA,NA,1,6,"13,10,11,9,12,5,6,8,15,1,3,4,14,7,2"
14717,commdev-image-keyboard-response,643,1290146,learnblock2,null,img/planet8_left.png,8,Community 2,NA,FALSE,null,f,NA,NA,NA,1,6,"13,10,11,9,12,5,6,8,15,1,3,4,14,7,2"
14717,commdev-image-keyboard-response,644,1291399,learnblock2,725.5,img/planet4_left.png,4,Community 3,NA,TRUE,f,f,NA,NA,NA,1,6,"13,10,11,9,12,5,6,8,15,1,3,4,14,7,2"
14717,commdev-image-keyboard-response,645,1292650,learnblock2,722.2999999523163,img/planet2_left.png,2,Community 3,NA,TRUE,f,f,NA,NA,NA,1,6,"13,10,11,9,12,5,6,8,15,1,3,4,14,7,2"
14717,commdev-image-keyboard-response,646,1293901,learnblock2,750,img/planet14_left.png,14,Community 3,NA,TRUE,f,f,NA,NA,NA,1,6,"13,10,11,9,12,5,6,8,15,1,3,4,14,7,2"
14717,commdev-image-keyboard-response,647,1295153,learnblock2,754.0999999046326,img/planet7_left.png,7,Community 3,NA,TRUE,f,f,NA,NA,NA,1,6,"13,10,11,9,12,5,6,8,15,1,3,4,14,7,2"
14717,commdev-image-keyboard-response,648,1296405,learnblock2,785.1000001430511,img/planet4_left.png,4,Community 3,NA,TRUE,f,f,NA,NA,NA,1,6,"13,10,11,9,12,5,6,8,15,1,3,4,14,7,2"
14717,commdev-image-keyboard-response,649,1297657,learnblock2,906.5999999046326,img/planet14_left.png,14,Community 3,NA,TRUE,f,f,NA,NA,NA,1,6,"13,10,11,9,12,5,6,8,15,1,3,4,14,7,2"
14717,commdev-image-keyboard-response,650,1298909,learnblock2,null,img/planet4_right.png,4,Community 3,NA,FALSE,null,j,NA,NA,NA,1,6,"13,10,11,9,12,5,6,8,15,1,3,4,14,7,2"
14717,commdev-image-keyboard-response,651,1300160,learnblock2,null,img/planet2_right.png,2,Community 3,NA,FALSE,null,j,NA,NA,NA,1,6,"13,10,11,9,12,5,6,8,15,1,3,4,14,7,2"
14717,commdev-image-keyboard-response,652,1301411,learnblock2,null,img/planet3_left.png,3,Community 3,NA,FALSE,null,f,NA,NA,NA,1,6,"13,10,11,9,12,5,6,8,15,1,3,4,14,7,2"
14717,commdev-image-keyboard-response,653,1302663,learnblock2,null,img/planet2_right.png,2,Community 3,NA,FALSE,null,j,NA,NA,NA,1,6,"13,10,11,9,12,5,6,8,15,1,3,4,14,7,2"
14717,commdev-image-keyboard-response,654,1303914,learnblock2,null,img/planet7_right.png,7,Community 3,NA,FALSE,null,j,NA,NA,NA,1,6,"13,10,11,9,12,5,6,8,15,1,3,4,14,7,2"
14717,commdev-image-keyboard-response,655,1305165,learnblock2,815.2999999523163,img/planet4_left.png,4,Community 3,NA,TRUE,f,f,NA,NA,NA,1,6,"13,10,11,9,12,5,6,8,15,1,3,4,14,7,2"
14717,commdev-image-keyboard-response,656,1306417,learnblock2,923.9000000953674,img/planet7_left.png,7,Community 3,NA,TRUE,f,f,NA,NA,NA,1,6,"13,10,11,9,12,5,6,8,15,1,3,4,14,7,2"
14717,commdev-image-keyboard-response,657,1307669,learnblock2,null,img/planet4_right.png,4,Community 3,NA,FALSE,null,j,NA,NA,NA,1,6,"13,10,11,9,12,5,6,8,15,1,3,4,14,7,2"
14717,commdev-image-keyboard-response,658,1308921,learnblock2,null,img/planet2_right.png,2,Community 3,NA,FALSE,null,j,NA,NA,NA,1,6,"13,10,11,9,12,5,6,8,15,1,3,4,14,7,2"
14717,commdev-image-keyboard-response,659,1310172,learnblock2,800.0999999046326,img/planet3_left.png,3,Community 3,NA,TRUE,f,f,NA,NA,NA,1,6,"13,10,11,9,12,5,6,8,15,1,3,4,14,7,2"
14717,commdev-image-keyboard-response,660,1311424,learnblock2,917.9000000953674,img/planet12_left.png,12,Community 1,NA,TRUE,f,f,NA,NA,NA,1,6,"13,10,11,9,12,5,6,8,15,1,3,4,14,7,2"
14717,commdev-image-keyboard-response,661,1312675,learnblock2,null,img/planet10_right.png,10,Community 1,NA,FALSE,null,j,NA,NA,NA,1,6,"13,10,11,9,12,5,6,8,15,1,3,4,14,7,2"
14717,commdev-image-keyboard-response,662,1313926,learnblock2,null,img/planet11_right.png,11,Community 1,NA,FALSE,null,j,NA,NA,NA,1,6,"13,10,11,9,12,5,6,8,15,1,3,4,14,7,2"
14717,commdev-image-keyboard-response,663,1315178,learnblock2,794.5999999046326,img/planet12_left.png,12,Community 1,NA,TRUE,f,f,NA,NA,NA,1,6,"13,10,11,9,12,5,6,8,15,1,3,4,14,7,2"
14717,commdev-image-keyboard-response,664,1316430,learnblock2,781.2000000476837,img/planet10_left.png,10,Community 1,NA,TRUE,f,f,NA,NA,NA,1,6,"13,10,11,9,12,5,6,8,15,1,3,4,14,7,2"
14717,commdev-image-keyboard-response,665,1317682,learnblock2,null,img/planet12_right.png,12,Community 1,NA,FALSE,null,j,NA,NA,NA,1,6,"13,10,11,9,12,5,6,8,15,1,3,4,14,7,2"
14717,commdev-image-keyboard-response,666,1318933,learnblock2,null,img/planet10_right.png,10,Community 1,NA,FALSE,null,j,NA,NA,NA,1,6,"13,10,11,9,12,5,6,8,15,1,3,4,14,7,2"
14717,commdev-image-keyboard-response,667,1320185,learnblock2,684.5,img/planet13_left.png,13,Community 1,NA,TRUE,f,f,NA,NA,NA,1,6,"13,10,11,9,12,5,6,8,15,1,3,4,14,7,2"
14717,commdev-image-keyboard-response,668,1321437,learnblock2,null,img/planet11_right.png,11,Community 1,NA,FALSE,null,j,NA,NA,NA,1,6,"13,10,11,9,12,5,6,8,15,1,3,4,14,7,2"
14717,commdev-image-keyboard-response,669,1322689,learnblock2,691.5,img/planet12_left.png,12,Community 1,NA,TRUE,f,f,NA,NA,NA,1,6,"13,10,11,9,12,5,6,8,15,1,3,4,14,7,2"
14717,commdev-image-keyboard-response,670,1323940,learnblock2,null,img/planet10_right.png,10,Community 1,NA,FALSE,null,j,NA,NA,NA,1,6,"13,10,11,9,12,5,6,8,15,1,3,4,14,7,2"
14717,commdev-image-keyboard-response,671,1325191,learnblock2,612.5,img/planet11_left.png,11,Community 1,NA,TRUE,f,f,NA,NA,NA,1,6,"13,10,11,9,12,5,6,8,15,1,3,4,14,7,2"
14717,commdev-image-keyboard-response,672,1326443,learnblock2,null,img/planet13_left.png,13,Community 1,NA,FALSE,null,f,NA,NA,NA,1,6,"13,10,11,9,12,5,6,8,15,1,3,4,14,7,2"
14717,commdev-image-keyboard-response,673,1327695,learnblock2,485.40000009536743,img/planet9_right.png,9,Community 1,NA,FALSE,f,j,NA,NA,NA,1,6,"13,10,11,9,12,5,6,8,15,1,3,4,14,7,2"
14717,commdev-image-keyboard-response,674,1328946,learnblock2,795.7000000476837,img/planet13_left.png,13,Community 1,NA,TRUE,f,f,NA,NA,NA,1,6,"13,10,11,9,12,5,6,8,15,1,3,4,14,7,2"
14717,commdev-image-keyboard-response,675,1330198,learnblock2,null,img/planet10_right.png,10,Community 1,NA,FALSE,null,j,NA,NA,NA,1,6,"13,10,11,9,12,5,6,8,15,1,3,4,14,7,2"
14717,commdev-image-keyboard-response,676,1331450,learnblock2,674.1999998092651,img/planet9_left.png,9,Community 1,NA,TRUE,f,f,NA,NA,NA,1,6,"13,10,11,9,12,5,6,8,15,1,3,4,14,7,2"
14717,commdev-image-keyboard-response,677,1332701,learnblock2,null,img/planet10_right.png,10,Community 1,NA,FALSE,null,j,NA,NA,NA,1,6,"13,10,11,9,12,5,6,8,15,1,3,4,14,7,2"
14717,commdev-image-keyboard-response,678,1333952,learnblock2,738.3999998569489,img/planet13_left.png,13,Community 1,NA,TRUE,f,f,NA,NA,NA,1,6,"13,10,11,9,12,5,6,8,15,1,3,4,14,7,2"
14717,commdev-image-keyboard-response,679,1335204,learnblock2,null,img/planet12_right.png,12,Community 1,NA,FALSE,null,j,NA,NA,NA,1,6,"13,10,11,9,12,5,6,8,15,1,3,4,14,7,2"
14717,commdev-image-keyboard-response,680,1336455,learnblock2,795.4000000953674,img/planet10_left.png,10,Community 1,NA,TRUE,f,f,NA,NA,NA,1,6,"13,10,11,9,12,5,6,8,15,1,3,4,14,7,2"
14717,commdev-image-keyboard-response,681,1337708,learnblock2,824.5,img/planet9_left.png,9,Community 1,NA,TRUE,f,f,NA,NA,NA,1,6,"13,10,11,9,12,5,6,8,15,1,3,4,14,7,2"
14717,commdev-image-keyboard-response,682,1338959,learnblock2,852.9000000953674,img/planet13_left.png,13,Community 1,NA,TRUE,f,f,NA,NA,NA,1,6,"13,10,11,9,12,5,6,8,15,1,3,4,14,7,2"
14717,commdev-image-keyboard-response,683,1340218,learnblock2,null,img/planet12_right.png,12,Community 1,NA,FALSE,null,j,NA,NA,NA,1,6,"13,10,11,9,12,5,6,8,15,1,3,4,14,7,2"
14717,commdev-image-keyboard-response,684,1341469,learnblock2,934.7000000476837,img/planet13_left.png,13,Community 1,NA,TRUE,f,f,NA,NA,NA,1,6,"13,10,11,9,12,5,6,8,15,1,3,4,14,7,2"
14717,commdev-image-keyboard-response,685,1342721,learnblock2,null,img/planet12_right.png,12,Community 1,NA,FALSE,null,j,NA,NA,NA,1,6,"13,10,11,9,12,5,6,8,15,1,3,4,14,7,2"
14717,commdev-image-keyboard-response,686,1343972,learnblock2,696.5,img/planet3_left.png,3,Community 3,NA,TRUE,f,f,NA,NA,NA,1,6,"13,10,11,9,12,5,6,8,15,1,3,4,14,7,2"
14717,commdev-image-keyboard-response,687,1345224,learnblock2,null,img/planet2_right.png,2,Community 3,NA,FALSE,null,j,NA,NA,NA,1,6,"13,10,11,9,12,5,6,8,15,1,3,4,14,7,2"
14717,commdev-image-keyboard-response,688,1346475,learnblock2,896.5,img/planet7_left.png,7,Community 3,NA,TRUE,f,f,NA,NA,NA,1,6,"13,10,11,9,12,5,6,8,15,1,3,4,14,7,2"
14717,commdev-image-keyboard-response,689,1347727,learnblock2,null,img/planet3_right.png,3,Community 3,NA,FALSE,null,j,NA,NA,NA,1,6,"13,10,11,9,12,5,6,8,15,1,3,4,14,7,2"
14717,commdev-image-keyboard-response,690,1348979,learnblock2,752.7000000476837,img/planet12_right.png,12,Community 1,NA,FALSE,f,j,NA,NA,NA,1,6,"13,10,11,9,12,5,6,8,15,1,3,4,14,7,2"
14717,commdev-image-keyboard-response,691,1350231,learnblock2,null,img/planet13_right.png,13,Community 1,NA,FALSE,null,j,NA,NA,NA,1,6,"13,10,11,9,12,5,6,8,15,1,3,4,14,7,2"
14717,commdev-image-keyboard-response,692,1351482,learnblock2,null,img/planet12_right.png,12,Community 1,NA,FALSE,null,j,NA,NA,NA,1,6,"13,10,11,9,12,5,6,8,15,1,3,4,14,7,2"
14717,commdev-image-keyboard-response,693,1352733,learnblock2,null,img/planet13_right.png,13,Community 1,NA,FALSE,null,j,NA,NA,NA,1,6,"13,10,11,9,12,5,6,8,15,1,3,4,14,7,2"
14717,commdev-image-keyboard-response,694,1353986,learnblock2,707.5,img/planet11_left.png,11,Community 1,NA,TRUE,f,f,NA,NA,NA,1,6,"13,10,11,9,12,5,6,8,15,1,3,4,14,7,2"
14717,commdev-image-keyboard-response,695,1355237,learnblock2,702.1000001430511,img/planet12_left.png,12,Community 1,NA,TRUE,f,f,NA,NA,NA,1,6,"13,10,11,9,12,5,6,8,15,1,3,4,14,7,2"
14717,commdev-image-keyboard-response,696,1356489,learnblock2,null,img/planet10_right.png,10,Community 1,NA,FALSE,null,j,NA,NA,NA,1,6,"13,10,11,9,12,5,6,8,15,1,3,4,14,7,2"
14717,commdev-image-keyboard-response,697,1357740,learnblock2,664.5,img/planet12_left.png,12,Community 1,NA,TRUE,f,f,NA,NA,NA,1,6,"13,10,11,9,12,5,6,8,15,1,3,4,14,7,2"
14717,commdev-image-keyboard-response,698,1358991,learnblock2,null,img/planet11_right.png,11,Community 1,NA,FALSE,null,j,NA,NA,NA,1,6,"13,10,11,9,12,5,6,8,15,1,3,4,14,7,2"
14717,commdev-image-keyboard-response,699,1360242,learnblock2,null,img/planet10_right.png,10,Community 1,NA,FALSE,null,j,NA,NA,NA,1,6,"13,10,11,9,12,5,6,8,15,1,3,4,14,7,2"
14717,commdev-image-keyboard-response,700,1361494,learnblock2,null,img/planet12_right.png,12,Community 1,NA,FALSE,null,j,NA,NA,NA,1,6,"13,10,11,9,12,5,6,8,15,1,3,4,14,7,2"
14717,commdev-image-keyboard-response,701,1362747,learnblock2,null,img/planet10_right.png,10,Community 1,NA,FALSE,null,j,NA,NA,NA,1,6,"13,10,11,9,12,5,6,8,15,1,3,4,14,7,2"
14717,commdev-image-keyboard-response,702,1363999,learnblock2,null,img/planet13_right.png,13,Community 1,NA,FALSE,null,j,NA,NA,NA,1,6,"13,10,11,9,12,5,6,8,15,1,3,4,14,7,2"
14717,commdev-image-keyboard-response,703,1365251,learnblock2,585.8999998569489,img/planet10_left.png,10,Community 1,NA,TRUE,f,f,NA,NA,NA,1,6,"13,10,11,9,12,5,6,8,15,1,3,4,14,7,2"
14717,commdev-image-keyboard-response,704,1366503,learnblock2,null,img/planet13_right.png,13,Community 1,NA,FALSE,null,j,NA,NA,NA,1,6,"13,10,11,9,12,5,6,8,15,1,3,4,14,7,2"
14717,commdev-image-keyboard-response,705,1367755,learnblock2,569.4000000953674,img/planet12_left.png,12,Community 1,NA,TRUE,f,f,NA,NA,NA,1,6,"13,10,11,9,12,5,6,8,15,1,3,4,14,7,2"
14717,commdev-image-keyboard-response,706,1369008,learnblock2,null,img/planet10_right.png,10,Community 1,NA,FALSE,null,j,NA,NA,NA,1,6,"13,10,11,9,12,5,6,8,15,1,3,4,14,7,2"
14717,commdev-image-keyboard-response,707,1370260,learnblock2,null,img/planet11_right.png,11,Community 1,NA,FALSE,null,j,NA,NA,NA,1,6,"13,10,11,9,12,5,6,8,15,1,3,4,14,7,2"
14717,commdev-image-keyboard-response,708,1371512,learnblock2,null,img/planet12_right.png,12,Community 1,NA,FALSE,null,j,NA,NA,NA,1,6,"13,10,11,9,12,5,6,8,15,1,3,4,14,7,2"
14717,commdev-image-keyboard-response,709,1372764,learnblock2,null,img/planet10_right.png,10,Community 1,NA,FALSE,null,j,NA,NA,NA,1,6,"13,10,11,9,12,5,6,8,15,1,3,4,14,7,2"
14717,commdev-image-keyboard-response,710,1374016,learnblock2,null,img/planet12_left.png,12,Community 1,NA,FALSE,null,f,NA,NA,NA,1,6,"13,10,11,9,12,5,6,8,15,1,3,4,14,7,2"
14717,commdev-image-keyboard-response,711,1375268,learnblock2,null,img/planet10_right.png,10,Community 1,NA,FALSE,null,j,NA,NA,NA,1,6,"13,10,11,9,12,5,6,8,15,1,3,4,14,7,2"
14717,commdev-image-keyboard-response,712,1376520,learnblock2,677,img/planet13_right.png,13,Community 1,NA,FALSE,f,j,NA,NA,NA,1,6,"13,10,11,9,12,5,6,8,15,1,3,4,14,7,2"
14717,commdev-image-keyboard-response,713,1377772,learnblock2,null,img/planet12_right.png,12,Community 1,NA,FALSE,null,j,NA,NA,NA,1,6,"13,10,11,9,12,5,6,8,15,1,3,4,14,7,2"
14717,commdev-image-keyboard-response,714,1379024,learnblock2,749.5,img/planet10_left.png,10,Community 1,NA,TRUE,f,f,NA,NA,NA,1,6,"13,10,11,9,12,5,6,8,15,1,3,4,14,7,2"
14717,commdev-image-keyboard-response,715,1380275,learnblock2,null,img/planet11_right.png,11,Community 1,NA,FALSE,null,j,NA,NA,NA,1,6,"13,10,11,9,12,5,6,8,15,1,3,4,14,7,2"
14717,commdev-image-keyboard-response,716,1381527,learnblock2,null,img/planet13_right.png,13,Community 1,NA,FALSE,null,j,NA,NA,NA,1,6,"13,10,11,9,12,5,6,8,15,1,3,4,14,7,2"
14717,commdev-image-keyboard-response,717,1382778,learnblock2,586.8000001907349,img/planet12_left.png,12,Community 1,NA,TRUE,f,f,NA,NA,NA,1,6,"13,10,11,9,12,5,6,8,15,1,3,4,14,7,2"
14717,commdev-image-keyboard-response,718,1384030,learnblock2,null,img/planet10_left.png,10,Community 1,NA,FALSE,null,f,NA,NA,NA,1,6,"13,10,11,9,12,5,6,8,15,1,3,4,14,7,2"
14717,commdev-image-keyboard-response,719,1385282,learnblock2,794.5999999046326,img/planet13_left.png,13,Community 1,NA,TRUE,f,f,NA,NA,NA,1,6,"13,10,11,9,12,5,6,8,15,1,3,4,14,7,2"
14717,commdev-image-keyboard-response,720,1386534,learnblock2,831,img/planet12_left.png,12,Community 1,NA,TRUE,f,f,NA,NA,NA,1,6,"13,10,11,9,12,5,6,8,15,1,3,4,14,7,2"
14717,commdev-image-keyboard-response,721,1387786,learnblock2,null,img/planet13_right.png,13,Community 1,NA,FALSE,null,j,NA,NA,NA,1,6,"13,10,11,9,12,5,6,8,15,1,3,4,14,7,2"
14717,commdev-image-keyboard-response,722,1389038,learnblock2,614.6000001430511,img/planet12_right.png,12,Community 1,NA,FALSE,f,j,NA,NA,NA,1,6,"13,10,11,9,12,5,6,8,15,1,3,4,14,7,2"
14717,commdev-image-keyboard-response,723,1390290,learnblock2,714.7000000476837,img/planet11_left.png,11,Community 1,NA,TRUE,f,f,NA,NA,NA,1,6,"13,10,11,9,12,5,6,8,15,1,3,4,14,7,2"
14717,commdev-image-keyboard-response,724,1391542,learnblock2,null,img/planet12_right.png,12,Community 1,NA,FALSE,null,j,NA,NA,NA,1,6,"13,10,11,9,12,5,6,8,15,1,3,4,14,7,2"
14717,commdev-image-keyboard-response,725,1392793,learnblock2,731.6000001430511,img/planet11_left.png,11,Community 1,NA,TRUE,f,f,NA,NA,NA,1,6,"13,10,11,9,12,5,6,8,15,1,3,4,14,7,2"
14717,commdev-image-keyboard-response,726,1394044,learnblock2,862.4000000953674,img/planet13_left.png,13,Community 1,NA,TRUE,f,f,NA,NA,NA,1,6,"13,10,11,9,12,5,6,8,15,1,3,4,14,7,2"
14717,commdev-image-keyboard-response,727,1395296,learnblock2,null,img/planet10_right.png,10,Community 1,NA,FALSE,null,j,NA,NA,NA,1,6,"13,10,11,9,12,5,6,8,15,1,3,4,14,7,2"
14717,commdev-image-keyboard-response,728,1396547,learnblock2,745.2999999523163,img/planet12_left.png,12,Community 1,NA,TRUE,f,f,NA,NA,NA,1,6,"13,10,11,9,12,5,6,8,15,1,3,4,14,7,2"
14717,commdev-image-keyboard-response,729,1397799,learnblock2,812,img/planet3_left.png,3,Community 3,NA,TRUE,f,f,NA,NA,NA,1,6,"13,10,11,9,12,5,6,8,15,1,3,4,14,7,2"
14717,commdev-image-keyboard-response,730,1399050,learnblock2,null,img/planet12_right.png,12,Community 1,NA,FALSE,null,j,NA,NA,NA,1,6,"13,10,11,9,12,5,6,8,15,1,3,4,14,7,2"
14717,commdev-image-keyboard-response,731,1400315,learnblock2,805.8999998569489,img/planet10_right.png,10,Community 1,NA,FALSE,f,j,NA,NA,NA,1,6,"13,10,11,9,12,5,6,8,15,1,3,4,14,7,2"
14717,commdev-image-keyboard-response,732,1401567,learnblock2,null,img/planet11_right.png,11,Community 1,NA,FALSE,null,j,NA,NA,NA,1,6,"13,10,11,9,12,5,6,8,15,1,3,4,14,7,2"
14717,commdev-image-keyboard-response,733,1402819,learnblock2,865.8999998569489,img/planet12_left.png,12,Community 1,NA,TRUE,f,f,NA,NA,NA,1,6,"13,10,11,9,12,5,6,8,15,1,3,4,14,7,2"
14717,commdev-image-keyboard-response,734,1404071,learnblock2,null,img/planet10_right.png,10,Community 1,NA,FALSE,null,j,NA,NA,NA,1,6,"13,10,11,9,12,5,6,8,15,1,3,4,14,7,2"
14717,commdev-image-keyboard-response,735,1405322,learnblock2,794.4000000953674,img/planet9_left.png,9,Community 1,NA,TRUE,f,f,NA,NA,NA,1,6,"13,10,11,9,12,5,6,8,15,1,3,4,14,7,2"
14717,commdev-image-keyboard-response,736,1406572,learnblock2,null,img/planet10_right.png,10,Community 1,NA,FALSE,null,j,NA,NA,NA,1,6,"13,10,11,9,12,5,6,8,15,1,3,4,14,7,2"
14717,commdev-image-keyboard-response,737,1407824,learnblock2,780.7000000476837,img/planet11_left.png,11,Community 1,NA,TRUE,f,f,NA,NA,NA,1,6,"13,10,11,9,12,5,6,8,15,1,3,4,14,7,2"
14717,commdev-image-keyboard-response,738,1409075,learnblock2,786.5,img/planet12_left.png,12,Community 1,NA,TRUE,f,f,NA,NA,NA,1,6,"13,10,11,9,12,5,6,8,15,1,3,4,14,7,2"
14717,commdev-image-keyboard-response,739,1410327,learnblock2,694.3999998569489,img/planet10_left.png,10,Community 1,NA,TRUE,f,f,NA,NA,NA,1,6,"13,10,11,9,12,5,6,8,15,1,3,4,14,7,2"
14717,commdev-image-keyboard-response,740,1411579,learnblock2,null,img/planet9_right.png,9,Community 1,NA,FALSE,null,j,NA,NA,NA,1,6,"13,10,11,9,12,5,6,8,15,1,3,4,14,7,2"
14717,commdev-image-keyboard-response,741,1412831,learnblock2,605.9000000953674,img/planet13_left.png,13,Community 1,NA,TRUE,f,f,NA,NA,NA,1,6,"13,10,11,9,12,5,6,8,15,1,3,4,14,7,2"
14717,commdev-image-keyboard-response,742,1414082,learnblock2,null,img/planet9_right.png,9,Community 1,NA,FALSE,null,j,NA,NA,NA,1,6,"13,10,11,9,12,5,6,8,15,1,3,4,14,7,2"
14717,commdev-image-keyboard-response,743,1415333,learnblock2,614.3000001907349,img/planet5_left.png,5,Community 2,NA,TRUE,f,f,NA,NA,NA,1,6,"13,10,11,9,12,5,6,8,15,1,3,4,14,7,2"
14717,commdev-image-keyboard-response,744,1416596,learnblock2,859.7999999523163,img/planet1_left.png,1,Community 2,NA,TRUE,f,f,NA,NA,NA,1,6,"13,10,11,9,12,5,6,8,15,1,3,4,14,7,2"
14717,commdev-image-keyboard-response,745,1417847,learnblock2,null,img/planet15_right.png,15,Community 2,NA,FALSE,null,j,NA,NA,NA,1,6,"13,10,11,9,12,5,6,8,15,1,3,4,14,7,2"
14717,commdev-image-keyboard-response,746,1419099,learnblock2,881.6000001430511,img/planet6_left.png,6,Community 2,NA,TRUE,f,f,NA,NA,NA,1,6,"13,10,11,9,12,5,6,8,15,1,3,4,14,7,2"
14717,commdev-image-keyboard-response,747,1420351,learnblock2,869.0999999046326,img/planet15_left.png,15,Community 2,NA,TRUE,f,f,NA,NA,NA,1,6,"13,10,11,9,12,5,6,8,15,1,3,4,14,7,2"
14717,commdev-image-keyboard-response,748,1421603,learnblock2,null,img/planet5_right.png,5,Community 2,NA,FALSE,null,j,NA,NA,NA,1,6,"13,10,11,9,12,5,6,8,15,1,3,4,14,7,2"
14717,commdev-image-keyboard-response,749,1422854,learnblock2,null,img/planet15_right.png,15,Community 2,NA,FALSE,null,j,NA,NA,NA,1,6,"13,10,11,9,12,5,6,8,15,1,3,4,14,7,2"
14717,commdev-image-keyboard-response,750,1424105,learnblock2,1203.2999999523163,img/planet6_left.png,6,Community 2,NA,TRUE,f,f,NA,NA,NA,1,6,"13,10,11,9,12,5,6,8,15,1,3,4,14,7,2"
14717,commdev-image-keyboard-response,751,1425358,learnblock2,null,img/planet5_right.png,5,Community 2,NA,FALSE,null,j,NA,NA,NA,1,6,"13,10,11,9,12,5,6,8,15,1,3,4,14,7,2"
14717,commdev-image-keyboard-response,752,1426609,learnblock2,null,img/planet15_right.png,15,Community 2,NA,FALSE,null,j,NA,NA,NA,1,6,"13,10,11,9,12,5,6,8,15,1,3,4,14,7,2"
14717,commdev-image-keyboard-response,753,1427860,learnblock2,null,img/planet6_right.png,6,Community 2,NA,FALSE,null,j,NA,NA,NA,1,6,"13,10,11,9,12,5,6,8,15,1,3,4,14,7,2"
14717,commdev-image-keyboard-response,754,1429111,learnblock2,null,img/planet15_right.png,15,Community 2,NA,FALSE,null,j,NA,NA,NA,1,6,"13,10,11,9,12,5,6,8,15,1,3,4,14,7,2"
14717,commdev-image-keyboard-response,755,1430362,learnblock2,null,img/planet5_right.png,5,Community 2,NA,FALSE,null,j,NA,NA,NA,1,6,"13,10,11,9,12,5,6,8,15,1,3,4,14,7,2"
14717,commdev-image-keyboard-response,756,1431614,learnblock2,null,img/planet6_right.png,6,Community 2,NA,FALSE,null,j,NA,NA,NA,1,6,"13,10,11,9,12,5,6,8,15,1,3,4,14,7,2"
14717,commdev-image-keyboard-response,757,1432865,learnblock2,977.8999998569489,img/planet15_left.png,15,Community 2,NA,TRUE,f,f,NA,NA,NA,1,6,"13,10,11,9,12,5,6,8,15,1,3,4,14,7,2"
14717,commdev-image-keyboard-response,758,1434117,learnblock2,null,img/planet6_right.png,6,Community 2,NA,FALSE,null,j,NA,NA,NA,1,6,"13,10,11,9,12,5,6,8,15,1,3,4,14,7,2"
14717,commdev-image-keyboard-response,759,1435369,learnblock2,null,img/planet15_right.png,15,Community 2,NA,FALSE,null,j,NA,NA,NA,1,6,"13,10,11,9,12,5,6,8,15,1,3,4,14,7,2"
14717,commdev-image-keyboard-response,760,1436619,learnblock2,null,img/planet1_right.png,1,Community 2,NA,FALSE,null,j,NA,NA,NA,1,6,"13,10,11,9,12,5,6,8,15,1,3,4,14,7,2"
14717,commdev-image-keyboard-response,761,1437871,learnblock2,null,img/planet6_right.png,6,Community 2,NA,FALSE,null,j,NA,NA,NA,1,6,"13,10,11,9,12,5,6,8,15,1,3,4,14,7,2"
