subject_id,trial_type,trial_index,time_elapsed,block,rt,stimulus,planet,community,response,correct,key_press,learning_correct_response,parse,init_locations,final_locations,browser_interactions,num_comp,planet_map
14402,commdev-instructions,7,28553,NA,3084.60000000149,"<p>In this game, you will be shown a 3x3 grid of patterns.</p> <p>The last one in the bottom right-hand corner, <strong>will be missing:</strong></p> <div style='width: 700px;'><div style='float: top;'><img style='width: 200px;' src='practice/p1_M1.png'></img><p class='small'>You need to select<strong> which of the four possible patterns </strong>along the bottom<strong> fits into the gap:</strong></p></div><div style='float: top;'><img style='width: 300px;' src='practice/p1_T1.png'></img></div><br>",NA,NA,NA,NA,NA,NA,NA,NA,NA,1,6,"5,10,11,1,6,8,9,15,13,7,4,14,2,12,3"
14402,commdev-instructions,8,60643,NA,14246.29999999702,"<p>Try to be as fast and as accurate as you can be.</p> <p>If you cannot solve the puzzle then you should guess - you will not be penalised for an incorrect answer.</p> <p>The task contains a shuffled mix of easy, medium and hard puzzles.</p> <p>You will have <strong>30 seconds</strong> to complete each puzzle.</p><br>",NA,NA,NA,NA,NA,NA,NA,NA,NA,1,6,"5,10,11,1,6,8,9,15,13,7,4,14,2,12,3"
14402,commdev-instructions,15,84044,NA,907.1000000014901,<p><strong>Success!</strong></p> <p>You seem to be getting the hang of this...</p> <p>Let's move on to the real trials.</p><br>,NA,NA,NA,NA,NA,NA,NA,NA,NA,1,6,"5,10,11,1,6,8,9,15,13,7,4,14,2,12,3"
14402,commdev-instructions,123,577655,NA,1677.8999999985099,"<p>In this game, you are a scientist on board a space shuttle. </p><p> On each mission, you will visit planets all across the universe.</p><img src=""img/controlroom.jpg"" width=300vw>",NA,NA,NA,NA,NA,NA,NA,NA,NA,1,6,"5,10,11,1,6,8,9,15,13,7,4,14,2,12,3"
14402,commdev-instructions,124,580204,NA,477,"<p>Here are a few planets you might see:</p><img src=""img/practice1.png"" width=200vw><img src=""img/practice2.png"" width=200vw><img src=""img/practice3.png"" width=200vw>",NA,NA,NA,NA,NA,NA,NA,NA,NA,1,6,"5,10,11,1,6,8,9,15,13,7,4,14,2,12,3"
14402,commdev-instructions,125,588066,NA,459.70000000298023,"<p>Your job as a scientist is to record which direction the winds are moving on each planet.</p><p>There are two types of wind directions:</p><img src=""img/practice1_left.png"" width=200vw><img src=""img/practice1_right.png"" width=200vw>",NA,NA,NA,NA,NA,NA,NA,NA,NA,1,6,"5,10,11,1,6,8,9,15,13,7,4,14,2,12,3"
14402,commdev-instructions,126,593791,NA,844.6000000014901,"<p>If the winds are moving this way, press the letter <strong>F</strong> on the keyboard as fast as you can.</p><img src=""img/leftwind.png"" width=250vw>",NA,NA,NA,NA,NA,NA,NA,NA,NA,1,6,"5,10,11,1,6,8,9,15,13,7,4,14,2,12,3"
14402,commdev-instructions,127,598781,NA,484.3999999985099,"<p>If the winds are moving this way, press the letter <strong>J</strong> on the keyboard as fast as you can.</p><img src=""img/rightwind.png"" width=350vw>",NA,NA,NA,NA,NA,NA,NA,NA,NA,1,6,"5,10,11,1,6,8,9,15,13,7,4,14,2,12,3"
14402,commdev-instructions,128,605295,NA,2088.5,<p>You will have 1 second to respond. Try to respond before the time runs out!,NA,NA,NA,NA,NA,NA,NA,NA,NA,1,6,"5,10,11,1,6,8,9,15,13,7,4,14,2,12,3"
14402,commdev-instructions,129,611263,NA,527.5,<p>The planets you will visit will look different from each other.</p><p>You should respond <strong>only</strong> based on wind direction.,NA,NA,NA,NA,NA,NA,NA,NA,NA,1,6,"5,10,11,1,6,8,9,15,13,7,4,14,2,12,3"
14402,commdev-instructions,130,617856,NA,1420.2999999970198,"<p> Ready to start the practice round? </p><p> Remember, press <strong>F</strong> or <strong>J</strong> depending on the wind direction.<br><img src=""img/categorize_planet_example.png""",NA,NA,NA,NA,NA,NA,NA,NA,NA,1,6,"5,10,11,1,6,8,9,15,13,7,4,14,2,12,3"
14402,commdev-instructions,142,670433,NA,1659.1000000014901,"<p>Great, now try a short practice mission. </p><p> This time, you will have 1 second to respond and you won't know whether you pressed the right or wrong key for each planet.</p>",NA,NA,NA,NA,NA,NA,NA,NA,NA,1,6,"5,10,11,1,6,8,9,15,13,7,4,14,2,12,3"
14402,commdev-image-keyboard-response,143,671800,practice,null,img/practice1_left.png,NA,Number not found in mappings,NA,FALSE,null,f,NA,NA,NA,1,6,"5,10,11,1,6,8,9,15,13,7,4,14,2,12,3"
14402,commdev-image-keyboard-response,144,673057,practice,52.80000000447035,img/practice2_left.png,NA,Number not found in mappings,NA,TRUE,f,f,NA,NA,NA,1,6,"5,10,11,1,6,8,9,15,13,7,4,14,2,12,3"
14402,commdev-image-keyboard-response,145,674313,practice,669.2000000029802,img/practice3_right.png,NA,Number not found in mappings,NA,TRUE,j,j,NA,NA,NA,1,6,"5,10,11,1,6,8,9,15,13,7,4,14,2,12,3"
14402,commdev-image-keyboard-response,146,675572,practice,598.7000000029802,img/practice1_right.png,NA,Number not found in mappings,NA,TRUE,j,j,NA,NA,NA,1,6,"5,10,11,1,6,8,9,15,13,7,4,14,2,12,3"
14402,commdev-image-keyboard-response,147,676823,practice,855.2999999970198,img/practice4_left.png,NA,Number not found in mappings,NA,TRUE,f,f,NA,NA,NA,1,6,"5,10,11,1,6,8,9,15,13,7,4,14,2,12,3"
14402,commdev-image-keyboard-response,148,678082,practice,855.8999999985099,img/practice1_right.png,NA,Number not found in mappings,NA,TRUE,j,j,NA,NA,NA,1,6,"5,10,11,1,6,8,9,15,13,7,4,14,2,12,3"
14402,commdev-image-keyboard-response,149,679338,practice,536,img/practice4_left.png,NA,Number not found in mappings,NA,TRUE,f,f,NA,NA,NA,1,6,"5,10,11,1,6,8,9,15,13,7,4,14,2,12,3"
14402,commdev-image-keyboard-response,150,680591,practice,1076.8999999985099,img/practice3_left.png,NA,Number not found in mappings,NA,TRUE,f,f,NA,NA,NA,1,6,"5,10,11,1,6,8,9,15,13,7,4,14,2,12,3"
14402,commdev-instructions,151,690682,NA,547.8000000044703,"<p>Great job with the practice round.</p><p>During real missions, you won't know whether you pressed the right or wrong key for each planet.</p><p>But between missions, we will tell you how you did overall.</p>",NA,NA,NA,NA,NA,NA,NA,NA,NA,1,6,"5,10,11,1,6,8,9,15,13,7,4,14,2,12,3"
14402,commdev-instructions,152,699637,NA,702.6999999955297,<p>Try your best! You will be paid a bonus based on how many correct responses you make!</p><p>Responses that are too slow will not count toward your bonus.</p>,NA,NA,NA,NA,NA,NA,NA,NA,NA,1,6,"5,10,11,1,6,8,9,15,13,7,4,14,2,12,3"
14402,commdev-instructions,153,706359,NA,525.5,"<p>You are almost ready to start the real game.</p><p> First, we are going to ask you some questions about how the game works.</p>",NA,NA,NA,NA,NA,NA,NA,NA,NA,1,6,"5,10,11,1,6,8,9,15,13,7,4,14,2,12,3"
14402,commdev-instructions,162,783136,NA,1003.1000000014901,"<p> Nice work! It is now time to start the real game.<p></p>You will go on two missions to record wind directions of different planets.<p></p>Each one will take about 5 minutes. You will get to take a break between missions.<p><p> Remember, press <strong>F</strong> or <strong>J</strong> depending on the wind direction. Good luck!<br><img src=""img/categorize_planet_example.png""",NA,NA,NA,NA,NA,NA,NA,NA,NA,1,6,"5,10,11,1,6,8,9,15,13,7,4,14,2,12,3"
14402,commdev-image-keyboard-response,164,787039,learnblock1,null,img/planet1_right.png,1,Community 1,NA,FALSE,null,j,NA,NA,NA,1,6,"5,10,11,1,6,8,9,15,13,7,4,14,2,12,3"
14402,commdev-image-keyboard-response,165,788299,learnblock1,458.29999999701977,img/planet8_left.png,8,Community 2,NA,FALSE,j,f,NA,NA,NA,1,6,"5,10,11,1,6,8,9,15,13,7,4,14,2,12,3"
14402,commdev-image-keyboard-response,166,789554,learnblock1,666.1999999955297,img/planet1_right.png,1,Community 1,NA,TRUE,j,j,NA,NA,NA,1,6,"5,10,11,1,6,8,9,15,13,7,4,14,2,12,3"
14402,commdev-image-keyboard-response,167,790818,learnblock1,862.6999999955297,img/planet8_left.png,8,Community 2,NA,TRUE,f,f,NA,NA,NA,1,6,"5,10,11,1,6,8,9,15,13,7,4,14,2,12,3"
14402,commdev-image-keyboard-response,168,792071,learnblock1,1037.1999999955297,img/planet7_left.png,7,Community 2,NA,TRUE,f,f,NA,NA,NA,1,6,"5,10,11,1,6,8,9,15,13,7,4,14,2,12,3"
14402,commdev-image-keyboard-response,169,793331,learnblock1,762,img/planet13_left.png,13,Community 2,NA,TRUE,f,f,NA,NA,NA,1,6,"5,10,11,1,6,8,9,15,13,7,4,14,2,12,3"
14402,commdev-image-keyboard-response,170,794595,learnblock1,707.6999999955297,img/planet7_right.png,7,Community 2,NA,TRUE,j,j,NA,NA,NA,1,6,"5,10,11,1,6,8,9,15,13,7,4,14,2,12,3"
14402,commdev-image-keyboard-response,171,795854,learnblock1,743.8999999985099,img/planet8_right.png,8,Community 2,NA,TRUE,j,j,NA,NA,NA,1,6,"5,10,11,1,6,8,9,15,13,7,4,14,2,12,3"
14402,commdev-image-keyboard-response,172,797119,learnblock1,735.7000000029802,img/planet7_left.png,7,Community 2,NA,TRUE,f,f,NA,NA,NA,1,6,"5,10,11,1,6,8,9,15,13,7,4,14,2,12,3"
14402,commdev-image-keyboard-response,173,798370,learnblock1,761.5,img/planet15_right.png,15,Community 2,NA,TRUE,j,j,NA,NA,NA,1,6,"5,10,11,1,6,8,9,15,13,7,4,14,2,12,3"
14402,commdev-image-keyboard-response,174,799622,learnblock1,666.7000000029802,img/planet13_right.png,13,Community 2,NA,TRUE,j,j,NA,NA,NA,1,6,"5,10,11,1,6,8,9,15,13,7,4,14,2,12,3"
14402,commdev-image-keyboard-response,175,800885,learnblock1,986.6000000014901,img/planet8_right.png,8,Community 2,NA,TRUE,j,j,NA,NA,NA,1,6,"5,10,11,1,6,8,9,15,13,7,4,14,2,12,3"
14402,commdev-image-keyboard-response,176,802150,learnblock1,769.3999999985099,img/planet13_left.png,13,Community 2,NA,TRUE,f,f,NA,NA,NA,1,6,"5,10,11,1,6,8,9,15,13,7,4,14,2,12,3"
14402,commdev-image-keyboard-response,177,803403,learnblock1,699.5,img/planet15_left.png,15,Community 2,NA,TRUE,f,f,NA,NA,NA,1,6,"5,10,11,1,6,8,9,15,13,7,4,14,2,12,3"
14402,commdev-image-keyboard-response,178,804669,learnblock1,858,img/planet14_left.png,14,Community 3,NA,TRUE,f,f,NA,NA,NA,1,6,"5,10,11,1,6,8,9,15,13,7,4,14,2,12,3"
14402,commdev-image-keyboard-response,179,805930,learnblock1,523.7999999970198,img/planet2_left.png,2,Community 3,NA,TRUE,f,f,NA,NA,NA,1,6,"5,10,11,1,6,8,9,15,13,7,4,14,2,12,3"
14402,commdev-image-keyboard-response,180,807189,learnblock1,636.6999999955297,img/planet3_left.png,3,Community 3,NA,TRUE,f,f,NA,NA,NA,1,6,"5,10,11,1,6,8,9,15,13,7,4,14,2,12,3"
14402,commdev-image-keyboard-response,181,808444,learnblock1,912.7999999970198,img/planet12_left.png,12,Community 3,NA,TRUE,f,f,NA,NA,NA,1,6,"5,10,11,1,6,8,9,15,13,7,4,14,2,12,3"
14402,commdev-image-keyboard-response,182,809700,learnblock1,654.5999999940395,img/planet2_right.png,2,Community 3,NA,TRUE,j,j,NA,NA,NA,1,6,"5,10,11,1,6,8,9,15,13,7,4,14,2,12,3"
14402,commdev-image-keyboard-response,183,810952,learnblock1,811.5,img/planet14_left.png,14,Community 3,NA,TRUE,f,f,NA,NA,NA,1,6,"5,10,11,1,6,8,9,15,13,7,4,14,2,12,3"
14402,commdev-image-keyboard-response,184,812209,learnblock1,801.6000000014901,img/planet2_left.png,2,Community 3,NA,TRUE,f,f,NA,NA,NA,1,6,"5,10,11,1,6,8,9,15,13,7,4,14,2,12,3"
14402,commdev-image-keyboard-response,185,813461,learnblock1,673.6000000014901,img/planet3_left.png,3,Community 3,NA,TRUE,f,f,NA,NA,NA,1,6,"5,10,11,1,6,8,9,15,13,7,4,14,2,12,3"
14402,commdev-image-keyboard-response,186,814713,learnblock1,626.3999999985099,img/planet2_right.png,2,Community 3,NA,TRUE,j,j,NA,NA,NA,1,6,"5,10,11,1,6,8,9,15,13,7,4,14,2,12,3"
14402,commdev-image-keyboard-response,187,815965,learnblock1,645.8999999985099,img/planet14_right.png,14,Community 3,NA,TRUE,j,j,NA,NA,NA,1,6,"5,10,11,1,6,8,9,15,13,7,4,14,2,12,3"
14402,commdev-image-keyboard-response,188,817216,learnblock1,598.0999999940395,img/planet2_left.png,2,Community 3,NA,TRUE,f,f,NA,NA,NA,1,6,"5,10,11,1,6,8,9,15,13,7,4,14,2,12,3"
14402,commdev-image-keyboard-response,189,818468,learnblock1,899.2000000029802,img/planet12_left.png,12,Community 3,NA,TRUE,f,f,NA,NA,NA,1,6,"5,10,11,1,6,8,9,15,13,7,4,14,2,12,3"
14402,commdev-image-keyboard-response,190,819720,learnblock1,645.1000000014901,img/planet3_right.png,3,Community 3,NA,TRUE,j,j,NA,NA,NA,1,6,"5,10,11,1,6,8,9,15,13,7,4,14,2,12,3"
14402,commdev-image-keyboard-response,191,820972,learnblock1,722.3999999985099,img/planet14_left.png,14,Community 3,NA,TRUE,f,f,NA,NA,NA,1,6,"5,10,11,1,6,8,9,15,13,7,4,14,2,12,3"
14402,commdev-image-keyboard-response,192,822223,learnblock1,532.1999999955297,img/planet2_right.png,2,Community 3,NA,TRUE,j,j,NA,NA,NA,1,6,"5,10,11,1,6,8,9,15,13,7,4,14,2,12,3"
14402,commdev-image-keyboard-response,193,823475,learnblock1,712.1000000014901,img/planet12_right.png,12,Community 3,NA,TRUE,j,j,NA,NA,NA,1,6,"5,10,11,1,6,8,9,15,13,7,4,14,2,12,3"
14402,commdev-image-keyboard-response,194,824727,learnblock1,618.1999999955297,img/planet2_left.png,2,Community 3,NA,TRUE,f,f,NA,NA,NA,1,6,"5,10,11,1,6,8,9,15,13,7,4,14,2,12,3"
14402,commdev-image-keyboard-response,195,825981,learnblock1,825,img/planet14_left.png,14,Community 3,NA,TRUE,f,f,NA,NA,NA,1,6,"5,10,11,1,6,8,9,15,13,7,4,14,2,12,3"
14402,commdev-image-keyboard-response,196,827232,learnblock1,709,img/planet15_right.png,15,Community 2,NA,TRUE,j,j,NA,NA,NA,1,6,"5,10,11,1,6,8,9,15,13,7,4,14,2,12,3"
14402,commdev-image-keyboard-response,197,828484,learnblock1,1011,img/planet14_right.png,14,Community 3,NA,TRUE,j,j,NA,NA,NA,1,6,"5,10,11,1,6,8,9,15,13,7,4,14,2,12,3"
14402,commdev-image-keyboard-response,198,829735,learnblock1,606.1000000014901,img/planet15_left.png,15,Community 2,NA,TRUE,f,f,NA,NA,NA,1,6,"5,10,11,1,6,8,9,15,13,7,4,14,2,12,3"
14402,commdev-image-keyboard-response,199,830987,learnblock1,null,img/planet7_left.png,7,Community 2,NA,FALSE,null,f,NA,NA,NA,1,6,"5,10,11,1,6,8,9,15,13,7,4,14,2,12,3"
14402,commdev-image-keyboard-response,200,832239,learnblock1,673.9000000059605,img/planet13_right.png,13,Community 2,NA,TRUE,j,j,NA,NA,NA,1,6,"5,10,11,1,6,8,9,15,13,7,4,14,2,12,3"
14402,commdev-image-keyboard-response,201,833491,learnblock1,701.1000000014901,img/planet15_left.png,15,Community 2,NA,TRUE,f,f,NA,NA,NA,1,6,"5,10,11,1,6,8,9,15,13,7,4,14,2,12,3"
14402,commdev-image-keyboard-response,202,834742,learnblock1,579.5,img/planet13_right.png,13,Community 2,NA,TRUE,j,j,NA,NA,NA,1,6,"5,10,11,1,6,8,9,15,13,7,4,14,2,12,3"
14402,commdev-image-keyboard-response,203,835992,learnblock1,692.5,img/planet9_right.png,9,Community 2,NA,TRUE,j,j,NA,NA,NA,1,6,"5,10,11,1,6,8,9,15,13,7,4,14,2,12,3"
14402,commdev-image-keyboard-response,204,837243,learnblock1,563,img/planet8_left.png,8,Community 2,NA,TRUE,f,f,NA,NA,NA,1,6,"5,10,11,1,6,8,9,15,13,7,4,14,2,12,3"
14402,commdev-image-keyboard-response,205,838495,learnblock1,516.7000000029802,img/planet13_left.png,13,Community 2,NA,TRUE,f,f,NA,NA,NA,1,6,"5,10,11,1,6,8,9,15,13,7,4,14,2,12,3"
14402,commdev-image-keyboard-response,206,839746,learnblock1,884.6000000014901,img/planet15_right.png,15,Community 2,NA,TRUE,j,j,NA,NA,NA,1,6,"5,10,11,1,6,8,9,15,13,7,4,14,2,12,3"
14402,commdev-image-keyboard-response,207,840998,learnblock1,658.5,img/planet13_right.png,13,Community 2,NA,TRUE,j,j,NA,NA,NA,1,6,"5,10,11,1,6,8,9,15,13,7,4,14,2,12,3"
14402,commdev-image-keyboard-response,208,842249,learnblock1,687.2999999970198,img/planet7_left.png,7,Community 2,NA,TRUE,f,f,NA,NA,NA,1,6,"5,10,11,1,6,8,9,15,13,7,4,14,2,12,3"
14402,commdev-image-keyboard-response,209,843500,learnblock1,622.6000000014901,img/planet9_left.png,9,Community 2,NA,TRUE,f,f,NA,NA,NA,1,6,"5,10,11,1,6,8,9,15,13,7,4,14,2,12,3"
14402,commdev-image-keyboard-response,210,844753,learnblock1,783.5999999940395,img/planet8_left.png,8,Community 2,NA,TRUE,f,f,NA,NA,NA,1,6,"5,10,11,1,6,8,9,15,13,7,4,14,2,12,3"
14402,commdev-image-keyboard-response,211,846004,learnblock1,594.3999999985099,img/planet7_left.png,7,Community 2,NA,TRUE,f,f,NA,NA,NA,1,6,"5,10,11,1,6,8,9,15,13,7,4,14,2,12,3"
14402,commdev-image-keyboard-response,212,847264,learnblock1,558.2999999970198,img/planet15_left.png,15,Community 2,NA,TRUE,f,f,NA,NA,NA,1,6,"5,10,11,1,6,8,9,15,13,7,4,14,2,12,3"
14402,commdev-image-keyboard-response,213,848515,learnblock1,907.8000000044703,img/planet7_right.png,7,Community 2,NA,TRUE,j,j,NA,NA,NA,1,6,"5,10,11,1,6,8,9,15,13,7,4,14,2,12,3"
14402,commdev-image-keyboard-response,214,849766,learnblock1,522.5,img/planet9_right.png,9,Community 2,NA,TRUE,j,j,NA,NA,NA,1,6,"5,10,11,1,6,8,9,15,13,7,4,14,2,12,3"
14402,commdev-image-keyboard-response,215,851017,learnblock1,691.3000000044703,img/planet15_right.png,15,Community 2,NA,TRUE,j,j,NA,NA,NA,1,6,"5,10,11,1,6,8,9,15,13,7,4,14,2,12,3"
14402,commdev-image-keyboard-response,216,852268,learnblock1,767.2000000029802,img/planet14_left.png,14,Community 3,NA,TRUE,f,f,NA,NA,NA,1,6,"5,10,11,1,6,8,9,15,13,7,4,14,2,12,3"
14402,commdev-image-keyboard-response,217,853520,learnblock1,852.3999999985099,img/planet15_left.png,15,Community 2,NA,TRUE,f,f,NA,NA,NA,1,6,"5,10,11,1,6,8,9,15,13,7,4,14,2,12,3"
14402,commdev-image-keyboard-response,218,854772,learnblock1,655,img/planet7_right.png,7,Community 2,NA,TRUE,j,j,NA,NA,NA,1,6,"5,10,11,1,6,8,9,15,13,7,4,14,2,12,3"
14402,commdev-image-keyboard-response,219,856023,learnblock1,654.5999999940395,img/planet13_left.png,13,Community 2,NA,TRUE,f,f,NA,NA,NA,1,6,"5,10,11,1,6,8,9,15,13,7,4,14,2,12,3"
14402,commdev-image-keyboard-response,220,857275,learnblock1,795.8999999985099,img/planet8_left.png,8,Community 2,NA,TRUE,f,f,NA,NA,NA,1,6,"5,10,11,1,6,8,9,15,13,7,4,14,2,12,3"
14402,commdev-image-keyboard-response,221,858526,learnblock1,776.8999999985099,img/planet7_right.png,7,Community 2,NA,TRUE,j,j,NA,NA,NA,1,6,"5,10,11,1,6,8,9,15,13,7,4,14,2,12,3"
14402,commdev-image-keyboard-response,222,859778,learnblock1,721.6000000014901,img/planet8_right.png,8,Community 2,NA,TRUE,j,j,NA,NA,NA,1,6,"5,10,11,1,6,8,9,15,13,7,4,14,2,12,3"
14402,commdev-image-keyboard-response,223,861029,learnblock1,572.1000000014901,img/planet13_left.png,13,Community 2,NA,TRUE,f,f,NA,NA,NA,1,6,"5,10,11,1,6,8,9,15,13,7,4,14,2,12,3"
14402,commdev-image-keyboard-response,224,862281,learnblock1,722.2999999970198,img/planet9_left.png,9,Community 2,NA,TRUE,f,f,NA,NA,NA,1,6,"5,10,11,1,6,8,9,15,13,7,4,14,2,12,3"
14402,commdev-image-keyboard-response,225,863534,learnblock1,704.1000000014901,img/planet13_right.png,13,Community 2,NA,TRUE,j,j,NA,NA,NA,1,6,"5,10,11,1,6,8,9,15,13,7,4,14,2,12,3"
14402,commdev-image-keyboard-response,226,864784,learnblock1,694,img/planet9_left.png,9,Community 2,NA,TRUE,f,f,NA,NA,NA,1,6,"5,10,11,1,6,8,9,15,13,7,4,14,2,12,3"
14402,commdev-image-keyboard-response,227,866035,learnblock1,827,img/planet13_right.png,13,Community 2,NA,TRUE,j,j,NA,NA,NA,1,6,"5,10,11,1,6,8,9,15,13,7,4,14,2,12,3"
14402,commdev-image-keyboard-response,228,867286,learnblock1,725,img/planet9_left.png,9,Community 2,NA,TRUE,f,f,NA,NA,NA,1,6,"5,10,11,1,6,8,9,15,13,7,4,14,2,12,3"
14402,commdev-image-keyboard-response,229,868546,learnblock1,565,img/planet7_right.png,7,Community 2,NA,TRUE,j,j,NA,NA,NA,1,6,"5,10,11,1,6,8,9,15,13,7,4,14,2,12,3"
14402,commdev-image-keyboard-response,230,869798,learnblock1,481.8999999985099,img/planet9_right.png,9,Community 2,NA,TRUE,j,j,NA,NA,NA,1,6,"5,10,11,1,6,8,9,15,13,7,4,14,2,12,3"
14402,commdev-image-keyboard-response,231,871049,learnblock1,643.3999999985099,img/planet13_left.png,13,Community 2,NA,TRUE,f,f,NA,NA,NA,1,6,"5,10,11,1,6,8,9,15,13,7,4,14,2,12,3"
14402,commdev-image-keyboard-response,232,872301,learnblock1,745.8999999985099,img/planet9_left.png,9,Community 2,NA,TRUE,f,f,NA,NA,NA,1,6,"5,10,11,1,6,8,9,15,13,7,4,14,2,12,3"
14402,commdev-image-keyboard-response,233,873563,learnblock1,681.6000000014901,img/planet13_right.png,13,Community 2,NA,TRUE,j,j,NA,NA,NA,1,6,"5,10,11,1,6,8,9,15,13,7,4,14,2,12,3"
14402,commdev-image-keyboard-response,234,874814,learnblock1,614.1000000014901,img/planet15_right.png,15,Community 2,NA,TRUE,j,j,NA,NA,NA,1,6,"5,10,11,1,6,8,9,15,13,7,4,14,2,12,3"
14402,commdev-image-keyboard-response,235,876065,learnblock1,785.6000000014901,img/planet14_left.png,14,Community 3,NA,TRUE,f,f,NA,NA,NA,1,6,"5,10,11,1,6,8,9,15,13,7,4,14,2,12,3"
14402,commdev-image-keyboard-response,236,877317,learnblock1,719.7999999970198,img/planet12_right.png,12,Community 3,NA,TRUE,j,j,NA,NA,NA,1,6,"5,10,11,1,6,8,9,15,13,7,4,14,2,12,3"
14402,commdev-image-keyboard-response,237,878568,learnblock1,926.7999999970198,img/planet14_left.png,14,Community 3,NA,TRUE,f,f,NA,NA,NA,1,6,"5,10,11,1,6,8,9,15,13,7,4,14,2,12,3"
14402,commdev-image-keyboard-response,238,879819,learnblock1,1012.8999999985099,img/planet3_left.png,3,Community 3,NA,TRUE,f,f,NA,NA,NA,1,6,"5,10,11,1,6,8,9,15,13,7,4,14,2,12,3"
14402,commdev-image-keyboard-response,239,881071,learnblock1,666.2000000029802,img/planet2_right.png,2,Community 3,NA,TRUE,j,j,NA,NA,NA,1,6,"5,10,11,1,6,8,9,15,13,7,4,14,2,12,3"
14402,commdev-image-keyboard-response,240,882321,learnblock1,677.3000000044703,img/planet3_left.png,3,Community 3,NA,TRUE,f,f,NA,NA,NA,1,6,"5,10,11,1,6,8,9,15,13,7,4,14,2,12,3"
14402,commdev-image-keyboard-response,241,883574,learnblock1,563.7999999970198,img/planet14_right.png,14,Community 3,NA,TRUE,j,j,NA,NA,NA,1,6,"5,10,11,1,6,8,9,15,13,7,4,14,2,12,3"
14402,commdev-image-keyboard-response,242,884824,learnblock1,696.3000000044703,img/planet2_right.png,2,Community 3,NA,TRUE,j,j,NA,NA,NA,1,6,"5,10,11,1,6,8,9,15,13,7,4,14,2,12,3"
14402,commdev-image-keyboard-response,243,886076,learnblock1,584.7000000029802,img/planet3_right.png,3,Community 3,NA,TRUE,j,j,NA,NA,NA,1,6,"5,10,11,1,6,8,9,15,13,7,4,14,2,12,3"
14402,commdev-image-keyboard-response,244,887327,learnblock1,595.2000000029802,img/planet4_left.png,4,Community 3,NA,TRUE,f,f,NA,NA,NA,1,6,"5,10,11,1,6,8,9,15,13,7,4,14,2,12,3"
14402,commdev-image-keyboard-response,245,888578,learnblock1,748.2999999970198,img/planet6_left.png,6,Community 1,NA,TRUE,f,f,NA,NA,NA,1,6,"5,10,11,1,6,8,9,15,13,7,4,14,2,12,3"
14402,commdev-image-keyboard-response,246,889830,learnblock1,578.6000000014901,img/planet4_right.png,4,Community 3,NA,TRUE,j,j,NA,NA,NA,1,6,"5,10,11,1,6,8,9,15,13,7,4,14,2,12,3"
14402,commdev-image-keyboard-response,247,891081,learnblock1,486,img/planet12_right.png,12,Community 3,NA,TRUE,j,j,NA,NA,NA,1,6,"5,10,11,1,6,8,9,15,13,7,4,14,2,12,3"
14402,commdev-image-keyboard-response,248,892331,learnblock1,724.5,img/planet2_left.png,2,Community 3,NA,TRUE,f,f,NA,NA,NA,1,6,"5,10,11,1,6,8,9,15,13,7,4,14,2,12,3"
14402,commdev-image-keyboard-response,249,893583,learnblock1,941.5,img/planet3_left.png,3,Community 3,NA,TRUE,f,f,NA,NA,NA,1,6,"5,10,11,1,6,8,9,15,13,7,4,14,2,12,3"
14402,commdev-image-keyboard-response,250,894835,learnblock1,631.5,img/planet12_right.png,12,Community 3,NA,TRUE,j,j,NA,NA,NA,1,6,"5,10,11,1,6,8,9,15,13,7,4,14,2,12,3"
14402,commdev-image-keyboard-response,251,896086,learnblock1,756.1000000014901,img/planet4_left.png,4,Community 3,NA,TRUE,f,f,NA,NA,NA,1,6,"5,10,11,1,6,8,9,15,13,7,4,14,2,12,3"
14402,commdev-image-keyboard-response,252,897337,learnblock1,616.8000000044703,img/planet2_left.png,2,Community 3,NA,TRUE,f,f,NA,NA,NA,1,6,"5,10,11,1,6,8,9,15,13,7,4,14,2,12,3"
14402,commdev-image-keyboard-response,253,898589,learnblock1,1184.5,img/planet14_left.png,14,Community 3,NA,TRUE,f,f,NA,NA,NA,1,6,"5,10,11,1,6,8,9,15,13,7,4,14,2,12,3"
14402,commdev-image-keyboard-response,254,899845,learnblock1,790.1000000014901,img/planet15_left.png,15,Community 2,NA,TRUE,f,f,NA,NA,NA,1,6,"5,10,11,1,6,8,9,15,13,7,4,14,2,12,3"
14402,commdev-image-keyboard-response,255,901096,learnblock1,591,img/planet7_right.png,7,Community 2,NA,TRUE,j,j,NA,NA,NA,1,6,"5,10,11,1,6,8,9,15,13,7,4,14,2,12,3"
14402,commdev-image-keyboard-response,256,902347,learnblock1,null,img/planet9_right.png,9,Community 2,NA,FALSE,null,j,NA,NA,NA,1,6,"5,10,11,1,6,8,9,15,13,7,4,14,2,12,3"
14402,commdev-image-keyboard-response,257,903598,learnblock1,141.39999999850988,img/planet15_left.png,15,Community 2,NA,FALSE,j,f,NA,NA,NA,1,6,"5,10,11,1,6,8,9,15,13,7,4,14,2,12,3"
14402,commdev-image-keyboard-response,258,904850,learnblock1,680.5,img/planet14_right.png,14,Community 3,NA,TRUE,j,j,NA,NA,NA,1,6,"5,10,11,1,6,8,9,15,13,7,4,14,2,12,3"
14402,commdev-image-keyboard-response,259,906101,learnblock1,644,img/planet3_right.png,3,Community 3,NA,TRUE,j,j,NA,NA,NA,1,6,"5,10,11,1,6,8,9,15,13,7,4,14,2,12,3"
14402,commdev-image-keyboard-response,260,907359,learnblock1,681.1000000014901,img/planet14_right.png,14,Community 3,NA,TRUE,j,j,NA,NA,NA,1,6,"5,10,11,1,6,8,9,15,13,7,4,14,2,12,3"
14402,commdev-image-keyboard-response,261,908619,learnblock1,723.8999999985099,img/planet3_left.png,3,Community 3,NA,TRUE,f,f,NA,NA,NA,1,6,"5,10,11,1,6,8,9,15,13,7,4,14,2,12,3"
14402,commdev-image-keyboard-response,262,909870,learnblock1,867.3999999985099,img/planet14_left.png,14,Community 3,NA,TRUE,f,f,NA,NA,NA,1,6,"5,10,11,1,6,8,9,15,13,7,4,14,2,12,3"
14402,commdev-image-keyboard-response,263,911123,learnblock1,932.8999999985099,img/planet3_left.png,3,Community 3,NA,TRUE,f,f,NA,NA,NA,1,6,"5,10,11,1,6,8,9,15,13,7,4,14,2,12,3"
14402,commdev-image-keyboard-response,264,912374,learnblock1,840.5,img/planet2_right.png,2,Community 3,NA,TRUE,j,j,NA,NA,NA,1,6,"5,10,11,1,6,8,9,15,13,7,4,14,2,12,3"
14402,commdev-image-keyboard-response,265,913638,learnblock1,896.2999999970198,img/planet4_right.png,4,Community 3,NA,TRUE,j,j,NA,NA,NA,1,6,"5,10,11,1,6,8,9,15,13,7,4,14,2,12,3"
14402,commdev-image-keyboard-response,266,914890,learnblock1,771.5,img/planet6_right.png,6,Community 1,NA,TRUE,j,j,NA,NA,NA,1,6,"5,10,11,1,6,8,9,15,13,7,4,14,2,12,3"
14402,commdev-image-keyboard-response,267,916141,learnblock1,593.7000000029802,img/planet10_left.png,10,Community 1,NA,FALSE,j,f,NA,NA,NA,1,6,"5,10,11,1,6,8,9,15,13,7,4,14,2,12,3"
14402,commdev-image-keyboard-response,268,917392,learnblock1,null,img/planet6_left.png,6,Community 1,NA,FALSE,null,f,NA,NA,NA,1,6,"5,10,11,1,6,8,9,15,13,7,4,14,2,12,3"
14402,commdev-image-keyboard-response,269,918643,learnblock1,190.5,img/planet4_left.png,4,Community 3,NA,TRUE,f,f,NA,NA,NA,1,6,"5,10,11,1,6,8,9,15,13,7,4,14,2,12,3"
14402,commdev-image-keyboard-response,270,919895,learnblock1,926.2000000029802,img/planet12_right.png,12,Community 3,NA,TRUE,j,j,NA,NA,NA,1,6,"5,10,11,1,6,8,9,15,13,7,4,14,2,12,3"
14402,commdev-image-keyboard-response,271,921147,learnblock1,664.5,img/planet4_left.png,4,Community 3,NA,TRUE,f,f,NA,NA,NA,1,6,"5,10,11,1,6,8,9,15,13,7,4,14,2,12,3"
14402,commdev-image-keyboard-response,272,922398,learnblock1,872.3000000044703,img/planet6_left.png,6,Community 1,NA,TRUE,f,f,NA,NA,NA,1,6,"5,10,11,1,6,8,9,15,13,7,4,14,2,12,3"
14402,commdev-image-keyboard-response,273,923649,learnblock1,827.1000000014901,img/planet5_right.png,5,Community 1,NA,TRUE,j,j,NA,NA,NA,1,6,"5,10,11,1,6,8,9,15,13,7,4,14,2,12,3"
14402,commdev-image-keyboard-response,274,924901,learnblock1,697.7999999970198,img/planet11_left.png,11,Community 1,NA,TRUE,f,f,NA,NA,NA,1,6,"5,10,11,1,6,8,9,15,13,7,4,14,2,12,3"
14402,commdev-image-keyboard-response,275,926152,learnblock1,593.5,img/planet10_left.png,10,Community 1,NA,TRUE,f,f,NA,NA,NA,1,6,"5,10,11,1,6,8,9,15,13,7,4,14,2,12,3"
14402,commdev-image-keyboard-response,276,927404,learnblock1,559.3999999985099,img/planet6_right.png,6,Community 1,NA,TRUE,j,j,NA,NA,NA,1,6,"5,10,11,1,6,8,9,15,13,7,4,14,2,12,3"
14402,commdev-image-keyboard-response,277,928655,learnblock1,653.5999999940395,img/planet10_left.png,10,Community 1,NA,TRUE,f,f,NA,NA,NA,1,6,"5,10,11,1,6,8,9,15,13,7,4,14,2,12,3"
14402,commdev-image-keyboard-response,278,929906,learnblock1,560.2999999970198,img/planet1_right.png,1,Community 1,NA,TRUE,j,j,NA,NA,NA,1,6,"5,10,11,1,6,8,9,15,13,7,4,14,2,12,3"
14402,commdev-image-keyboard-response,279,931158,learnblock1,598.8999999985099,img/planet11_left.png,11,Community 1,NA,TRUE,f,f,NA,NA,NA,1,6,"5,10,11,1,6,8,9,15,13,7,4,14,2,12,3"
14402,commdev-image-keyboard-response,280,932417,learnblock1,515.1000000014901,img/planet10_right.png,10,Community 1,NA,TRUE,j,j,NA,NA,NA,1,6,"5,10,11,1,6,8,9,15,13,7,4,14,2,12,3"
14402,commdev-image-keyboard-response,281,933668,learnblock1,479.3999999985099,img/planet1_left.png,1,Community 1,NA,TRUE,f,f,NA,NA,NA,1,6,"5,10,11,1,6,8,9,15,13,7,4,14,2,12,3"
14402,commdev-image-keyboard-response,282,934920,learnblock1,593.7000000029802,img/planet10_right.png,10,Community 1,NA,TRUE,j,j,NA,NA,NA,1,6,"5,10,11,1,6,8,9,15,13,7,4,14,2,12,3"
14402,commdev-image-keyboard-response,283,936171,learnblock1,482.5,img/planet1_left.png,1,Community 1,NA,TRUE,f,f,NA,NA,NA,1,6,"5,10,11,1,6,8,9,15,13,7,4,14,2,12,3"
14402,commdev-image-keyboard-response,284,937422,learnblock1,680.1000000014901,img/planet5_left.png,5,Community 1,NA,TRUE,f,f,NA,NA,NA,1,6,"5,10,11,1,6,8,9,15,13,7,4,14,2,12,3"
14402,commdev-image-keyboard-response,285,938674,learnblock1,503.1000000014901,img/planet10_left.png,10,Community 1,NA,TRUE,f,f,NA,NA,NA,1,6,"5,10,11,1,6,8,9,15,13,7,4,14,2,12,3"
14402,commdev-image-keyboard-response,286,939925,learnblock1,682.8999999985099,img/planet6_right.png,6,Community 1,NA,TRUE,j,j,NA,NA,NA,1,6,"5,10,11,1,6,8,9,15,13,7,4,14,2,12,3"
14402,commdev-image-keyboard-response,287,941177,learnblock1,618,img/planet5_right.png,5,Community 1,NA,TRUE,j,j,NA,NA,NA,1,6,"5,10,11,1,6,8,9,15,13,7,4,14,2,12,3"
14402,commdev-image-keyboard-response,288,942428,learnblock1,627.6000000014901,img/planet1_left.png,1,Community 1,NA,TRUE,f,f,NA,NA,NA,1,6,"5,10,11,1,6,8,9,15,13,7,4,14,2,12,3"
14402,commdev-image-keyboard-response,289,943679,learnblock1,742.5,img/planet11_right.png,11,Community 1,NA,TRUE,j,j,NA,NA,NA,1,6,"5,10,11,1,6,8,9,15,13,7,4,14,2,12,3"
14402,commdev-image-keyboard-response,290,944930,learnblock1,686.8999999985099,img/planet1_left.png,1,Community 1,NA,TRUE,f,f,NA,NA,NA,1,6,"5,10,11,1,6,8,9,15,13,7,4,14,2,12,3"
14402,commdev-image-keyboard-response,291,946182,learnblock1,602.8999999985099,img/planet11_right.png,11,Community 1,NA,TRUE,j,j,NA,NA,NA,1,6,"5,10,11,1,6,8,9,15,13,7,4,14,2,12,3"
14402,commdev-image-keyboard-response,292,947442,learnblock1,620.3999999985099,img/planet6_left.png,6,Community 1,NA,TRUE,f,f,NA,NA,NA,1,6,"5,10,11,1,6,8,9,15,13,7,4,14,2,12,3"
14402,commdev-image-keyboard-response,293,948693,learnblock1,679.3999999985099,img/planet4_left.png,4,Community 3,NA,TRUE,f,f,NA,NA,NA,1,6,"5,10,11,1,6,8,9,15,13,7,4,14,2,12,3"
14402,commdev-image-keyboard-response,294,949944,learnblock1,652.3999999985099,img/planet12_left.png,12,Community 3,NA,TRUE,f,f,NA,NA,NA,1,6,"5,10,11,1,6,8,9,15,13,7,4,14,2,12,3"
14402,commdev-image-keyboard-response,295,951195,learnblock1,530.2999999970198,img/planet4_right.png,4,Community 3,NA,FALSE,f,j,NA,NA,NA,1,6,"5,10,11,1,6,8,9,15,13,7,4,14,2,12,3"
14402,commdev-image-keyboard-response,296,952446,learnblock1,683.2000000029802,img/planet3_left.png,3,Community 3,NA,TRUE,f,f,NA,NA,NA,1,6,"5,10,11,1,6,8,9,15,13,7,4,14,2,12,3"
14402,commdev-image-keyboard-response,297,953698,learnblock1,542.5,img/planet12_right.png,12,Community 3,NA,TRUE,j,j,NA,NA,NA,1,6,"5,10,11,1,6,8,9,15,13,7,4,14,2,12,3"
14402,commdev-image-keyboard-response,298,954949,learnblock1,853.6000000014901,img/planet4_left.png,4,Community 3,NA,TRUE,f,f,NA,NA,NA,1,6,"5,10,11,1,6,8,9,15,13,7,4,14,2,12,3"
14402,commdev-image-keyboard-response,299,956207,learnblock1,913.8000000044703,img/planet12_left.png,12,Community 3,NA,TRUE,f,f,NA,NA,NA,1,6,"5,10,11,1,6,8,9,15,13,7,4,14,2,12,3"
14402,commdev-image-keyboard-response,300,957459,learnblock1,558.1000000014901,img/planet2_right.png,2,Community 3,NA,TRUE,j,j,NA,NA,NA,1,6,"5,10,11,1,6,8,9,15,13,7,4,14,2,12,3"
14402,commdev-image-keyboard-response,301,958710,learnblock1,645.1000000014901,img/planet3_left.png,3,Community 3,NA,TRUE,f,f,NA,NA,NA,1,6,"5,10,11,1,6,8,9,15,13,7,4,14,2,12,3"
14402,commdev-image-keyboard-response,302,959961,learnblock1,609,img/planet2_right.png,2,Community 3,NA,TRUE,j,j,NA,NA,NA,1,6,"5,10,11,1,6,8,9,15,13,7,4,14,2,12,3"
14402,commdev-image-keyboard-response,303,961213,learnblock1,686.5,img/planet12_right.png,12,Community 3,NA,TRUE,j,j,NA,NA,NA,1,6,"5,10,11,1,6,8,9,15,13,7,4,14,2,12,3"
14402,commdev-image-keyboard-response,304,962464,learnblock1,641.1000000014901,img/planet2_left.png,2,Community 3,NA,TRUE,f,f,NA,NA,NA,1,6,"5,10,11,1,6,8,9,15,13,7,4,14,2,12,3"
14402,commdev-image-keyboard-response,305,963715,learnblock1,754.2999999970198,img/planet3_left.png,3,Community 3,NA,TRUE,f,f,NA,NA,NA,1,6,"5,10,11,1,6,8,9,15,13,7,4,14,2,12,3"
14402,commdev-image-keyboard-response,306,964966,learnblock1,616.1000000014901,img/planet14_right.png,14,Community 3,NA,TRUE,j,j,NA,NA,NA,1,6,"5,10,11,1,6,8,9,15,13,7,4,14,2,12,3"
14402,commdev-image-keyboard-response,307,966218,learnblock1,596.0999999940395,img/planet12_right.png,12,Community 3,NA,TRUE,j,j,NA,NA,NA,1,6,"5,10,11,1,6,8,9,15,13,7,4,14,2,12,3"
14402,commdev-image-keyboard-response,308,967470,learnblock1,681.6999999955297,img/planet2_right.png,2,Community 3,NA,TRUE,j,j,NA,NA,NA,1,6,"5,10,11,1,6,8,9,15,13,7,4,14,2,12,3"
14402,commdev-image-keyboard-response,309,968721,learnblock1,712.1999999955297,img/planet12_left.png,12,Community 3,NA,TRUE,f,f,NA,NA,NA,1,6,"5,10,11,1,6,8,9,15,13,7,4,14,2,12,3"
14402,commdev-image-keyboard-response,310,969973,learnblock1,682.7000000029802,img/planet2_left.png,2,Community 3,NA,TRUE,f,f,NA,NA,NA,1,6,"5,10,11,1,6,8,9,15,13,7,4,14,2,12,3"
14402,commdev-image-keyboard-response,311,971224,learnblock1,691.6000000014901,img/planet4_left.png,4,Community 3,NA,TRUE,f,f,NA,NA,NA,1,6,"5,10,11,1,6,8,9,15,13,7,4,14,2,12,3"
14402,commdev-image-keyboard-response,312,972475,learnblock1,825.8999999985099,img/planet2_right.png,2,Community 3,NA,TRUE,j,j,NA,NA,NA,1,6,"5,10,11,1,6,8,9,15,13,7,4,14,2,12,3"
14402,commdev-image-keyboard-response,313,973726,learnblock1,572.6000000014901,img/planet12_right.png,12,Community 3,NA,TRUE,j,j,NA,NA,NA,1,6,"5,10,11,1,6,8,9,15,13,7,4,14,2,12,3"
14402,commdev-image-keyboard-response,314,974978,learnblock1,405.8999999985099,img/planet2_right.png,2,Community 3,NA,TRUE,j,j,NA,NA,NA,1,6,"5,10,11,1,6,8,9,15,13,7,4,14,2,12,3"
14402,commdev-image-keyboard-response,315,976229,learnblock1,330,img/planet3_left.png,3,Community 3,NA,FALSE,j,f,NA,NA,NA,1,6,"5,10,11,1,6,8,9,15,13,7,4,14,2,12,3"
14402,commdev-image-keyboard-response,316,977493,learnblock1,614.2999999970198,img/planet2_left.png,2,Community 3,NA,TRUE,f,f,NA,NA,NA,1,6,"5,10,11,1,6,8,9,15,13,7,4,14,2,12,3"
14402,commdev-image-keyboard-response,317,978745,learnblock1,611.7999999970198,img/planet3_left.png,3,Community 3,NA,TRUE,f,f,NA,NA,NA,1,6,"5,10,11,1,6,8,9,15,13,7,4,14,2,12,3"
14402,commdev-image-keyboard-response,318,979996,learnblock1,894.6000000014901,img/planet12_left.png,12,Community 3,NA,TRUE,f,f,NA,NA,NA,1,6,"5,10,11,1,6,8,9,15,13,7,4,14,2,12,3"
14402,commdev-image-keyboard-response,319,981248,learnblock1,670.8999999985099,img/planet14_right.png,14,Community 3,NA,TRUE,j,j,NA,NA,NA,1,6,"5,10,11,1,6,8,9,15,13,7,4,14,2,12,3"
14402,commdev-image-keyboard-response,320,982500,learnblock1,735.7999999970198,img/planet15_left.png,15,Community 2,NA,TRUE,f,f,NA,NA,NA,1,6,"5,10,11,1,6,8,9,15,13,7,4,14,2,12,3"
14402,commdev-image-keyboard-response,321,983751,learnblock1,1151.3999999985099,img/planet7_left.png,7,Community 2,NA,TRUE,f,f,NA,NA,NA,1,6,"5,10,11,1,6,8,9,15,13,7,4,14,2,12,3"
14402,commdev-image-keyboard-response,322,985003,learnblock1,785.3999999985099,img/planet8_right.png,8,Community 2,NA,TRUE,j,j,NA,NA,NA,1,6,"5,10,11,1,6,8,9,15,13,7,4,14,2,12,3"
14402,commdev-image-keyboard-response,323,986254,learnblock1,758.5999999940395,img/planet7_left.png,7,Community 2,NA,TRUE,f,f,NA,NA,NA,1,6,"5,10,11,1,6,8,9,15,13,7,4,14,2,12,3"
14402,commdev-image-keyboard-response,324,987506,learnblock1,636.2000000029802,img/planet8_left.png,8,Community 2,NA,TRUE,f,f,NA,NA,NA,1,6,"5,10,11,1,6,8,9,15,13,7,4,14,2,12,3"
14402,commdev-image-keyboard-response,325,988757,learnblock1,808,img/planet1_right.png,1,Community 1,NA,TRUE,j,j,NA,NA,NA,1,6,"5,10,11,1,6,8,9,15,13,7,4,14,2,12,3"
14402,commdev-image-keyboard-response,326,990009,learnblock1,600.5999999940395,img/planet10_left.png,10,Community 1,NA,TRUE,f,f,NA,NA,NA,1,6,"5,10,11,1,6,8,9,15,13,7,4,14,2,12,3"
14402,commdev-image-keyboard-response,327,991260,learnblock1,572.5,img/planet1_right.png,1,Community 1,NA,TRUE,j,j,NA,NA,NA,1,6,"5,10,11,1,6,8,9,15,13,7,4,14,2,12,3"
14402,commdev-image-keyboard-response,328,992511,learnblock1,725.4000000059605,img/planet8_left.png,8,Community 2,NA,TRUE,f,f,NA,NA,NA,1,6,"5,10,11,1,6,8,9,15,13,7,4,14,2,12,3"
14402,commdev-image-keyboard-response,329,993771,learnblock1,849.3999999985099,img/planet9_left.png,9,Community 2,NA,TRUE,f,f,NA,NA,NA,1,6,"5,10,11,1,6,8,9,15,13,7,4,14,2,12,3"
14402,commdev-image-keyboard-response,330,995022,learnblock1,671.3999999985099,img/planet8_right.png,8,Community 2,NA,TRUE,j,j,NA,NA,NA,1,6,"5,10,11,1,6,8,9,15,13,7,4,14,2,12,3"
14402,commdev-image-keyboard-response,331,996273,learnblock1,786.1000000014901,img/planet9_right.png,9,Community 2,NA,TRUE,j,j,NA,NA,NA,1,6,"5,10,11,1,6,8,9,15,13,7,4,14,2,12,3"
14402,commdev-image-keyboard-response,332,997525,learnblock1,532.5999999940395,img/planet8_left.png,8,Community 2,NA,TRUE,f,f,NA,NA,NA,1,6,"5,10,11,1,6,8,9,15,13,7,4,14,2,12,3"
14402,commdev-image-keyboard-response,333,998776,learnblock1,1041.7999999970198,img/planet7_left.png,7,Community 2,NA,TRUE,f,f,NA,NA,NA,1,6,"5,10,11,1,6,8,9,15,13,7,4,14,2,12,3"
14402,commdev-image-keyboard-response,334,1000027,learnblock1,731.1000000014901,img/planet9_right.png,9,Community 2,NA,TRUE,j,j,NA,NA,NA,1,6,"5,10,11,1,6,8,9,15,13,7,4,14,2,12,3"
14402,commdev-image-keyboard-response,335,1001278,learnblock1,771.2000000029802,img/planet7_right.png,7,Community 2,NA,FALSE,f,j,NA,NA,NA,1,6,"5,10,11,1,6,8,9,15,13,7,4,14,2,12,3"
14402,commdev-image-keyboard-response,336,1002530,learnblock1,697.1000000014901,img/planet9_left.png,9,Community 2,NA,TRUE,f,f,NA,NA,NA,1,6,"5,10,11,1,6,8,9,15,13,7,4,14,2,12,3"
14402,commdev-image-keyboard-response,337,1003781,learnblock1,762,img/planet15_right.png,15,Community 2,NA,TRUE,j,j,NA,NA,NA,1,6,"5,10,11,1,6,8,9,15,13,7,4,14,2,12,3"
14402,commdev-image-keyboard-response,338,1005032,learnblock1,1036.0999999940395,img/planet14_right.png,14,Community 3,NA,TRUE,j,j,NA,NA,NA,1,6,"5,10,11,1,6,8,9,15,13,7,4,14,2,12,3"
14402,commdev-image-keyboard-response,339,1006284,learnblock1,850.1999999955297,img/planet3_left.png,3,Community 3,NA,TRUE,f,f,NA,NA,NA,1,6,"5,10,11,1,6,8,9,15,13,7,4,14,2,12,3"
14402,commdev-image-keyboard-response,340,1007535,learnblock1,745.1000000014901,img/planet14_right.png,14,Community 3,NA,TRUE,j,j,NA,NA,NA,1,6,"5,10,11,1,6,8,9,15,13,7,4,14,2,12,3"
14402,commdev-image-keyboard-response,341,1008786,learnblock1,1048.3000000044703,img/planet2_right.png,2,Community 3,NA,TRUE,j,j,NA,NA,NA,1,6,"5,10,11,1,6,8,9,15,13,7,4,14,2,12,3"
14402,commdev-image-keyboard-response,342,1010037,learnblock1,917.2999999970198,img/planet14_left.png,14,Community 3,NA,TRUE,f,f,NA,NA,NA,1,6,"5,10,11,1,6,8,9,15,13,7,4,14,2,12,3"
14402,commdev-image-keyboard-response,343,1011289,learnblock1,918.1999999955297,img/planet2_right.png,2,Community 3,NA,TRUE,j,j,NA,NA,NA,1,6,"5,10,11,1,6,8,9,15,13,7,4,14,2,12,3"
14402,commdev-image-keyboard-response,344,1012541,learnblock1,983.6000000014901,img/planet12_left.png,12,Community 3,NA,TRUE,f,f,NA,NA,NA,1,6,"5,10,11,1,6,8,9,15,13,7,4,14,2,12,3"
14402,commdev-image-keyboard-response,345,1013805,learnblock1,926.8999999985099,img/planet4_right.png,4,Community 3,NA,FALSE,f,j,NA,NA,NA,1,6,"5,10,11,1,6,8,9,15,13,7,4,14,2,12,3"
14402,commdev-image-keyboard-response,346,1015056,learnblock1,1139.6000000014901,img/planet2_left.png,2,Community 3,NA,TRUE,f,f,NA,NA,NA,1,6,"5,10,11,1,6,8,9,15,13,7,4,14,2,12,3"
14402,commdev-image-keyboard-response,347,1016307,learnblock1,801.5,img/planet3_right.png,3,Community 3,NA,TRUE,j,j,NA,NA,NA,1,6,"5,10,11,1,6,8,9,15,13,7,4,14,2,12,3"
14402,commdev-image-keyboard-response,348,1017558,learnblock1,587.8999999985099,img/planet4_right.png,4,Community 3,NA,TRUE,j,j,NA,NA,NA,1,6,"5,10,11,1,6,8,9,15,13,7,4,14,2,12,3"
14402,commdev-image-keyboard-response,349,1018810,learnblock1,671.5,img/planet12_right.png,12,Community 3,NA,TRUE,j,j,NA,NA,NA,1,6,"5,10,11,1,6,8,9,15,13,7,4,14,2,12,3"
14402,commdev-image-keyboard-response,350,1020068,learnblock1,1038.1000000014901,img/planet4_right.png,4,Community 3,NA,TRUE,j,j,NA,NA,NA,1,6,"5,10,11,1,6,8,9,15,13,7,4,14,2,12,3"
14402,commdev-image-keyboard-response,351,1021320,learnblock1,831.2000000029802,img/planet6_left.png,6,Community 1,NA,TRUE,f,f,NA,NA,NA,1,6,"5,10,11,1,6,8,9,15,13,7,4,14,2,12,3"
14402,commdev-image-keyboard-response,352,1022571,learnblock1,927.2999999970198,img/planet11_right.png,11,Community 1,NA,TRUE,j,j,NA,NA,NA,1,6,"5,10,11,1,6,8,9,15,13,7,4,14,2,12,3"
14402,commdev-image-keyboard-response,353,1023822,learnblock1,635.5,img/planet6_left.png,6,Community 1,NA,TRUE,f,f,NA,NA,NA,1,6,"5,10,11,1,6,8,9,15,13,7,4,14,2,12,3"
14402,commdev-image-keyboard-response,354,1025073,learnblock1,608.7999999970198,img/planet10_left.png,10,Community 1,NA,TRUE,f,f,NA,NA,NA,1,6,"5,10,11,1,6,8,9,15,13,7,4,14,2,12,3"
14402,commdev-image-keyboard-response,355,1026327,learnblock1,758.1000000014901,img/planet6_left.png,6,Community 1,NA,TRUE,f,f,NA,NA,NA,1,6,"5,10,11,1,6,8,9,15,13,7,4,14,2,12,3"
14402,commdev-image-keyboard-response,356,1027579,learnblock1,671.3999999985099,img/planet10_left.png,10,Community 1,NA,TRUE,f,f,NA,NA,NA,1,6,"5,10,11,1,6,8,9,15,13,7,4,14,2,12,3"
14402,commdev-image-keyboard-response,357,1028830,learnblock1,454.69999999552965,img/planet6_left.png,6,Community 1,NA,TRUE,f,f,NA,NA,NA,1,6,"5,10,11,1,6,8,9,15,13,7,4,14,2,12,3"
14402,commdev-image-keyboard-response,358,1030082,learnblock1,765.3999999985099,img/planet11_left.png,11,Community 1,NA,TRUE,f,f,NA,NA,NA,1,6,"5,10,11,1,6,8,9,15,13,7,4,14,2,12,3"
14402,commdev-image-keyboard-response,359,1031333,learnblock1,625.6999999955297,img/planet1_left.png,1,Community 1,NA,TRUE,f,f,NA,NA,NA,1,6,"5,10,11,1,6,8,9,15,13,7,4,14,2,12,3"
14402,commdev-image-keyboard-response,360,1032584,learnblock1,674.3999999985099,img/planet11_right.png,11,Community 1,NA,TRUE,j,j,NA,NA,NA,1,6,"5,10,11,1,6,8,9,15,13,7,4,14,2,12,3"
14402,commdev-image-keyboard-response,361,1033842,learnblock1,853.8999999985099,img/planet10_left.png,10,Community 1,NA,TRUE,f,f,NA,NA,NA,1,6,"5,10,11,1,6,8,9,15,13,7,4,14,2,12,3"
14402,commdev-image-keyboard-response,362,1035093,learnblock1,641.2999999970198,img/planet1_right.png,1,Community 1,NA,TRUE,j,j,NA,NA,NA,1,6,"5,10,11,1,6,8,9,15,13,7,4,14,2,12,3"
14402,commdev-image-keyboard-response,363,1036345,learnblock1,887.1999999955297,img/planet11_right.png,11,Community 1,NA,TRUE,j,j,NA,NA,NA,1,6,"5,10,11,1,6,8,9,15,13,7,4,14,2,12,3"
14402,commdev-image-keyboard-response,364,1037596,learnblock1,549.3999999985099,img/planet5_right.png,5,Community 1,NA,TRUE,j,j,NA,NA,NA,1,6,"5,10,11,1,6,8,9,15,13,7,4,14,2,12,3"
14402,commdev-image-keyboard-response,365,1038848,learnblock1,680.7000000029802,img/planet10_right.png,10,Community 1,NA,TRUE,j,j,NA,NA,NA,1,6,"5,10,11,1,6,8,9,15,13,7,4,14,2,12,3"
14402,commdev-image-keyboard-response,366,1040099,learnblock1,681.3999999985099,img/planet5_left.png,5,Community 1,NA,TRUE,f,f,NA,NA,NA,1,6,"5,10,11,1,6,8,9,15,13,7,4,14,2,12,3"
14402,commdev-image-keyboard-response,367,1041358,learnblock1,672.6000000014901,img/planet11_right.png,11,Community 1,NA,TRUE,j,j,NA,NA,NA,1,6,"5,10,11,1,6,8,9,15,13,7,4,14,2,12,3"
14402,commdev-image-keyboard-response,368,1042610,learnblock1,599.7000000029802,img/planet10_right.png,10,Community 1,NA,TRUE,j,j,NA,NA,NA,1,6,"5,10,11,1,6,8,9,15,13,7,4,14,2,12,3"
14402,commdev-image-keyboard-response,369,1043861,learnblock1,637.5,img/planet5_left.png,5,Community 1,NA,TRUE,f,f,NA,NA,NA,1,6,"5,10,11,1,6,8,9,15,13,7,4,14,2,12,3"
14402,commdev-image-keyboard-response,370,1045113,learnblock1,535.1000000014901,img/planet1_right.png,1,Community 1,NA,TRUE,j,j,NA,NA,NA,1,6,"5,10,11,1,6,8,9,15,13,7,4,14,2,12,3"
14402,commdev-image-keyboard-response,371,1046365,learnblock1,534.1999999955297,img/planet8_right.png,8,Community 2,NA,TRUE,j,j,NA,NA,NA,1,6,"5,10,11,1,6,8,9,15,13,7,4,14,2,12,3"
14402,commdev-image-keyboard-response,372,1047617,learnblock1,581.1999999955297,img/planet9_left.png,9,Community 2,NA,TRUE,f,f,NA,NA,NA,1,6,"5,10,11,1,6,8,9,15,13,7,4,14,2,12,3"
14402,commdev-image-keyboard-response,373,1048868,learnblock1,553.1000000014901,img/planet13_left.png,13,Community 2,NA,FALSE,j,f,NA,NA,NA,1,6,"5,10,11,1,6,8,9,15,13,7,4,14,2,12,3"
14402,commdev-image-keyboard-response,374,1050123,learnblock1,702.7000000029802,img/planet15_right.png,15,Community 2,NA,TRUE,j,j,NA,NA,NA,1,6,"5,10,11,1,6,8,9,15,13,7,4,14,2,12,3"
14402,commdev-image-keyboard-response,375,1051375,learnblock1,860.2999999970198,img/planet14_right.png,14,Community 3,NA,TRUE,j,j,NA,NA,NA,1,6,"5,10,11,1,6,8,9,15,13,7,4,14,2,12,3"
14402,commdev-image-keyboard-response,376,1052627,learnblock1,540,img/planet12_right.png,12,Community 3,NA,TRUE,j,j,NA,NA,NA,1,6,"5,10,11,1,6,8,9,15,13,7,4,14,2,12,3"
14402,commdev-image-keyboard-response,377,1053878,learnblock1,775,img/planet2_left.png,2,Community 3,NA,TRUE,f,f,NA,NA,NA,1,6,"5,10,11,1,6,8,9,15,13,7,4,14,2,12,3"
14402,commdev-image-keyboard-response,378,1055130,learnblock1,576.3999999985099,img/planet4_left.png,4,Community 3,NA,TRUE,f,f,NA,NA,NA,1,6,"5,10,11,1,6,8,9,15,13,7,4,14,2,12,3"
14402,commdev-image-keyboard-response,379,1056389,learnblock1,642.6999999955297,img/planet12_right.png,12,Community 3,NA,TRUE,j,j,NA,NA,NA,1,6,"5,10,11,1,6,8,9,15,13,7,4,14,2,12,3"
14402,commdev-image-keyboard-response,380,1057641,learnblock1,533,img/planet2_left.png,2,Community 3,NA,FALSE,j,f,NA,NA,NA,1,6,"5,10,11,1,6,8,9,15,13,7,4,14,2,12,3"
14402,commdev-image-keyboard-response,381,1058893,learnblock1,568.4000000059605,img/planet3_right.png,3,Community 3,NA,TRUE,j,j,NA,NA,NA,1,6,"5,10,11,1,6,8,9,15,13,7,4,14,2,12,3"
14402,commdev-image-keyboard-response,382,1060144,learnblock1,1179.1000000014901,img/planet12_right.png,12,Community 3,NA,TRUE,j,j,NA,NA,NA,1,6,"5,10,11,1,6,8,9,15,13,7,4,14,2,12,3"
14402,commdev-image-keyboard-response,383,1061396,learnblock1,625.1000000014901,img/planet4_left.png,4,Community 3,NA,TRUE,f,f,NA,NA,NA,1,6,"5,10,11,1,6,8,9,15,13,7,4,14,2,12,3"
14402,commdev-image-keyboard-response,384,1062647,learnblock1,636,img/planet6_right.png,6,Community 1,NA,TRUE,j,j,NA,NA,NA,1,6,"5,10,11,1,6,8,9,15,13,7,4,14,2,12,3"
14402,commdev-image-keyboard-response,385,1063899,learnblock1,625.3000000044703,img/planet5_left.png,5,Community 1,NA,TRUE,f,f,NA,NA,NA,1,6,"5,10,11,1,6,8,9,15,13,7,4,14,2,12,3"
14402,commdev-image-keyboard-response,386,1065151,learnblock1,615.3999999985099,img/planet10_right.png,10,Community 1,NA,TRUE,j,j,NA,NA,NA,1,6,"5,10,11,1,6,8,9,15,13,7,4,14,2,12,3"
14402,commdev-image-keyboard-response,387,1066402,learnblock1,700.5,img/planet6_left.png,6,Community 1,NA,TRUE,f,f,NA,NA,NA,1,6,"5,10,11,1,6,8,9,15,13,7,4,14,2,12,3"
14402,commdev-image-keyboard-response,388,1067654,learnblock1,1002.3000000044703,img/planet5_right.png,5,Community 1,NA,TRUE,j,j,NA,NA,NA,1,6,"5,10,11,1,6,8,9,15,13,7,4,14,2,12,3"
14402,commdev-image-keyboard-response,389,1068904,learnblock1,672.7000000029802,img/planet10_left.png,10,Community 1,NA,TRUE,f,f,NA,NA,NA,1,6,"5,10,11,1,6,8,9,15,13,7,4,14,2,12,3"
14402,commdev-image-keyboard-response,390,1070156,learnblock1,646.1000000014901,img/planet1_right.png,1,Community 1,NA,TRUE,j,j,NA,NA,NA,1,6,"5,10,11,1,6,8,9,15,13,7,4,14,2,12,3"
14402,commdev-image-keyboard-response,391,1071408,learnblock1,608.2000000029802,img/planet11_left.png,11,Community 1,NA,TRUE,f,f,NA,NA,NA,1,6,"5,10,11,1,6,8,9,15,13,7,4,14,2,12,3"
14402,commdev-image-keyboard-response,392,1072660,learnblock1,560.3999999985099,img/planet5_right.png,5,Community 1,NA,TRUE,j,j,NA,NA,NA,1,6,"5,10,11,1,6,8,9,15,13,7,4,14,2,12,3"
14402,commdev-image-keyboard-response,393,1073912,learnblock1,861.3999999985099,img/planet11_right.png,11,Community 1,NA,TRUE,j,j,NA,NA,NA,1,6,"5,10,11,1,6,8,9,15,13,7,4,14,2,12,3"
14402,commdev-image-keyboard-response,394,1075164,learnblock1,671.7999999970198,img/planet5_left.png,5,Community 1,NA,TRUE,f,f,NA,NA,NA,1,6,"5,10,11,1,6,8,9,15,13,7,4,14,2,12,3"
14402,commdev-image-keyboard-response,395,1076428,learnblock1,548.7999999970198,img/planet11_right.png,11,Community 1,NA,TRUE,j,j,NA,NA,NA,1,6,"5,10,11,1,6,8,9,15,13,7,4,14,2,12,3"
14402,commdev-image-keyboard-response,396,1077680,learnblock1,640.7000000029802,img/planet1_left.png,1,Community 1,NA,TRUE,f,f,NA,NA,NA,1,6,"5,10,11,1,6,8,9,15,13,7,4,14,2,12,3"
14402,commdev-image-keyboard-response,397,1078931,learnblock1,1064.1000000014901,img/planet11_left.png,11,Community 1,NA,TRUE,f,f,NA,NA,NA,1,6,"5,10,11,1,6,8,9,15,13,7,4,14,2,12,3"
14402,commdev-image-keyboard-response,398,1080183,learnblock1,989.3000000044703,img/planet1_left.png,1,Community 1,NA,TRUE,f,f,NA,NA,NA,1,6,"5,10,11,1,6,8,9,15,13,7,4,14,2,12,3"
14402,commdev-image-keyboard-response,399,1081444,learnblock1,801.1000000014901,img/planet10_right.png,10,Community 1,NA,TRUE,j,j,NA,NA,NA,1,6,"5,10,11,1,6,8,9,15,13,7,4,14,2,12,3"
14402,commdev-image-keyboard-response,400,1082695,learnblock1,612.5,img/planet6_left.png,6,Community 1,NA,TRUE,f,f,NA,NA,NA,1,6,"5,10,11,1,6,8,9,15,13,7,4,14,2,12,3"
14402,commdev-image-keyboard-response,401,1083946,learnblock1,745.8000000044703,img/planet10_left.png,10,Community 1,NA,TRUE,f,f,NA,NA,NA,1,6,"5,10,11,1,6,8,9,15,13,7,4,14,2,12,3"
14402,commdev-image-keyboard-response,402,1085197,learnblock1,699.1000000014901,img/planet11_right.png,11,Community 1,NA,TRUE,j,j,NA,NA,NA,1,6,"5,10,11,1,6,8,9,15,13,7,4,14,2,12,3"
14402,commdev-image-keyboard-response,403,1086448,learnblock1,889,img/planet6_right.png,6,Community 1,NA,TRUE,j,j,NA,NA,NA,1,6,"5,10,11,1,6,8,9,15,13,7,4,14,2,12,3"
14402,commdev-image-keyboard-response,404,1087700,learnblock1,841.5,img/planet5_left.png,5,Community 1,NA,TRUE,f,f,NA,NA,NA,1,6,"5,10,11,1,6,8,9,15,13,7,4,14,2,12,3"
14402,commdev-image-keyboard-response,405,1088952,learnblock1,673.1000000014901,img/planet11_right.png,11,Community 1,NA,TRUE,j,j,NA,NA,NA,1,6,"5,10,11,1,6,8,9,15,13,7,4,14,2,12,3"
14402,commdev-image-keyboard-response,406,1090203,learnblock1,663.6999999955297,img/planet1_left.png,1,Community 1,NA,TRUE,f,f,NA,NA,NA,1,6,"5,10,11,1,6,8,9,15,13,7,4,14,2,12,3"
14402,commdev-image-keyboard-response,407,1091454,learnblock1,570.3999999985099,img/planet8_right.png,8,Community 2,NA,TRUE,j,j,NA,NA,NA,1,6,"5,10,11,1,6,8,9,15,13,7,4,14,2,12,3"
14402,commdev-image-keyboard-response,408,1092705,learnblock1,524.2999999970198,img/planet1_left.png,1,Community 1,NA,TRUE,f,f,NA,NA,NA,1,6,"5,10,11,1,6,8,9,15,13,7,4,14,2,12,3"
14402,commdev-image-keyboard-response,409,1093957,learnblock1,544,img/planet5_left.png,5,Community 1,NA,TRUE,f,f,NA,NA,NA,1,6,"5,10,11,1,6,8,9,15,13,7,4,14,2,12,3"
14402,commdev-image-keyboard-response,410,1095208,learnblock1,554.7999999970198,img/planet11_left.png,11,Community 1,NA,TRUE,f,f,NA,NA,NA,1,6,"5,10,11,1,6,8,9,15,13,7,4,14,2,12,3"
14402,commdev-image-keyboard-response,411,1096460,learnblock1,997.9000000059605,img/planet6_left.png,6,Community 1,NA,FALSE,j,f,NA,NA,NA,1,6,"5,10,11,1,6,8,9,15,13,7,4,14,2,12,3"
14402,commdev-image-keyboard-response,412,1097711,learnblock1,1195.5,img/planet5_left.png,5,Community 1,NA,TRUE,f,f,NA,NA,NA,1,6,"5,10,11,1,6,8,9,15,13,7,4,14,2,12,3"
14402,commdev-image-keyboard-response,413,1098973,learnblock1,650.5,img/planet6_right.png,6,Community 1,NA,TRUE,j,j,NA,NA,NA,1,6,"5,10,11,1,6,8,9,15,13,7,4,14,2,12,3"
14402,commdev-image-keyboard-response,414,1100224,learnblock1,602,img/planet5_right.png,5,Community 1,NA,TRUE,j,j,NA,NA,NA,1,6,"5,10,11,1,6,8,9,15,13,7,4,14,2,12,3"
14402,commdev-image-keyboard-response,415,1101476,learnblock1,727.1000000014901,img/planet11_right.png,11,Community 1,NA,TRUE,j,j,NA,NA,NA,1,6,"5,10,11,1,6,8,9,15,13,7,4,14,2,12,3"
14402,commdev-image-keyboard-response,416,1102728,learnblock1,794.3999999985099,img/planet6_right.png,6,Community 1,NA,TRUE,j,j,NA,NA,NA,1,6,"5,10,11,1,6,8,9,15,13,7,4,14,2,12,3"
14402,commdev-image-keyboard-response,417,1103979,learnblock1,576,img/planet10_left.png,10,Community 1,NA,TRUE,f,f,NA,NA,NA,1,6,"5,10,11,1,6,8,9,15,13,7,4,14,2,12,3"
14402,commdev-image-keyboard-response,418,1105230,learnblock1,644.2000000029802,img/planet6_right.png,6,Community 1,NA,TRUE,j,j,NA,NA,NA,1,6,"5,10,11,1,6,8,9,15,13,7,4,14,2,12,3"
14402,commdev-image-keyboard-response,419,1106481,learnblock1,551,img/planet5_right.png,5,Community 1,NA,TRUE,j,j,NA,NA,NA,1,6,"5,10,11,1,6,8,9,15,13,7,4,14,2,12,3"
14402,commdev-image-keyboard-response,420,1107732,learnblock1,524.6999999955297,img/planet1_left.png,1,Community 1,NA,TRUE,f,f,NA,NA,NA,1,6,"5,10,11,1,6,8,9,15,13,7,4,14,2,12,3"
14402,commdev-image-keyboard-response,421,1108983,learnblock1,638.6999999955297,img/planet11_right.png,11,Community 1,NA,TRUE,j,j,NA,NA,NA,1,6,"5,10,11,1,6,8,9,15,13,7,4,14,2,12,3"
14402,commdev-image-keyboard-response,422,1110234,learnblock1,666.7999999970198,img/planet1_left.png,1,Community 1,NA,TRUE,f,f,NA,NA,NA,1,6,"5,10,11,1,6,8,9,15,13,7,4,14,2,12,3"
14402,commdev-image-keyboard-response,423,1111486,learnblock1,800.7999999970198,img/planet8_right.png,8,Community 2,NA,TRUE,j,j,NA,NA,NA,1,6,"5,10,11,1,6,8,9,15,13,7,4,14,2,12,3"
14402,commdev-image-keyboard-response,424,1112737,learnblock1,679.2000000029802,img/planet7_right.png,7,Community 2,NA,TRUE,j,j,NA,NA,NA,1,6,"5,10,11,1,6,8,9,15,13,7,4,14,2,12,3"
14402,commdev-image-keyboard-response,425,1113988,learnblock1,642.5,img/planet8_left.png,8,Community 2,NA,TRUE,f,f,NA,NA,NA,1,6,"5,10,11,1,6,8,9,15,13,7,4,14,2,12,3"
14402,commdev-image-keyboard-response,426,1115240,learnblock1,615,img/planet7_left.png,7,Community 2,NA,TRUE,f,f,NA,NA,NA,1,6,"5,10,11,1,6,8,9,15,13,7,4,14,2,12,3"
14402,commdev-image-keyboard-response,427,1116491,learnblock1,561.2999999970198,img/planet13_left.png,13,Community 2,NA,TRUE,f,f,NA,NA,NA,1,6,"5,10,11,1,6,8,9,15,13,7,4,14,2,12,3"
14402,commdev-image-keyboard-response,428,1117742,learnblock1,381.6000000014901,img/planet9_left.png,9,Community 2,NA,TRUE,f,f,NA,NA,NA,1,6,"5,10,11,1,6,8,9,15,13,7,4,14,2,12,3"
14402,commdev-image-keyboard-response,429,1118993,learnblock1,346.1000000014901,img/planet8_left.png,8,Community 2,NA,TRUE,f,f,NA,NA,NA,1,6,"5,10,11,1,6,8,9,15,13,7,4,14,2,12,3"
14402,commdev-image-keyboard-response,430,1120244,learnblock1,337.6000000014901,img/planet1_left.png,1,Community 1,NA,TRUE,f,f,NA,NA,NA,1,6,"5,10,11,1,6,8,9,15,13,7,4,14,2,12,3"
14402,commdev-image-keyboard-response,431,1121495,learnblock1,508.6000000014901,img/planet8_left.png,8,Community 2,NA,FALSE,j,f,NA,NA,NA,1,6,"5,10,11,1,6,8,9,15,13,7,4,14,2,12,3"
14402,commdev-image-keyboard-response,432,1122761,learnblock1,717.5,img/planet9_left.png,9,Community 2,NA,TRUE,f,f,NA,NA,NA,1,6,"5,10,11,1,6,8,9,15,13,7,4,14,2,12,3"
14402,commdev-image-keyboard-response,433,1124013,learnblock1,1051.3999999985099,img/planet7_left.png,7,Community 2,NA,FALSE,j,f,NA,NA,NA,1,6,"5,10,11,1,6,8,9,15,13,7,4,14,2,12,3"
14402,commdev-image-keyboard-response,434,1125265,learnblock1,910.4000000059605,img/planet15_left.png,15,Community 2,NA,TRUE,f,f,NA,NA,NA,1,6,"5,10,11,1,6,8,9,15,13,7,4,14,2,12,3"
14402,commdev-image-keyboard-response,435,1126516,learnblock1,657.8999999985099,img/planet13_right.png,13,Community 2,NA,TRUE,j,j,NA,NA,NA,1,6,"5,10,11,1,6,8,9,15,13,7,4,14,2,12,3"
14402,commdev-image-keyboard-response,436,1127766,learnblock1,1073.7000000029802,img/planet7_right.png,7,Community 2,NA,TRUE,j,j,NA,NA,NA,1,6,"5,10,11,1,6,8,9,15,13,7,4,14,2,12,3"
14402,commdev-image-keyboard-response,437,1129018,learnblock1,729.8000000044703,img/planet9_right.png,9,Community 2,NA,TRUE,j,j,NA,NA,NA,1,6,"5,10,11,1,6,8,9,15,13,7,4,14,2,12,3"
14402,commdev-image-keyboard-response,438,1130269,learnblock1,485.29999999701977,img/planet15_left.png,15,Community 2,NA,FALSE,j,f,NA,NA,NA,1,6,"5,10,11,1,6,8,9,15,13,7,4,14,2,12,3"
14402,commdev-image-keyboard-response,439,1131520,learnblock1,657.3000000044703,img/planet7_right.png,7,Community 2,NA,TRUE,j,j,NA,NA,NA,1,6,"5,10,11,1,6,8,9,15,13,7,4,14,2,12,3"
14402,commdev-image-keyboard-response,440,1132771,learnblock1,844.5,img/planet13_right.png,13,Community 2,NA,TRUE,j,j,NA,NA,NA,1,6,"5,10,11,1,6,8,9,15,13,7,4,14,2,12,3"
14402,commdev-image-keyboard-response,441,1134022,learnblock1,733,img/planet8_left.png,8,Community 2,NA,TRUE,f,f,NA,NA,NA,1,6,"5,10,11,1,6,8,9,15,13,7,4,14,2,12,3"
14402,commdev-image-keyboard-response,442,1135273,learnblock1,743.6000000014901,img/planet13_right.png,13,Community 2,NA,TRUE,j,j,NA,NA,NA,1,6,"5,10,11,1,6,8,9,15,13,7,4,14,2,12,3"
14402,commdev-image-keyboard-response,443,1136524,learnblock1,650.1000000014901,img/planet7_left.png,7,Community 2,NA,TRUE,f,f,NA,NA,NA,1,6,"5,10,11,1,6,8,9,15,13,7,4,14,2,12,3"
14402,commdev-image-keyboard-response,444,1137775,learnblock1,727.1000000014901,img/planet9_right.png,9,Community 2,NA,TRUE,j,j,NA,NA,NA,1,6,"5,10,11,1,6,8,9,15,13,7,4,14,2,12,3"
14402,commdev-image-keyboard-response,445,1139026,learnblock1,796.1999999955297,img/planet13_right.png,13,Community 2,NA,FALSE,f,j,NA,NA,NA,1,6,"5,10,11,1,6,8,9,15,13,7,4,14,2,12,3"
14402,commdev-image-keyboard-response,446,1140277,learnblock1,872.1000000014901,img/planet15_left.png,15,Community 2,NA,TRUE,f,f,NA,NA,NA,1,6,"5,10,11,1,6,8,9,15,13,7,4,14,2,12,3"
14402,commdev-image-keyboard-response,447,1141529,learnblock1,771,img/planet14_right.png,14,Community 3,NA,FALSE,f,j,NA,NA,NA,1,6,"5,10,11,1,6,8,9,15,13,7,4,14,2,12,3"
14402,commdev-image-keyboard-response,448,1142781,learnblock1,677.5999999940395,img/planet15_left.png,15,Community 2,NA,TRUE,f,f,NA,NA,NA,1,6,"5,10,11,1,6,8,9,15,13,7,4,14,2,12,3"
14402,commdev-image-keyboard-response,449,1144032,learnblock1,604.1999999955297,img/planet9_right.png,9,Community 2,NA,TRUE,j,j,NA,NA,NA,1,6,"5,10,11,1,6,8,9,15,13,7,4,14,2,12,3"
14402,commdev-image-keyboard-response,450,1145283,learnblock1,767.2000000029802,img/planet13_right.png,13,Community 2,NA,TRUE,j,j,NA,NA,NA,1,6,"5,10,11,1,6,8,9,15,13,7,4,14,2,12,3"
14402,commdev-image-keyboard-response,451,1146535,learnblock1,579.5,img/planet9_right.png,9,Community 2,NA,TRUE,j,j,NA,NA,NA,1,6,"5,10,11,1,6,8,9,15,13,7,4,14,2,12,3"
14402,commdev-image-keyboard-response,452,1147799,learnblock1,647.1000000014901,img/planet8_right.png,8,Community 2,NA,TRUE,j,j,NA,NA,NA,1,6,"5,10,11,1,6,8,9,15,13,7,4,14,2,12,3"
14402,commdev-image-keyboard-response,453,1149051,learnblock1,643,img/planet13_left.png,13,Community 2,NA,TRUE,f,f,NA,NA,NA,1,6,"5,10,11,1,6,8,9,15,13,7,4,14,2,12,3"
14402,commdev-image-keyboard-response,454,1150303,learnblock1,671.2999999970198,img/planet9_left.png,9,Community 2,NA,TRUE,f,f,NA,NA,NA,1,6,"5,10,11,1,6,8,9,15,13,7,4,14,2,12,3"
14402,commdev-image-keyboard-response,455,1151555,learnblock1,547.7999999970198,img/planet8_right.png,8,Community 2,NA,TRUE,j,j,NA,NA,NA,1,6,"5,10,11,1,6,8,9,15,13,7,4,14,2,12,3"
14402,commdev-image-keyboard-response,456,1152806,learnblock1,680.1999999955297,img/planet1_left.png,1,Community 1,NA,TRUE,f,f,NA,NA,NA,1,6,"5,10,11,1,6,8,9,15,13,7,4,14,2,12,3"
14402,commdev-image-keyboard-response,457,1154057,learnblock1,660.6000000014901,img/planet8_left.png,8,Community 2,NA,TRUE,f,f,NA,NA,NA,1,6,"5,10,11,1,6,8,9,15,13,7,4,14,2,12,3"
14402,commdev-image-keyboard-response,458,1155309,learnblock1,615.2999999970198,img/planet1_left.png,1,Community 1,NA,TRUE,f,f,NA,NA,NA,1,6,"5,10,11,1,6,8,9,15,13,7,4,14,2,12,3"
14402,commdev-image-keyboard-response,459,1156560,learnblock1,540.6999999955297,img/planet8_right.png,8,Community 2,NA,TRUE,j,j,NA,NA,NA,1,6,"5,10,11,1,6,8,9,15,13,7,4,14,2,12,3"
14402,commdev-image-keyboard-response,460,1157812,learnblock1,295.5,img/planet9_right.png,9,Community 2,NA,TRUE,j,j,NA,NA,NA,1,6,"5,10,11,1,6,8,9,15,13,7,4,14,2,12,3"
14402,commdev-image-keyboard-response,461,1159063,learnblock1,297.29999999701977,img/planet8_right.png,8,Community 2,NA,TRUE,j,j,NA,NA,NA,1,6,"5,10,11,1,6,8,9,15,13,7,4,14,2,12,3"
14402,commdev-image-keyboard-response,462,1160315,learnblock1,287.3999999985099,img/planet9_left.png,9,Community 2,NA,FALSE,j,f,NA,NA,NA,1,6,"5,10,11,1,6,8,9,15,13,7,4,14,2,12,3"
14402,commdev-image-keyboard-response,463,1161567,learnblock1,608.2000000029802,img/planet7_right.png,7,Community 2,NA,TRUE,j,j,NA,NA,NA,1,6,"5,10,11,1,6,8,9,15,13,7,4,14,2,12,3"
14402,commdev-image-keyboard-response,467,1286978,learnblock2,694.5,img/planet4_right.png,4,Community 3,NA,TRUE,j,j,NA,NA,NA,1,6,"5,10,11,1,6,8,9,15,13,7,4,14,2,12,3"
14402,commdev-image-keyboard-response,468,1288230,learnblock2,547.6000000014901,img/planet3_right.png,3,Community 3,NA,TRUE,j,j,NA,NA,NA,1,6,"5,10,11,1,6,8,9,15,13,7,4,14,2,12,3"
14402,commdev-image-keyboard-response,469,1289481,learnblock2,453.69999999552965,img/planet2_right.png,2,Community 3,NA,TRUE,j,j,NA,NA,NA,1,6,"5,10,11,1,6,8,9,15,13,7,4,14,2,12,3"
14402,commdev-image-keyboard-response,470,1290734,learnblock2,529.2999999970198,img/planet4_left.png,4,Community 3,NA,TRUE,f,f,NA,NA,NA,1,6,"5,10,11,1,6,8,9,15,13,7,4,14,2,12,3"
14402,commdev-image-keyboard-response,471,1291985,learnblock2,651,img/planet12_left.png,12,Community 3,NA,TRUE,f,f,NA,NA,NA,1,6,"5,10,11,1,6,8,9,15,13,7,4,14,2,12,3"
14402,commdev-image-keyboard-response,472,1293236,learnblock2,530.1999999955297,img/planet3_right.png,3,Community 3,NA,TRUE,j,j,NA,NA,NA,1,6,"5,10,11,1,6,8,9,15,13,7,4,14,2,12,3"
14402,commdev-image-keyboard-response,473,1294487,learnblock2,663.8999999985099,img/planet14_right.png,14,Community 3,NA,TRUE,j,j,NA,NA,NA,1,6,"5,10,11,1,6,8,9,15,13,7,4,14,2,12,3"
14402,commdev-image-keyboard-response,474,1295738,learnblock2,486.29999999701977,img/planet3_right.png,3,Community 3,NA,TRUE,j,j,NA,NA,NA,1,6,"5,10,11,1,6,8,9,15,13,7,4,14,2,12,3"
14402,commdev-image-keyboard-response,475,1296990,learnblock2,619,img/planet12_left.png,12,Community 3,NA,TRUE,f,f,NA,NA,NA,1,6,"5,10,11,1,6,8,9,15,13,7,4,14,2,12,3"
14402,commdev-image-keyboard-response,476,1298242,learnblock2,515.8999999985099,img/planet14_right.png,14,Community 3,NA,TRUE,j,j,NA,NA,NA,1,6,"5,10,11,1,6,8,9,15,13,7,4,14,2,12,3"
14402,commdev-image-keyboard-response,477,1299494,learnblock2,533.3999999985099,img/planet15_left.png,15,Community 2,NA,TRUE,f,f,NA,NA,NA,1,6,"5,10,11,1,6,8,9,15,13,7,4,14,2,12,3"
14402,commdev-image-keyboard-response,478,1300745,learnblock2,525.1000000014901,img/planet9_right.png,9,Community 2,NA,TRUE,j,j,NA,NA,NA,1,6,"5,10,11,1,6,8,9,15,13,7,4,14,2,12,3"
14402,commdev-image-keyboard-response,479,1301996,learnblock2,602.3999999985099,img/planet15_right.png,15,Community 2,NA,TRUE,j,j,NA,NA,NA,1,6,"5,10,11,1,6,8,9,15,13,7,4,14,2,12,3"
14402,commdev-image-keyboard-response,480,1303248,learnblock2,461.3999999985099,img/planet9_right.png,9,Community 2,NA,TRUE,j,j,NA,NA,NA,1,6,"5,10,11,1,6,8,9,15,13,7,4,14,2,12,3"
14402,commdev-image-keyboard-response,481,1304500,learnblock2,555.3000000044703,img/planet13_right.png,13,Community 2,NA,TRUE,j,j,NA,NA,NA,1,6,"5,10,11,1,6,8,9,15,13,7,4,14,2,12,3"
14402,commdev-image-keyboard-response,482,1305751,learnblock2,538.8999999985099,img/planet7_right.png,7,Community 2,NA,TRUE,j,j,NA,NA,NA,1,6,"5,10,11,1,6,8,9,15,13,7,4,14,2,12,3"
14402,commdev-image-keyboard-response,483,1307003,learnblock2,489.70000000298023,img/planet9_right.png,9,Community 2,NA,TRUE,j,j,NA,NA,NA,1,6,"5,10,11,1,6,8,9,15,13,7,4,14,2,12,3"
14402,commdev-image-keyboard-response,484,1308254,learnblock2,490.5,img/planet7_left.png,7,Community 2,NA,FALSE,j,f,NA,NA,NA,1,6,"5,10,11,1,6,8,9,15,13,7,4,14,2,12,3"
14402,commdev-image-keyboard-response,485,1309505,learnblock2,706.7000000029802,img/planet8_left.png,8,Community 2,NA,TRUE,f,f,NA,NA,NA,1,6,"5,10,11,1,6,8,9,15,13,7,4,14,2,12,3"
14402,commdev-image-keyboard-response,486,1310756,learnblock2,633.3999999985099,img/planet7_left.png,7,Community 2,NA,TRUE,f,f,NA,NA,NA,1,6,"5,10,11,1,6,8,9,15,13,7,4,14,2,12,3"
14402,commdev-image-keyboard-response,487,1312007,learnblock2,586.1999999955297,img/planet13_left.png,13,Community 2,NA,TRUE,f,f,NA,NA,NA,1,6,"5,10,11,1,6,8,9,15,13,7,4,14,2,12,3"
14402,commdev-image-keyboard-response,488,1313259,learnblock2,550,img/planet8_right.png,8,Community 2,NA,TRUE,j,j,NA,NA,NA,1,6,"5,10,11,1,6,8,9,15,13,7,4,14,2,12,3"
14402,commdev-image-keyboard-response,489,1314511,learnblock2,447.20000000298023,img/planet13_left.png,13,Community 2,NA,FALSE,j,f,NA,NA,NA,1,6,"5,10,11,1,6,8,9,15,13,7,4,14,2,12,3"
14402,commdev-image-keyboard-response,490,1315761,learnblock2,656.6999999955297,img/planet8_right.png,8,Community 2,NA,TRUE,j,j,NA,NA,NA,1,6,"5,10,11,1,6,8,9,15,13,7,4,14,2,12,3"
14402,commdev-image-keyboard-response,491,1317013,learnblock2,515.5,img/planet13_left.png,13,Community 2,NA,TRUE,f,f,NA,NA,NA,1,6,"5,10,11,1,6,8,9,15,13,7,4,14,2,12,3"
14402,commdev-image-keyboard-response,492,1318264,learnblock2,610.8999999985099,img/planet15_right.png,15,Community 2,NA,TRUE,j,j,NA,NA,NA,1,6,"5,10,11,1,6,8,9,15,13,7,4,14,2,12,3"
14402,commdev-image-keyboard-response,493,1319515,learnblock2,687.7999999970198,img/planet13_right.png,13,Community 2,NA,TRUE,j,j,NA,NA,NA,1,6,"5,10,11,1,6,8,9,15,13,7,4,14,2,12,3"
14402,commdev-image-keyboard-response,494,1320781,learnblock2,557.7000000029802,img/planet9_left.png,9,Community 2,NA,TRUE,f,f,NA,NA,NA,1,6,"5,10,11,1,6,8,9,15,13,7,4,14,2,12,3"
14402,commdev-image-keyboard-response,495,1322033,learnblock2,592.1000000014901,img/planet8_right.png,8,Community 2,NA,TRUE,j,j,NA,NA,NA,1,6,"5,10,11,1,6,8,9,15,13,7,4,14,2,12,3"
14402,commdev-image-keyboard-response,496,1323283,learnblock2,572.3999999985099,img/planet1_right.png,1,Community 1,NA,TRUE,j,j,NA,NA,NA,1,6,"5,10,11,1,6,8,9,15,13,7,4,14,2,12,3"
14402,commdev-image-keyboard-response,497,1324535,learnblock2,593.3999999985099,img/planet8_right.png,8,Community 2,NA,TRUE,j,j,NA,NA,NA,1,6,"5,10,11,1,6,8,9,15,13,7,4,14,2,12,3"
14402,commdev-image-keyboard-response,498,1325786,learnblock2,584.8999999985099,img/planet13_right.png,13,Community 2,NA,TRUE,j,j,NA,NA,NA,1,6,"5,10,11,1,6,8,9,15,13,7,4,14,2,12,3"
14402,commdev-image-keyboard-response,499,1327038,learnblock2,860.6000000014901,img/planet8_left.png,8,Community 2,NA,TRUE,f,f,NA,NA,NA,1,6,"5,10,11,1,6,8,9,15,13,7,4,14,2,12,3"
14402,commdev-image-keyboard-response,500,1328289,learnblock2,577.7000000029802,img/planet13_right.png,13,Community 2,NA,TRUE,j,j,NA,NA,NA,1,6,"5,10,11,1,6,8,9,15,13,7,4,14,2,12,3"
14402,commdev-image-keyboard-response,501,1329541,learnblock2,702.7999999970198,img/planet7_right.png,7,Community 2,NA,TRUE,j,j,NA,NA,NA,1,6,"5,10,11,1,6,8,9,15,13,7,4,14,2,12,3"
14402,commdev-image-keyboard-response,502,1330793,learnblock2,495.3999999985099,img/planet8_right.png,8,Community 2,NA,TRUE,j,j,NA,NA,NA,1,6,"5,10,11,1,6,8,9,15,13,7,4,14,2,12,3"
14402,commdev-image-keyboard-response,503,1332045,learnblock2,551.6999999955297,img/planet1_right.png,1,Community 1,NA,TRUE,j,j,NA,NA,NA,1,6,"5,10,11,1,6,8,9,15,13,7,4,14,2,12,3"
14402,commdev-image-keyboard-response,504,1333295,learnblock2,440.69999999552965,img/planet10_right.png,10,Community 1,NA,TRUE,j,j,NA,NA,NA,1,6,"5,10,11,1,6,8,9,15,13,7,4,14,2,12,3"
14402,commdev-image-keyboard-response,505,1334546,learnblock2,519.5,img/planet1_right.png,1,Community 1,NA,TRUE,j,j,NA,NA,NA,1,6,"5,10,11,1,6,8,9,15,13,7,4,14,2,12,3"
14402,commdev-image-keyboard-response,506,1335798,learnblock2,708.2000000029802,img/planet11_right.png,11,Community 1,NA,TRUE,j,j,NA,NA,NA,1,6,"5,10,11,1,6,8,9,15,13,7,4,14,2,12,3"
14402,commdev-image-keyboard-response,507,1337049,learnblock2,539.3000000044703,img/planet5_right.png,5,Community 1,NA,TRUE,j,j,NA,NA,NA,1,6,"5,10,11,1,6,8,9,15,13,7,4,14,2,12,3"
14402,commdev-image-keyboard-response,508,1338313,learnblock2,654.6000000014901,img/planet1_right.png,1,Community 1,NA,TRUE,j,j,NA,NA,NA,1,6,"5,10,11,1,6,8,9,15,13,7,4,14,2,12,3"
14402,commdev-image-keyboard-response,509,1339564,learnblock2,615.2000000029802,img/planet5_left.png,5,Community 1,NA,TRUE,f,f,NA,NA,NA,1,6,"5,10,11,1,6,8,9,15,13,7,4,14,2,12,3"
14402,commdev-image-keyboard-response,510,1340815,learnblock2,720.3000000044703,img/planet1_left.png,1,Community 1,NA,TRUE,f,f,NA,NA,NA,1,6,"5,10,11,1,6,8,9,15,13,7,4,14,2,12,3"
14402,commdev-image-keyboard-response,511,1342066,learnblock2,655,img/planet10_right.png,10,Community 1,NA,TRUE,j,j,NA,NA,NA,1,6,"5,10,11,1,6,8,9,15,13,7,4,14,2,12,3"
14402,commdev-image-keyboard-response,512,1343317,learnblock2,884.2999999970198,img/planet1_left.png,1,Community 1,NA,TRUE,f,f,NA,NA,NA,1,6,"5,10,11,1,6,8,9,15,13,7,4,14,2,12,3"
14402,commdev-image-keyboard-response,513,1344569,learnblock2,545.3000000044703,img/planet5_right.png,5,Community 1,NA,TRUE,j,j,NA,NA,NA,1,6,"5,10,11,1,6,8,9,15,13,7,4,14,2,12,3"
14402,commdev-image-keyboard-response,514,1345820,learnblock2,622.3999999985099,img/planet6_right.png,6,Community 1,NA,TRUE,j,j,NA,NA,NA,1,6,"5,10,11,1,6,8,9,15,13,7,4,14,2,12,3"
14402,commdev-image-keyboard-response,515,1347072,learnblock2,454.3999999985099,img/planet10_right.png,10,Community 1,NA,TRUE,j,j,NA,NA,NA,1,6,"5,10,11,1,6,8,9,15,13,7,4,14,2,12,3"
14402,commdev-image-keyboard-response,516,1348323,learnblock2,775.7000000029802,img/planet5_left.png,5,Community 1,NA,TRUE,f,f,NA,NA,NA,1,6,"5,10,11,1,6,8,9,15,13,7,4,14,2,12,3"
14402,commdev-image-keyboard-response,517,1349574,learnblock2,673.1000000014901,img/planet1_left.png,1,Community 1,NA,TRUE,f,f,NA,NA,NA,1,6,"5,10,11,1,6,8,9,15,13,7,4,14,2,12,3"
14402,commdev-image-keyboard-response,518,1350826,learnblock2,666.3999999985099,img/planet8_right.png,8,Community 2,NA,TRUE,j,j,NA,NA,NA,1,6,"5,10,11,1,6,8,9,15,13,7,4,14,2,12,3"
14402,commdev-image-keyboard-response,519,1352076,learnblock2,545.5,img/planet13_right.png,13,Community 2,NA,TRUE,j,j,NA,NA,NA,1,6,"5,10,11,1,6,8,9,15,13,7,4,14,2,12,3"
14402,commdev-image-keyboard-response,520,1353327,learnblock2,602.7999999970198,img/planet8_left.png,8,Community 2,NA,TRUE,f,f,NA,NA,NA,1,6,"5,10,11,1,6,8,9,15,13,7,4,14,2,12,3"
14402,commdev-image-keyboard-response,521,1354579,learnblock2,519.6999999955297,img/planet7_right.png,7,Community 2,NA,TRUE,j,j,NA,NA,NA,1,6,"5,10,11,1,6,8,9,15,13,7,4,14,2,12,3"
14402,commdev-image-keyboard-response,522,1355831,learnblock2,266.8999999985099,img/planet13_left.png,13,Community 2,NA,FALSE,j,f,NA,NA,NA,1,6,"5,10,11,1,6,8,9,15,13,7,4,14,2,12,3"
14402,commdev-image-keyboard-response,523,1357082,learnblock2,607,img/planet9_left.png,9,Community 2,NA,TRUE,f,f,NA,NA,NA,1,6,"5,10,11,1,6,8,9,15,13,7,4,14,2,12,3"
14402,commdev-image-keyboard-response,524,1358333,learnblock2,834,img/planet13_right.png,13,Community 2,NA,TRUE,j,j,NA,NA,NA,1,6,"5,10,11,1,6,8,9,15,13,7,4,14,2,12,3"
14402,commdev-image-keyboard-response,525,1359585,learnblock2,676,img/planet7_right.png,7,Community 2,NA,TRUE,j,j,NA,NA,NA,1,6,"5,10,11,1,6,8,9,15,13,7,4,14,2,12,3"
14402,commdev-image-keyboard-response,526,1360836,learnblock2,799.1000000014901,img/planet8_right.png,8,Community 2,NA,TRUE,j,j,NA,NA,NA,1,6,"5,10,11,1,6,8,9,15,13,7,4,14,2,12,3"
14402,commdev-image-keyboard-response,527,1362088,learnblock2,575.1999999955297,img/planet9_right.png,9,Community 2,NA,TRUE,j,j,NA,NA,NA,1,6,"5,10,11,1,6,8,9,15,13,7,4,14,2,12,3"
14402,commdev-image-keyboard-response,528,1363351,learnblock2,792.6000000014901,img/planet15_left.png,15,Community 2,NA,TRUE,f,f,NA,NA,NA,1,6,"5,10,11,1,6,8,9,15,13,7,4,14,2,12,3"
14402,commdev-image-keyboard-response,529,1364602,learnblock2,688.5,img/planet7_left.png,7,Community 2,NA,TRUE,f,f,NA,NA,NA,1,6,"5,10,11,1,6,8,9,15,13,7,4,14,2,12,3"
14402,commdev-image-keyboard-response,530,1365855,learnblock2,643.2000000029802,img/planet8_right.png,8,Community 2,NA,TRUE,j,j,NA,NA,NA,1,6,"5,10,11,1,6,8,9,15,13,7,4,14,2,12,3"
14402,commdev-image-keyboard-response,531,1367106,learnblock2,566.8999999985099,img/planet13_left.png,13,Community 2,NA,TRUE,f,f,NA,NA,NA,1,6,"5,10,11,1,6,8,9,15,13,7,4,14,2,12,3"
14402,commdev-image-keyboard-response,532,1368357,learnblock2,662.8000000044703,img/planet9_left.png,9,Community 2,NA,TRUE,f,f,NA,NA,NA,1,6,"5,10,11,1,6,8,9,15,13,7,4,14,2,12,3"
14402,commdev-image-keyboard-response,533,1369608,learnblock2,683,img/planet8_right.png,8,Community 2,NA,TRUE,j,j,NA,NA,NA,1,6,"5,10,11,1,6,8,9,15,13,7,4,14,2,12,3"
14402,commdev-image-keyboard-response,534,1370861,learnblock2,590.2000000029802,img/planet1_left.png,1,Community 1,NA,TRUE,f,f,NA,NA,NA,1,6,"5,10,11,1,6,8,9,15,13,7,4,14,2,12,3"
14402,commdev-image-keyboard-response,535,1372111,learnblock2,730.1000000014901,img/planet11_left.png,11,Community 1,NA,TRUE,f,f,NA,NA,NA,1,6,"5,10,11,1,6,8,9,15,13,7,4,14,2,12,3"
14402,commdev-image-keyboard-response,536,1373363,learnblock2,629,img/planet5_right.png,5,Community 1,NA,TRUE,j,j,NA,NA,NA,1,6,"5,10,11,1,6,8,9,15,13,7,4,14,2,12,3"
14402,commdev-image-keyboard-response,537,1374615,learnblock2,525.3000000044703,img/planet1_left.png,1,Community 1,NA,TRUE,f,f,NA,NA,NA,1,6,"5,10,11,1,6,8,9,15,13,7,4,14,2,12,3"
14402,commdev-image-keyboard-response,538,1375866,learnblock2,677.5,img/planet8_left.png,8,Community 2,NA,TRUE,f,f,NA,NA,NA,1,6,"5,10,11,1,6,8,9,15,13,7,4,14,2,12,3"
14402,commdev-image-keyboard-response,539,1377118,learnblock2,745.1000000014901,img/planet9_right.png,9,Community 2,NA,TRUE,j,j,NA,NA,NA,1,6,"5,10,11,1,6,8,9,15,13,7,4,14,2,12,3"
14402,commdev-image-keyboard-response,540,1378368,learnblock2,718.5,img/planet7_right.png,7,Community 2,NA,TRUE,j,j,NA,NA,NA,1,6,"5,10,11,1,6,8,9,15,13,7,4,14,2,12,3"
14402,commdev-image-keyboard-response,541,1379620,learnblock2,598.1000000014901,img/planet8_left.png,8,Community 2,NA,TRUE,f,f,NA,NA,NA,1,6,"5,10,11,1,6,8,9,15,13,7,4,14,2,12,3"
14402,commdev-image-keyboard-response,542,1380871,learnblock2,740.7999999970198,img/planet9_left.png,9,Community 2,NA,TRUE,f,f,NA,NA,NA,1,6,"5,10,11,1,6,8,9,15,13,7,4,14,2,12,3"
14402,commdev-image-keyboard-response,543,1382123,learnblock2,838.6999999955297,img/planet8_left.png,8,Community 2,NA,TRUE,f,f,NA,NA,NA,1,6,"5,10,11,1,6,8,9,15,13,7,4,14,2,12,3"
14402,commdev-image-keyboard-response,544,1383375,learnblock2,725,img/planet1_left.png,1,Community 1,NA,TRUE,f,f,NA,NA,NA,1,6,"5,10,11,1,6,8,9,15,13,7,4,14,2,12,3"
14402,commdev-image-keyboard-response,545,1384626,learnblock2,585.8999999985099,img/planet5_left.png,5,Community 1,NA,TRUE,f,f,NA,NA,NA,1,6,"5,10,11,1,6,8,9,15,13,7,4,14,2,12,3"
14402,commdev-image-keyboard-response,546,1385877,learnblock2,549,img/planet10_left.png,10,Community 1,NA,TRUE,f,f,NA,NA,NA,1,6,"5,10,11,1,6,8,9,15,13,7,4,14,2,12,3"
14402,commdev-image-keyboard-response,547,1387128,learnblock2,427.5,img/planet1_right.png,1,Community 1,NA,FALSE,f,j,NA,NA,NA,1,6,"5,10,11,1,6,8,9,15,13,7,4,14,2,12,3"
14402,commdev-image-keyboard-response,548,1388380,learnblock2,542,img/planet8_right.png,8,Community 2,NA,TRUE,j,j,NA,NA,NA,1,6,"5,10,11,1,6,8,9,15,13,7,4,14,2,12,3"
14402,commdev-image-keyboard-response,549,1389631,learnblock2,477.19999999552965,img/planet9_right.png,9,Community 2,NA,TRUE,j,j,NA,NA,NA,1,6,"5,10,11,1,6,8,9,15,13,7,4,14,2,12,3"
14402,commdev-image-keyboard-response,550,1390883,learnblock2,705.8000000044703,img/planet13_left.png,13,Community 2,NA,TRUE,f,f,NA,NA,NA,1,6,"5,10,11,1,6,8,9,15,13,7,4,14,2,12,3"
14402,commdev-image-keyboard-response,551,1392134,learnblock2,961.2000000029802,img/planet9_left.png,9,Community 2,NA,TRUE,f,f,NA,NA,NA,1,6,"5,10,11,1,6,8,9,15,13,7,4,14,2,12,3"
14402,commdev-image-keyboard-response,552,1393385,learnblock2,726.8000000044703,img/planet7_right.png,7,Community 2,NA,TRUE,j,j,NA,NA,NA,1,6,"5,10,11,1,6,8,9,15,13,7,4,14,2,12,3"
14402,commdev-image-keyboard-response,553,1394636,learnblock2,596.6000000014901,img/planet9_right.png,9,Community 2,NA,TRUE,j,j,NA,NA,NA,1,6,"5,10,11,1,6,8,9,15,13,7,4,14,2,12,3"
14402,commdev-image-keyboard-response,554,1395887,learnblock2,739.7000000029802,img/planet7_left.png,7,Community 2,NA,TRUE,f,f,NA,NA,NA,1,6,"5,10,11,1,6,8,9,15,13,7,4,14,2,12,3"
14402,commdev-image-keyboard-response,555,1397138,learnblock2,600.3999999985099,img/planet8_right.png,8,Community 2,NA,TRUE,j,j,NA,NA,NA,1,6,"5,10,11,1,6,8,9,15,13,7,4,14,2,12,3"
14402,commdev-image-keyboard-response,556,1398389,learnblock2,611.6000000014901,img/planet1_right.png,1,Community 1,NA,TRUE,j,j,NA,NA,NA,1,6,"5,10,11,1,6,8,9,15,13,7,4,14,2,12,3"
14402,commdev-image-keyboard-response,557,1399641,learnblock2,631.5,img/planet8_right.png,8,Community 2,NA,TRUE,j,j,NA,NA,NA,1,6,"5,10,11,1,6,8,9,15,13,7,4,14,2,12,3"
14402,commdev-image-keyboard-response,558,1400892,learnblock2,634.1999999955297,img/planet13_left.png,13,Community 2,NA,TRUE,f,f,NA,NA,NA,1,6,"5,10,11,1,6,8,9,15,13,7,4,14,2,12,3"
14402,commdev-image-keyboard-response,559,1402144,learnblock2,558.3999999985099,img/planet9_left.png,9,Community 2,NA,TRUE,f,f,NA,NA,NA,1,6,"5,10,11,1,6,8,9,15,13,7,4,14,2,12,3"
14402,commdev-image-keyboard-response,560,1403395,learnblock2,757.0999999940395,img/planet13_right.png,13,Community 2,NA,TRUE,j,j,NA,NA,NA,1,6,"5,10,11,1,6,8,9,15,13,7,4,14,2,12,3"
14402,commdev-image-keyboard-response,561,1404646,learnblock2,758.6999999955297,img/planet7_left.png,7,Community 2,NA,TRUE,f,f,NA,NA,NA,1,6,"5,10,11,1,6,8,9,15,13,7,4,14,2,12,3"
14402,commdev-image-keyboard-response,562,1405898,learnblock2,768.7000000029802,img/planet8_left.png,8,Community 2,NA,TRUE,f,f,NA,NA,NA,1,6,"5,10,11,1,6,8,9,15,13,7,4,14,2,12,3"
14402,commdev-image-keyboard-response,563,1407150,learnblock2,590.8999999985099,img/planet7_right.png,7,Community 2,NA,TRUE,j,j,NA,NA,NA,1,6,"5,10,11,1,6,8,9,15,13,7,4,14,2,12,3"
14402,commdev-image-keyboard-response,564,1408405,learnblock2,1053.7999999970198,img/planet15_right.png,15,Community 2,NA,TRUE,j,j,NA,NA,NA,1,6,"5,10,11,1,6,8,9,15,13,7,4,14,2,12,3"
14402,commdev-image-keyboard-response,565,1409657,learnblock2,712.8000000044703,img/planet7_left.png,7,Community 2,NA,TRUE,f,f,NA,NA,NA,1,6,"5,10,11,1,6,8,9,15,13,7,4,14,2,12,3"
14402,commdev-image-keyboard-response,566,1410908,learnblock2,751.7000000029802,img/planet9_right.png,9,Community 2,NA,FALSE,f,j,NA,NA,NA,1,6,"5,10,11,1,6,8,9,15,13,7,4,14,2,12,3"
14402,commdev-image-keyboard-response,567,1412160,learnblock2,658.8999999985099,img/planet13_left.png,13,Community 2,NA,TRUE,f,f,NA,NA,NA,1,6,"5,10,11,1,6,8,9,15,13,7,4,14,2,12,3"
14402,commdev-image-keyboard-response,568,1413411,learnblock2,904,img/planet8_left.png,8,Community 2,NA,TRUE,f,f,NA,NA,NA,1,6,"5,10,11,1,6,8,9,15,13,7,4,14,2,12,3"
14402,commdev-image-keyboard-response,569,1414662,learnblock2,680.5,img/planet1_left.png,1,Community 1,NA,TRUE,f,f,NA,NA,NA,1,6,"5,10,11,1,6,8,9,15,13,7,4,14,2,12,3"
14402,commdev-image-keyboard-response,570,1415914,learnblock2,701.3999999985099,img/planet10_right.png,10,Community 1,NA,TRUE,j,j,NA,NA,NA,1,6,"5,10,11,1,6,8,9,15,13,7,4,14,2,12,3"
14402,commdev-image-keyboard-response,571,1417164,learnblock2,673.3999999985099,img/planet5_left.png,5,Community 1,NA,TRUE,f,f,NA,NA,NA,1,6,"5,10,11,1,6,8,9,15,13,7,4,14,2,12,3"
14402,commdev-image-keyboard-response,572,1418416,learnblock2,526.6999999955297,img/planet10_left.png,10,Community 1,NA,TRUE,f,f,NA,NA,NA,1,6,"5,10,11,1,6,8,9,15,13,7,4,14,2,12,3"
14402,commdev-image-keyboard-response,573,1419668,learnblock2,612,img/planet5_left.png,5,Community 1,NA,TRUE,f,f,NA,NA,NA,1,6,"5,10,11,1,6,8,9,15,13,7,4,14,2,12,3"
14402,commdev-image-keyboard-response,574,1420919,learnblock2,887,img/planet1_left.png,1,Community 1,NA,TRUE,f,f,NA,NA,NA,1,6,"5,10,11,1,6,8,9,15,13,7,4,14,2,12,3"
14402,commdev-image-keyboard-response,575,1422170,learnblock2,650.7999999970198,img/planet5_left.png,5,Community 1,NA,TRUE,f,f,NA,NA,NA,1,6,"5,10,11,1,6,8,9,15,13,7,4,14,2,12,3"
14402,commdev-image-keyboard-response,576,1423421,learnblock2,720,img/planet10_left.png,10,Community 1,NA,TRUE,f,f,NA,NA,NA,1,6,"5,10,11,1,6,8,9,15,13,7,4,14,2,12,3"
14402,commdev-image-keyboard-response,577,1424672,learnblock2,553.6999999955297,img/planet5_right.png,5,Community 1,NA,FALSE,f,j,NA,NA,NA,1,6,"5,10,11,1,6,8,9,15,13,7,4,14,2,12,3"
14402,commdev-image-keyboard-response,578,1425923,learnblock2,686.2999999970198,img/planet11_right.png,11,Community 1,NA,TRUE,j,j,NA,NA,NA,1,6,"5,10,11,1,6,8,9,15,13,7,4,14,2,12,3"
14402,commdev-image-keyboard-response,579,1427175,learnblock2,526.8999999985099,img/planet5_right.png,5,Community 1,NA,TRUE,j,j,NA,NA,NA,1,6,"5,10,11,1,6,8,9,15,13,7,4,14,2,12,3"
14402,commdev-image-keyboard-response,580,1428426,learnblock2,null,img/planet6_right.png,6,Community 1,NA,FALSE,null,j,NA,NA,NA,1,6,"5,10,11,1,6,8,9,15,13,7,4,14,2,12,3"
14402,commdev-image-keyboard-response,581,1429677,learnblock2,30.5,img/planet10_left.png,10,Community 1,NA,FALSE,j,f,NA,NA,NA,1,6,"5,10,11,1,6,8,9,15,13,7,4,14,2,12,3"
14402,commdev-image-keyboard-response,582,1430929,learnblock2,568.7999999970198,img/planet11_left.png,11,Community 1,NA,FALSE,j,f,NA,NA,NA,1,6,"5,10,11,1,6,8,9,15,13,7,4,14,2,12,3"
14402,commdev-image-keyboard-response,583,1432180,learnblock2,580.1000000014901,img/planet5_right.png,5,Community 1,NA,TRUE,j,j,NA,NA,NA,1,6,"5,10,11,1,6,8,9,15,13,7,4,14,2,12,3"
14402,commdev-image-keyboard-response,584,1433432,learnblock2,552.6000000014901,img/planet1_right.png,1,Community 1,NA,TRUE,j,j,NA,NA,NA,1,6,"5,10,11,1,6,8,9,15,13,7,4,14,2,12,3"
14402,commdev-image-keyboard-response,585,1434683,learnblock2,873.8999999985099,img/planet8_left.png,8,Community 2,NA,TRUE,f,f,NA,NA,NA,1,6,"5,10,11,1,6,8,9,15,13,7,4,14,2,12,3"
14402,commdev-image-keyboard-response,586,1435934,learnblock2,507.6000000014901,img/planet13_left.png,13,Community 2,NA,TRUE,f,f,NA,NA,NA,1,6,"5,10,11,1,6,8,9,15,13,7,4,14,2,12,3"
14402,commdev-image-keyboard-response,587,1437185,learnblock2,698.3999999985099,img/planet9_left.png,9,Community 2,NA,TRUE,f,f,NA,NA,NA,1,6,"5,10,11,1,6,8,9,15,13,7,4,14,2,12,3"
14402,commdev-image-keyboard-response,588,1438437,learnblock2,860.1999999955297,img/planet7_left.png,7,Community 2,NA,TRUE,f,f,NA,NA,NA,1,6,"5,10,11,1,6,8,9,15,13,7,4,14,2,12,3"
14402,commdev-image-keyboard-response,589,1439688,learnblock2,739.1000000014901,img/planet15_left.png,15,Community 2,NA,TRUE,f,f,NA,NA,NA,1,6,"5,10,11,1,6,8,9,15,13,7,4,14,2,12,3"
14402,commdev-image-keyboard-response,590,1440939,learnblock2,712.2999999970198,img/planet7_right.png,7,Community 2,NA,TRUE,j,j,NA,NA,NA,1,6,"5,10,11,1,6,8,9,15,13,7,4,14,2,12,3"
14402,commdev-image-keyboard-response,591,1442202,learnblock2,723.6999999955297,img/planet8_left.png,8,Community 2,NA,TRUE,f,f,NA,NA,NA,1,6,"5,10,11,1,6,8,9,15,13,7,4,14,2,12,3"
14402,commdev-image-keyboard-response,592,1443453,learnblock2,733.2999999970198,img/planet7_left.png,7,Community 2,NA,TRUE,f,f,NA,NA,NA,1,6,"5,10,11,1,6,8,9,15,13,7,4,14,2,12,3"
14402,commdev-image-keyboard-response,593,1444705,learnblock2,639.6000000014901,img/planet15_left.png,15,Community 2,NA,TRUE,f,f,NA,NA,NA,1,6,"5,10,11,1,6,8,9,15,13,7,4,14,2,12,3"
14402,commdev-image-keyboard-response,594,1445957,learnblock2,642.5,img/planet14_right.png,14,Community 3,NA,TRUE,j,j,NA,NA,NA,1,6,"5,10,11,1,6,8,9,15,13,7,4,14,2,12,3"
14402,commdev-image-keyboard-response,595,1447209,learnblock2,575.8999999985099,img/planet15_right.png,15,Community 2,NA,TRUE,j,j,NA,NA,NA,1,6,"5,10,11,1,6,8,9,15,13,7,4,14,2,12,3"
14402,commdev-image-keyboard-response,596,1448461,learnblock2,651.2000000029802,img/planet9_right.png,9,Community 2,NA,TRUE,j,j,NA,NA,NA,1,6,"5,10,11,1,6,8,9,15,13,7,4,14,2,12,3"
14402,commdev-image-keyboard-response,597,1449712,learnblock2,597,img/planet8_right.png,8,Community 2,NA,TRUE,j,j,NA,NA,NA,1,6,"5,10,11,1,6,8,9,15,13,7,4,14,2,12,3"
14402,commdev-image-keyboard-response,598,1450963,learnblock2,419.1000000014901,img/planet13_right.png,13,Community 2,NA,TRUE,j,j,NA,NA,NA,1,6,"5,10,11,1,6,8,9,15,13,7,4,14,2,12,3"
14402,commdev-image-keyboard-response,599,1452215,learnblock2,807.8999999985099,img/planet15_right.png,15,Community 2,NA,TRUE,j,j,NA,NA,NA,1,6,"5,10,11,1,6,8,9,15,13,7,4,14,2,12,3"
14402,commdev-image-keyboard-response,600,1453466,learnblock2,856.6000000014901,img/planet7_left.png,7,Community 2,NA,TRUE,f,f,NA,NA,NA,1,6,"5,10,11,1,6,8,9,15,13,7,4,14,2,12,3"
14402,commdev-image-keyboard-response,601,1454718,learnblock2,593.5,img/planet9_right.png,9,Community 2,NA,TRUE,j,j,NA,NA,NA,1,6,"5,10,11,1,6,8,9,15,13,7,4,14,2,12,3"
14402,commdev-image-keyboard-response,602,1455968,learnblock2,981.8999999985099,img/planet7_right.png,7,Community 2,NA,TRUE,j,j,NA,NA,NA,1,6,"5,10,11,1,6,8,9,15,13,7,4,14,2,12,3"
14402,commdev-image-keyboard-response,603,1457219,learnblock2,739.7999999970198,img/planet15_left.png,15,Community 2,NA,TRUE,f,f,NA,NA,NA,1,6,"5,10,11,1,6,8,9,15,13,7,4,14,2,12,3"
14402,commdev-image-keyboard-response,604,1458471,learnblock2,712.7999999970198,img/planet9_left.png,9,Community 2,NA,TRUE,f,f,NA,NA,NA,1,6,"5,10,11,1,6,8,9,15,13,7,4,14,2,12,3"
14402,commdev-image-keyboard-response,605,1459723,learnblock2,619.0999999940395,img/planet13_left.png,13,Community 2,NA,TRUE,f,f,NA,NA,NA,1,6,"5,10,11,1,6,8,9,15,13,7,4,14,2,12,3"
14402,commdev-image-keyboard-response,606,1460974,learnblock2,null,img/planet8_right.png,8,Community 2,NA,FALSE,null,j,NA,NA,NA,1,6,"5,10,11,1,6,8,9,15,13,7,4,14,2,12,3"
14402,commdev-image-keyboard-response,607,1462224,learnblock2,518.3999999985099,img/planet1_right.png,1,Community 1,NA,FALSE,f,j,NA,NA,NA,1,6,"5,10,11,1,6,8,9,15,13,7,4,14,2,12,3"
14402,commdev-image-keyboard-response,608,1463476,learnblock2,87.60000000149012,img/planet8_left.png,8,Community 2,NA,FALSE,j,f,NA,NA,NA,1,6,"5,10,11,1,6,8,9,15,13,7,4,14,2,12,3"
14402,commdev-image-keyboard-response,609,1464727,learnblock2,634.8000000044703,img/planet13_right.png,13,Community 2,NA,TRUE,j,j,NA,NA,NA,1,6,"5,10,11,1,6,8,9,15,13,7,4,14,2,12,3"
14402,commdev-image-keyboard-response,610,1465978,learnblock2,598.8000000044703,img/planet8_right.png,8,Community 2,NA,TRUE,j,j,NA,NA,NA,1,6,"5,10,11,1,6,8,9,15,13,7,4,14,2,12,3"
14402,commdev-image-keyboard-response,611,1467229,learnblock2,593,img/planet1_right.png,1,Community 1,NA,TRUE,j,j,NA,NA,NA,1,6,"5,10,11,1,6,8,9,15,13,7,4,14,2,12,3"
14402,commdev-image-keyboard-response,612,1468480,learnblock2,556.7999999970198,img/planet5_left.png,5,Community 1,NA,TRUE,f,f,NA,NA,NA,1,6,"5,10,11,1,6,8,9,15,13,7,4,14,2,12,3"
14402,commdev-image-keyboard-response,613,1469732,learnblock2,547.5,img/planet10_left.png,10,Community 1,NA,TRUE,f,f,NA,NA,NA,1,6,"5,10,11,1,6,8,9,15,13,7,4,14,2,12,3"
14402,commdev-image-keyboard-response,614,1470983,learnblock2,575.6999999955297,img/planet5_left.png,5,Community 1,NA,TRUE,f,f,NA,NA,NA,1,6,"5,10,11,1,6,8,9,15,13,7,4,14,2,12,3"
14402,commdev-image-keyboard-response,615,1472243,learnblock2,662.2999999970198,img/planet6_left.png,6,Community 1,NA,TRUE,f,f,NA,NA,NA,1,6,"5,10,11,1,6,8,9,15,13,7,4,14,2,12,3"
14402,commdev-image-keyboard-response,616,1473495,learnblock2,551.5,img/planet10_left.png,10,Community 1,NA,TRUE,f,f,NA,NA,NA,1,6,"5,10,11,1,6,8,9,15,13,7,4,14,2,12,3"
14402,commdev-image-keyboard-response,617,1474746,learnblock2,542.6999999955297,img/planet11_left.png,11,Community 1,NA,TRUE,f,f,NA,NA,NA,1,6,"5,10,11,1,6,8,9,15,13,7,4,14,2,12,3"
14402,commdev-image-keyboard-response,618,1475998,learnblock2,374.3999999985099,img/planet1_right.png,1,Community 1,NA,FALSE,f,j,NA,NA,NA,1,6,"5,10,11,1,6,8,9,15,13,7,4,14,2,12,3"
14402,commdev-image-keyboard-response,619,1477250,learnblock2,507.69999999552965,img/planet8_right.png,8,Community 2,NA,TRUE,j,j,NA,NA,NA,1,6,"5,10,11,1,6,8,9,15,13,7,4,14,2,12,3"
14402,commdev-image-keyboard-response,620,1478501,learnblock2,660,img/planet1_left.png,1,Community 1,NA,TRUE,f,f,NA,NA,NA,1,6,"5,10,11,1,6,8,9,15,13,7,4,14,2,12,3"
14402,commdev-image-keyboard-response,621,1479753,learnblock2,717.8000000044703,img/planet11_right.png,11,Community 1,NA,TRUE,j,j,NA,NA,NA,1,6,"5,10,11,1,6,8,9,15,13,7,4,14,2,12,3"
14402,commdev-image-keyboard-response,622,1481005,learnblock2,586.2999999970198,img/planet10_left.png,10,Community 1,NA,TRUE,f,f,NA,NA,NA,1,6,"5,10,11,1,6,8,9,15,13,7,4,14,2,12,3"
14402,commdev-image-keyboard-response,623,1482257,learnblock2,569.6000000014901,img/planet11_right.png,11,Community 1,NA,TRUE,j,j,NA,NA,NA,1,6,"5,10,11,1,6,8,9,15,13,7,4,14,2,12,3"
14402,commdev-image-keyboard-response,624,1483508,learnblock2,634.2000000029802,img/planet1_right.png,1,Community 1,NA,FALSE,f,j,NA,NA,NA,1,6,"5,10,11,1,6,8,9,15,13,7,4,14,2,12,3"
14402,commdev-image-keyboard-response,625,1484760,learnblock2,523,img/planet5_right.png,5,Community 1,NA,FALSE,f,j,NA,NA,NA,1,6,"5,10,11,1,6,8,9,15,13,7,4,14,2,12,3"
14402,commdev-image-keyboard-response,626,1486012,learnblock2,702.6000000014901,img/planet11_right.png,11,Community 1,NA,TRUE,j,j,NA,NA,NA,1,6,"5,10,11,1,6,8,9,15,13,7,4,14,2,12,3"
14402,commdev-image-keyboard-response,627,1487263,learnblock2,656.5,img/planet5_left.png,5,Community 1,NA,TRUE,f,f,NA,NA,NA,1,6,"5,10,11,1,6,8,9,15,13,7,4,14,2,12,3"
14402,commdev-image-keyboard-response,628,1488514,learnblock2,637.1000000014901,img/planet1_left.png,1,Community 1,NA,TRUE,f,f,NA,NA,NA,1,6,"5,10,11,1,6,8,9,15,13,7,4,14,2,12,3"
14402,commdev-image-keyboard-response,629,1489766,learnblock2,563.6000000014901,img/planet8_right.png,8,Community 2,NA,TRUE,j,j,NA,NA,NA,1,6,"5,10,11,1,6,8,9,15,13,7,4,14,2,12,3"
14402,commdev-image-keyboard-response,630,1491017,learnblock2,779.3999999985099,img/planet1_right.png,1,Community 1,NA,TRUE,j,j,NA,NA,NA,1,6,"5,10,11,1,6,8,9,15,13,7,4,14,2,12,3"
14402,commdev-image-keyboard-response,631,1492268,learnblock2,657.6999999955297,img/planet11_right.png,11,Community 1,NA,TRUE,j,j,NA,NA,NA,1,6,"5,10,11,1,6,8,9,15,13,7,4,14,2,12,3"
14402,commdev-image-keyboard-response,632,1493519,learnblock2,545.6999999955297,img/planet10_right.png,10,Community 1,NA,TRUE,j,j,NA,NA,NA,1,6,"5,10,11,1,6,8,9,15,13,7,4,14,2,12,3"
14402,commdev-image-keyboard-response,633,1494771,learnblock2,839.1000000014901,img/planet5_left.png,5,Community 1,NA,TRUE,f,f,NA,NA,NA,1,6,"5,10,11,1,6,8,9,15,13,7,4,14,2,12,3"
14402,commdev-image-keyboard-response,634,1496023,learnblock2,716.1000000014901,img/planet6_right.png,6,Community 1,NA,TRUE,j,j,NA,NA,NA,1,6,"5,10,11,1,6,8,9,15,13,7,4,14,2,12,3"
14402,commdev-image-keyboard-response,635,1497275,learnblock2,979.6000000014901,img/planet10_left.png,10,Community 1,NA,FALSE,j,f,NA,NA,NA,1,6,"5,10,11,1,6,8,9,15,13,7,4,14,2,12,3"
14402,commdev-image-keyboard-response,636,1498526,learnblock2,1057.4000000059605,img/planet11_right.png,11,Community 1,NA,TRUE,j,j,NA,NA,NA,1,6,"5,10,11,1,6,8,9,15,13,7,4,14,2,12,3"
14402,commdev-image-keyboard-response,637,1499777,learnblock2,822.3000000044703,img/planet10_right.png,10,Community 1,NA,FALSE,f,j,NA,NA,NA,1,6,"5,10,11,1,6,8,9,15,13,7,4,14,2,12,3"
14402,commdev-image-keyboard-response,638,1501029,learnblock2,1002.3000000044703,img/planet11_left.png,11,Community 1,NA,TRUE,f,f,NA,NA,NA,1,6,"5,10,11,1,6,8,9,15,13,7,4,14,2,12,3"
14402,commdev-image-keyboard-response,639,1502281,learnblock2,852.6000000014901,img/planet6_right.png,6,Community 1,NA,TRUE,j,j,NA,NA,NA,1,6,"5,10,11,1,6,8,9,15,13,7,4,14,2,12,3"
14402,commdev-image-keyboard-response,640,1503532,learnblock2,881.8999999985099,img/planet5_left.png,5,Community 1,NA,TRUE,f,f,NA,NA,NA,1,6,"5,10,11,1,6,8,9,15,13,7,4,14,2,12,3"
14402,commdev-image-keyboard-response,641,1504784,learnblock2,674.3999999985099,img/planet11_right.png,11,Community 1,NA,TRUE,j,j,NA,NA,NA,1,6,"5,10,11,1,6,8,9,15,13,7,4,14,2,12,3"
14402,commdev-image-keyboard-response,642,1506035,learnblock2,929.7999999970198,img/planet6_left.png,6,Community 1,NA,TRUE,f,f,NA,NA,NA,1,6,"5,10,11,1,6,8,9,15,13,7,4,14,2,12,3"
14402,commdev-image-keyboard-response,643,1507286,learnblock2,779.5,img/planet5_left.png,5,Community 1,NA,TRUE,f,f,NA,NA,NA,1,6,"5,10,11,1,6,8,9,15,13,7,4,14,2,12,3"
14402,commdev-image-keyboard-response,644,1508538,learnblock2,886.7000000029802,img/planet11_right.png,11,Community 1,NA,FALSE,f,j,NA,NA,NA,1,6,"5,10,11,1,6,8,9,15,13,7,4,14,2,12,3"
14402,commdev-image-keyboard-response,645,1509789,learnblock2,753.6999999955297,img/planet6_left.png,6,Community 1,NA,TRUE,f,f,NA,NA,NA,1,6,"5,10,11,1,6,8,9,15,13,7,4,14,2,12,3"
14402,commdev-image-keyboard-response,646,1511040,learnblock2,548.2000000029802,img/planet4_right.png,4,Community 3,NA,TRUE,j,j,NA,NA,NA,1,6,"5,10,11,1,6,8,9,15,13,7,4,14,2,12,3"
14402,commdev-image-keyboard-response,647,1512291,learnblock2,558.5,img/planet6_right.png,6,Community 1,NA,TRUE,j,j,NA,NA,NA,1,6,"5,10,11,1,6,8,9,15,13,7,4,14,2,12,3"
14402,commdev-image-keyboard-response,648,1513543,learnblock2,606,img/planet5_left.png,5,Community 1,NA,TRUE,f,f,NA,NA,NA,1,6,"5,10,11,1,6,8,9,15,13,7,4,14,2,12,3"
14402,commdev-image-keyboard-response,649,1514795,learnblock2,653.2999999970198,img/planet6_right.png,6,Community 1,NA,TRUE,j,j,NA,NA,NA,1,6,"5,10,11,1,6,8,9,15,13,7,4,14,2,12,3"
14402,commdev-image-keyboard-response,650,1516046,learnblock2,813.7000000029802,img/planet11_left.png,11,Community 1,NA,TRUE,f,f,NA,NA,NA,1,6,"5,10,11,1,6,8,9,15,13,7,4,14,2,12,3"
14402,commdev-image-keyboard-response,651,1517297,learnblock2,560.7000000029802,img/planet10_right.png,10,Community 1,NA,TRUE,j,j,NA,NA,NA,1,6,"5,10,11,1,6,8,9,15,13,7,4,14,2,12,3"
14402,commdev-image-keyboard-response,652,1518548,learnblock2,702.1000000014901,img/planet11_right.png,11,Community 1,NA,TRUE,j,j,NA,NA,NA,1,6,"5,10,11,1,6,8,9,15,13,7,4,14,2,12,3"
14402,commdev-image-keyboard-response,653,1519799,learnblock2,724.1000000014901,img/planet6_right.png,6,Community 1,NA,TRUE,j,j,NA,NA,NA,1,6,"5,10,11,1,6,8,9,15,13,7,4,14,2,12,3"
14402,commdev-image-keyboard-response,654,1521050,learnblock2,621.6000000014901,img/planet11_left.png,11,Community 1,NA,TRUE,f,f,NA,NA,NA,1,6,"5,10,11,1,6,8,9,15,13,7,4,14,2,12,3"
14402,commdev-image-keyboard-response,655,1522301,learnblock2,1007.2000000029802,img/planet5_left.png,5,Community 1,NA,TRUE,f,f,NA,NA,NA,1,6,"5,10,11,1,6,8,9,15,13,7,4,14,2,12,3"
14402,commdev-image-keyboard-response,656,1523553,learnblock2,651.8999999985099,img/planet10_right.png,10,Community 1,NA,TRUE,j,j,NA,NA,NA,1,6,"5,10,11,1,6,8,9,15,13,7,4,14,2,12,3"
14402,commdev-image-keyboard-response,657,1524804,learnblock2,670.1000000014901,img/planet1_right.png,1,Community 1,NA,TRUE,j,j,NA,NA,NA,1,6,"5,10,11,1,6,8,9,15,13,7,4,14,2,12,3"
14402,commdev-image-keyboard-response,658,1526056,learnblock2,511,img/planet10_right.png,10,Community 1,NA,TRUE,j,j,NA,NA,NA,1,6,"5,10,11,1,6,8,9,15,13,7,4,14,2,12,3"
14402,commdev-image-keyboard-response,659,1527307,learnblock2,576.8999999985099,img/planet11_left.png,11,Community 1,NA,TRUE,f,f,NA,NA,NA,1,6,"5,10,11,1,6,8,9,15,13,7,4,14,2,12,3"
14402,commdev-image-keyboard-response,660,1528559,learnblock2,560.1999999955297,img/planet6_right.png,6,Community 1,NA,TRUE,j,j,NA,NA,NA,1,6,"5,10,11,1,6,8,9,15,13,7,4,14,2,12,3"
14402,commdev-image-keyboard-response,661,1529811,learnblock2,682.1000000014901,img/planet5_right.png,5,Community 1,NA,TRUE,j,j,NA,NA,NA,1,6,"5,10,11,1,6,8,9,15,13,7,4,14,2,12,3"
14402,commdev-image-keyboard-response,662,1531062,learnblock2,768.4000000059605,img/planet10_left.png,10,Community 1,NA,TRUE,f,f,NA,NA,NA,1,6,"5,10,11,1,6,8,9,15,13,7,4,14,2,12,3"
14402,commdev-image-keyboard-response,663,1532314,learnblock2,617.6000000014901,img/planet1_right.png,1,Community 1,NA,TRUE,j,j,NA,NA,NA,1,6,"5,10,11,1,6,8,9,15,13,7,4,14,2,12,3"
14402,commdev-image-keyboard-response,664,1533566,learnblock2,815.7000000029802,img/planet5_left.png,5,Community 1,NA,TRUE,f,f,NA,NA,NA,1,6,"5,10,11,1,6,8,9,15,13,7,4,14,2,12,3"
14402,commdev-image-keyboard-response,665,1534818,learnblock2,589,img/planet1_right.png,1,Community 1,NA,TRUE,j,j,NA,NA,NA,1,6,"5,10,11,1,6,8,9,15,13,7,4,14,2,12,3"
14402,commdev-image-keyboard-response,666,1536068,learnblock2,833.2000000029802,img/planet5_left.png,5,Community 1,NA,TRUE,f,f,NA,NA,NA,1,6,"5,10,11,1,6,8,9,15,13,7,4,14,2,12,3"
14402,commdev-image-keyboard-response,667,1537319,learnblock2,778.8999999985099,img/planet6_left.png,6,Community 1,NA,TRUE,f,f,NA,NA,NA,1,6,"5,10,11,1,6,8,9,15,13,7,4,14,2,12,3"
14402,commdev-image-keyboard-response,668,1538571,learnblock2,676.6000000014901,img/planet10_left.png,10,Community 1,NA,TRUE,f,f,NA,NA,NA,1,6,"5,10,11,1,6,8,9,15,13,7,4,14,2,12,3"
14402,commdev-image-keyboard-response,669,1539823,learnblock2,572.7999999970198,img/planet11_right.png,11,Community 1,NA,TRUE,j,j,NA,NA,NA,1,6,"5,10,11,1,6,8,9,15,13,7,4,14,2,12,3"
14402,commdev-image-keyboard-response,670,1541074,learnblock2,666.8999999985099,img/planet6_left.png,6,Community 1,NA,TRUE,f,f,NA,NA,NA,1,6,"5,10,11,1,6,8,9,15,13,7,4,14,2,12,3"
14402,commdev-image-keyboard-response,671,1542325,learnblock2,874.5,img/planet11_right.png,11,Community 1,NA,TRUE,j,j,NA,NA,NA,1,6,"5,10,11,1,6,8,9,15,13,7,4,14,2,12,3"
14402,commdev-image-keyboard-response,672,1543578,learnblock2,639.0999999940395,img/planet1_left.png,1,Community 1,NA,TRUE,f,f,NA,NA,NA,1,6,"5,10,11,1,6,8,9,15,13,7,4,14,2,12,3"
14402,commdev-image-keyboard-response,673,1544830,learnblock2,402.69999999552965,img/planet5_right.png,5,Community 1,NA,TRUE,j,j,NA,NA,NA,1,6,"5,10,11,1,6,8,9,15,13,7,4,14,2,12,3"
14402,commdev-image-keyboard-response,674,1546082,learnblock2,601.6999999955297,img/planet10_left.png,10,Community 1,NA,TRUE,f,f,NA,NA,NA,1,6,"5,10,11,1,6,8,9,15,13,7,4,14,2,12,3"
14402,commdev-image-keyboard-response,675,1547333,learnblock2,695.5,img/planet1_right.png,1,Community 1,NA,TRUE,j,j,NA,NA,NA,1,6,"5,10,11,1,6,8,9,15,13,7,4,14,2,12,3"
14402,commdev-image-keyboard-response,676,1548584,learnblock2,1139.0999999940395,img/planet5_right.png,5,Community 1,NA,TRUE,j,j,NA,NA,NA,1,6,"5,10,11,1,6,8,9,15,13,7,4,14,2,12,3"
14402,commdev-image-keyboard-response,677,1549835,learnblock2,1036.2000000029802,img/planet6_right.png,6,Community 1,NA,TRUE,j,j,NA,NA,NA,1,6,"5,10,11,1,6,8,9,15,13,7,4,14,2,12,3"
14402,commdev-image-keyboard-response,678,1551095,learnblock2,689.4000000059605,img/planet5_left.png,5,Community 1,NA,TRUE,f,f,NA,NA,NA,1,6,"5,10,11,1,6,8,9,15,13,7,4,14,2,12,3"
14402,commdev-image-keyboard-response,679,1552347,learnblock2,521.1000000014901,img/planet10_left.png,10,Community 1,NA,TRUE,f,f,NA,NA,NA,1,6,"5,10,11,1,6,8,9,15,13,7,4,14,2,12,3"
14402,commdev-image-keyboard-response,680,1553599,learnblock2,523.6999999955297,img/planet5_left.png,5,Community 1,NA,TRUE,f,f,NA,NA,NA,1,6,"5,10,11,1,6,8,9,15,13,7,4,14,2,12,3"
14402,commdev-image-keyboard-response,681,1554850,learnblock2,738.8000000044703,img/planet1_left.png,1,Community 1,NA,TRUE,f,f,NA,NA,NA,1,6,"5,10,11,1,6,8,9,15,13,7,4,14,2,12,3"
14402,commdev-image-keyboard-response,682,1556101,learnblock2,503.3999999985099,img/planet11_left.png,11,Community 1,NA,TRUE,f,f,NA,NA,NA,1,6,"5,10,11,1,6,8,9,15,13,7,4,14,2,12,3"
14402,commdev-image-keyboard-response,683,1557352,learnblock2,664.1000000014901,img/planet6_left.png,6,Community 1,NA,TRUE,f,f,NA,NA,NA,1,6,"5,10,11,1,6,8,9,15,13,7,4,14,2,12,3"
14402,commdev-image-keyboard-response,684,1558603,learnblock2,665.1000000014901,img/planet11_right.png,11,Community 1,NA,TRUE,j,j,NA,NA,NA,1,6,"5,10,11,1,6,8,9,15,13,7,4,14,2,12,3"
14402,commdev-image-keyboard-response,685,1559855,learnblock2,562.7999999970198,img/planet10_left.png,10,Community 1,NA,TRUE,f,f,NA,NA,NA,1,6,"5,10,11,1,6,8,9,15,13,7,4,14,2,12,3"
14402,commdev-image-keyboard-response,686,1561106,learnblock2,722.3999999985099,img/planet5_left.png,5,Community 1,NA,TRUE,f,f,NA,NA,NA,1,6,"5,10,11,1,6,8,9,15,13,7,4,14,2,12,3"
14402,commdev-image-keyboard-response,687,1562357,learnblock2,564.1000000014901,img/planet1_right.png,1,Community 1,NA,TRUE,j,j,NA,NA,NA,1,6,"5,10,11,1,6,8,9,15,13,7,4,14,2,12,3"
14402,commdev-image-keyboard-response,688,1563608,learnblock2,717.5,img/planet5_left.png,5,Community 1,NA,TRUE,f,f,NA,NA,NA,1,6,"5,10,11,1,6,8,9,15,13,7,4,14,2,12,3"
14402,commdev-image-keyboard-response,689,1564859,learnblock2,642.2999999970198,img/planet1_right.png,1,Community 1,NA,TRUE,j,j,NA,NA,NA,1,6,"5,10,11,1,6,8,9,15,13,7,4,14,2,12,3"
14402,commdev-image-keyboard-response,690,1566111,learnblock2,839.8999999985099,img/planet5_left.png,5,Community 1,NA,TRUE,f,f,NA,NA,NA,1,6,"5,10,11,1,6,8,9,15,13,7,4,14,2,12,3"
14402,commdev-image-keyboard-response,691,1567362,learnblock2,1084,img/planet1_left.png,1,Community 1,NA,TRUE,f,f,NA,NA,NA,1,6,"5,10,11,1,6,8,9,15,13,7,4,14,2,12,3"
14402,commdev-image-keyboard-response,692,1568614,learnblock2,null,img/planet11_right.png,11,Community 1,NA,FALSE,null,j,NA,NA,NA,1,6,"5,10,11,1,6,8,9,15,13,7,4,14,2,12,3"
14402,commdev-image-keyboard-response,693,1569865,learnblock2,200.60000000149012,img/planet10_right.png,10,Community 1,NA,TRUE,j,j,NA,NA,NA,1,6,"5,10,11,1,6,8,9,15,13,7,4,14,2,12,3"
