subject_id,trial_type,trial_index,time_elapsed,block,rt,stimulus,planet,community,response,correct,key_press,learning_correct_response,parse,init_locations,final_locations,browser_interactions,num_comp,planet_map
14619,commdev-instructions,7,377870,NA,4150.200000001118,"<p>In this game, you will be shown a 3x3 grid of patterns.</p> <p>The last one in the bottom right-hand corner, <strong>will be missing:</strong></p> <div style='width: 700px;'><div style='float: top;'><img style='width: 200px;' src='practice/p1_M1.png'></img><p class='small'>You need to select<strong> which of the four possible patterns </strong>along the bottom<strong> fits into the gap:</strong></p></div><div style='float: top;'><img style='width: 300px;' src='practice/p1_T1.png'></img></div><br>",NA,NA,NA,NA,NA,NA,NA,NA,NA,2,9,"2,12,11,5,14,15,10,4,9,1,7,8,13,3,6"
14619,commdev-instructions,8,400104,NA,2087.9000000003725,"<p>Try to be as fast and as accurate as you can be.</p> <p>If you cannot solve the puzzle then you should guess - you will not be penalised for an incorrect answer.</p> <p>The task contains a shuffled mix of easy, medium and hard puzzles.</p> <p>You will have <strong>30 seconds</strong> to complete each puzzle.</p><br>",NA,NA,NA,NA,NA,NA,NA,NA,NA,2,9,"2,12,11,5,14,15,10,4,9,1,7,8,13,3,6"
14619,commdev-instructions,15,446121,NA,6255.0999999996275,<p><strong>Success!</strong></p> <p>You seem to be getting the hang of this...</p> <p>Let's move on to the real trials.</p><br>,NA,NA,NA,NA,NA,NA,NA,NA,NA,2,9,"2,12,11,5,14,15,10,4,9,1,7,8,13,3,6"
14619,commdev-instructions,91,942869,NA,4474.5,"<p>In this game, you are a scientist on board a space shuttle. </p><p> On each mission, you will visit planets all across the universe.</p><img src=""img/controlroom.jpg"" width=300vw>",NA,NA,NA,NA,NA,NA,NA,NA,NA,2,9,"2,12,11,5,14,15,10,4,9,1,7,8,13,3,6"
14619,commdev-instructions,92,947178,NA,2233.800000000745,"<p>Here are a few planets you might see:</p><img src=""img/practice1.png"" width=200vw><img src=""img/practice2.png"" width=200vw><img src=""img/practice3.png"" width=200vw>",NA,NA,NA,NA,NA,NA,NA,NA,NA,2,9,"2,12,11,5,14,15,10,4,9,1,7,8,13,3,6"
14619,commdev-instructions,93,956301,NA,1725.6000000014901,"<p>Your job as a scientist is to record which direction the winds are moving on each planet.</p><p>There are two types of wind directions:</p><img src=""img/practice1_left.png"" width=200vw><img src=""img/practice1_right.png"" width=200vw>",NA,NA,NA,NA,NA,NA,NA,NA,NA,2,9,"2,12,11,5,14,15,10,4,9,1,7,8,13,3,6"
14619,commdev-instructions,94,998267,NA,37089.59999999963,"<p>If the winds are moving this way, press the letter <strong>F</strong> on the keyboard as fast as you can.</p><img src=""img/leftwind.png"" width=250vw>",NA,NA,NA,NA,NA,NA,NA,NA,NA,2,9,"2,12,11,5,14,15,10,4,9,1,7,8,13,3,6"
14619,commdev-instructions,95,1009335,NA,6583.799999998882,"<p>If the winds are moving this way, press the letter <strong>J</strong> on the keyboard as fast as you can.</p><img src=""img/rightwind.png"" width=350vw>",NA,NA,NA,NA,NA,NA,NA,NA,NA,2,9,"2,12,11,5,14,15,10,4,9,1,7,8,13,3,6"
14619,commdev-instructions,96,1015580,NA,1821.0999999996275,<p>You will have 1 second to respond. Try to respond before the time runs out!,NA,NA,NA,NA,NA,NA,NA,NA,NA,2,9,"2,12,11,5,14,15,10,4,9,1,7,8,13,3,6"
14619,commdev-instructions,97,1022266,NA,1253.699999999255,<p>The planets you will visit will look different from each other.</p><p>You should respond <strong>only</strong> based on wind direction.,NA,NA,NA,NA,NA,NA,NA,NA,NA,2,9,"2,12,11,5,14,15,10,4,9,1,7,8,13,3,6"
14619,commdev-instructions,98,1041912,NA,14477.700000001118,"<p> Ready to start the practice round? </p><p> Remember, press <strong>F</strong> or <strong>J</strong> depending on the wind direction.<br><img src=""img/categorize_planet_example.png""",NA,NA,NA,NA,NA,NA,NA,NA,NA,2,9,"2,12,11,5,14,15,10,4,9,1,7,8,13,3,6"
14619,commdev-instructions,110,1112522,NA,3941.5999999996275,"<p>Great, now try a short practice mission. </p><p> This time, you will have 1 second to respond and you won't know whether you pressed the right or wrong key for each planet.</p>",NA,NA,NA,NA,NA,NA,NA,NA,NA,2,9,"2,12,11,5,14,15,10,4,9,1,7,8,13,3,6"
14619,commdev-image-keyboard-response,111,1113878,practice,924.2000000011176,img/practice3_left.png,NA,Number not found in mappings,NA,FALSE,j,f,NA,NA,NA,2,9,"2,12,11,5,14,15,10,4,9,1,7,8,13,3,6"
14619,commdev-image-keyboard-response,112,1115130,practice,null,img/practice1_right.png,NA,Number not found in mappings,NA,FALSE,null,j,NA,NA,NA,2,9,"2,12,11,5,14,15,10,4,9,1,7,8,13,3,6"
14619,commdev-image-keyboard-response,113,1116383,practice,null,img/practice4_left.png,NA,Number not found in mappings,NA,FALSE,null,f,NA,NA,NA,2,9,"2,12,11,5,14,15,10,4,9,1,7,8,13,3,6"
14619,commdev-image-keyboard-response,114,1117636,practice,1243.300000000745,img/practice2_left.png,NA,Number not found in mappings,NA,TRUE,f,f,NA,NA,NA,2,9,"2,12,11,5,14,15,10,4,9,1,7,8,13,3,6"
14619,commdev-image-keyboard-response,115,1118888,practice,960,img/practice1_right.png,NA,Number not found in mappings,NA,TRUE,j,j,NA,NA,NA,2,9,"2,12,11,5,14,15,10,4,9,1,7,8,13,3,6"
14619,commdev-image-keyboard-response,116,1120140,practice,912.1000000014901,img/practice4_right.png,NA,Number not found in mappings,NA,TRUE,j,j,NA,NA,NA,2,9,"2,12,11,5,14,15,10,4,9,1,7,8,13,3,6"
14619,commdev-image-keyboard-response,117,1121392,practice,980.0999999996275,img/practice2_right.png,NA,Number not found in mappings,NA,FALSE,f,j,NA,NA,NA,2,9,"2,12,11,5,14,15,10,4,9,1,7,8,13,3,6"
14619,commdev-image-keyboard-response,118,1122645,practice,993,img/practice1_right.png,NA,Number not found in mappings,NA,TRUE,j,j,NA,NA,NA,2,9,"2,12,11,5,14,15,10,4,9,1,7,8,13,3,6"
14619,commdev-instructions,119,1139412,NA,7215.9000000003725,"<p>Great job with the practice round.</p><p>During real missions, you won't know whether you pressed the right or wrong key for each planet.</p><p>But between missions, we will tell you how you did overall.</p>",NA,NA,NA,NA,NA,NA,NA,NA,NA,2,9,"2,12,11,5,14,15,10,4,9,1,7,8,13,3,6"
14619,commdev-instructions,120,1151050,NA,3397.9000000003725,<p>Try your best! You will be paid a bonus based on how many correct responses you make!</p><p>Responses that are too slow will not count toward your bonus.</p>,NA,NA,NA,NA,NA,NA,NA,NA,NA,2,9,"2,12,11,5,14,15,10,4,9,1,7,8,13,3,6"
14619,commdev-instructions,121,1158198,NA,945.7999999988824,"<p>You are almost ready to start the real game.</p><p> First, we are going to ask you some questions about how the game works.</p>",NA,NA,NA,NA,NA,NA,NA,NA,NA,2,9,"2,12,11,5,14,15,10,4,9,1,7,8,13,3,6"
14619,commdev-instructions,134,1270037,NA,1754.8999999985099,"<p> Nice work! It is now time to start the real game.<p></p>You will go on two missions to record wind directions of different planets.<p></p>Each one will take about 5 minutes. You will get to take a break between missions.<p><p> Remember, press <strong>F</strong> or <strong>J</strong> depending on the wind direction. Good luck!<br><img src=""img/categorize_planet_example.png""",NA,NA,NA,NA,NA,NA,NA,NA,NA,2,9,"2,12,11,5,14,15,10,4,9,1,7,8,13,3,6"
14619,commdev-image-keyboard-response,136,1276181,learnblock1,null,img/planet1_left.png,1,Community 2,NA,FALSE,null,f,NA,NA,NA,2,9,"2,12,11,5,14,15,10,4,9,1,7,8,13,3,6"
14619,commdev-image-keyboard-response,137,1277433,learnblock1,296.5,img/planet15_right.png,15,Community 2,NA,FALSE,f,j,NA,NA,NA,2,9,"2,12,11,5,14,15,10,4,9,1,7,8,13,3,6"
14619,commdev-image-keyboard-response,138,1278685,learnblock1,57.399999998509884,img/planet5_right.png,5,Community 1,NA,TRUE,j,j,NA,NA,NA,2,9,"2,12,11,5,14,15,10,4,9,1,7,8,13,3,6"
14619,commdev-image-keyboard-response,139,1279937,learnblock1,103,img/planet15_right.png,15,Community 2,NA,TRUE,j,j,NA,NA,NA,2,9,"2,12,11,5,14,15,10,4,9,1,7,8,13,3,6"
14619,commdev-image-keyboard-response,140,1281190,learnblock1,675,img/planet1_right.png,1,Community 2,NA,TRUE,j,j,NA,NA,NA,2,9,"2,12,11,5,14,15,10,4,9,1,7,8,13,3,6"
14619,commdev-image-keyboard-response,141,1282442,learnblock1,515.8000000007451,img/planet4_left.png,4,Community 2,NA,FALSE,j,f,NA,NA,NA,2,9,"2,12,11,5,14,15,10,4,9,1,7,8,13,3,6"
14619,commdev-image-keyboard-response,142,1283694,learnblock1,null,img/planet9_left.png,9,Community 2,NA,FALSE,null,f,NA,NA,NA,2,9,"2,12,11,5,14,15,10,4,9,1,7,8,13,3,6"
14619,commdev-image-keyboard-response,143,1284946,learnblock1,24.59999999962747,img/planet15_right.png,15,Community 2,NA,FALSE,f,j,NA,NA,NA,2,9,"2,12,11,5,14,15,10,4,9,1,7,8,13,3,6"
14619,commdev-image-keyboard-response,144,1286199,learnblock1,862.8999999985099,img/planet9_right.png,9,Community 2,NA,TRUE,j,j,NA,NA,NA,2,9,"2,12,11,5,14,15,10,4,9,1,7,8,13,3,6"
14619,commdev-image-keyboard-response,145,1287451,learnblock1,638.7000000011176,img/planet15_left.png,15,Community 2,NA,TRUE,f,f,NA,NA,NA,2,9,"2,12,11,5,14,15,10,4,9,1,7,8,13,3,6"
14619,commdev-image-keyboard-response,146,1288703,learnblock1,735.4000000003725,img/planet9_right.png,9,Community 2,NA,TRUE,j,j,NA,NA,NA,2,9,"2,12,11,5,14,15,10,4,9,1,7,8,13,3,6"
14619,commdev-image-keyboard-response,147,1289955,learnblock1,921.5999999996275,img/planet1_left.png,1,Community 2,NA,TRUE,f,f,NA,NA,NA,2,9,"2,12,11,5,14,15,10,4,9,1,7,8,13,3,6"
14619,commdev-image-keyboard-response,148,1291207,learnblock1,963.0999999996275,img/planet9_right.png,9,Community 2,NA,TRUE,j,j,NA,NA,NA,2,9,"2,12,11,5,14,15,10,4,9,1,7,8,13,3,6"
14619,commdev-image-keyboard-response,149,1292459,learnblock1,752.5999999996275,img/planet15_right.png,15,Community 2,NA,FALSE,f,j,NA,NA,NA,2,9,"2,12,11,5,14,15,10,4,9,1,7,8,13,3,6"
14619,commdev-image-keyboard-response,150,1293711,learnblock1,790.5,img/planet1_left.png,1,Community 2,NA,FALSE,j,f,NA,NA,NA,2,9,"2,12,11,5,14,15,10,4,9,1,7,8,13,3,6"
14619,commdev-image-keyboard-response,151,1294963,learnblock1,1080.5,img/planet10_right.png,10,Community 2,NA,TRUE,j,j,NA,NA,NA,2,9,"2,12,11,5,14,15,10,4,9,1,7,8,13,3,6"
14619,commdev-image-keyboard-response,152,1296215,learnblock1,1066.5999999996275,img/planet15_left.png,15,Community 2,NA,TRUE,f,f,NA,NA,NA,2,9,"2,12,11,5,14,15,10,4,9,1,7,8,13,3,6"
14619,commdev-image-keyboard-response,153,1297468,learnblock1,906.9000000003725,img/planet10_left.png,10,Community 2,NA,TRUE,f,f,NA,NA,NA,2,9,"2,12,11,5,14,15,10,4,9,1,7,8,13,3,6"
14619,commdev-image-keyboard-response,154,1298721,learnblock1,910.1999999992549,img/planet1_right.png,1,Community 2,NA,TRUE,j,j,NA,NA,NA,2,9,"2,12,11,5,14,15,10,4,9,1,7,8,13,3,6"
14619,commdev-image-keyboard-response,155,1299973,learnblock1,893.6999999992549,img/planet4_left.png,4,Community 2,NA,TRUE,f,f,NA,NA,NA,2,9,"2,12,11,5,14,15,10,4,9,1,7,8,13,3,6"
14619,commdev-image-keyboard-response,156,1301225,learnblock1,1017.1999999992549,img/planet1_left.png,1,Community 2,NA,TRUE,f,f,NA,NA,NA,2,9,"2,12,11,5,14,15,10,4,9,1,7,8,13,3,6"
14619,commdev-image-keyboard-response,157,1302477,learnblock1,1076.800000000745,img/planet4_left.png,4,Community 2,NA,TRUE,f,f,NA,NA,NA,2,9,"2,12,11,5,14,15,10,4,9,1,7,8,13,3,6"
14619,commdev-image-keyboard-response,158,1303730,learnblock1,786.0999999996275,img/planet9_left.png,9,Community 2,NA,TRUE,f,f,NA,NA,NA,2,9,"2,12,11,5,14,15,10,4,9,1,7,8,13,3,6"
14619,commdev-image-keyboard-response,159,1304982,learnblock1,856.7000000011176,img/planet4_left.png,4,Community 2,NA,TRUE,f,f,NA,NA,NA,2,9,"2,12,11,5,14,15,10,4,9,1,7,8,13,3,6"
14619,commdev-image-keyboard-response,160,1306234,learnblock1,864.0999999996275,img/planet8_left.png,8,Community 3,NA,TRUE,f,f,NA,NA,NA,2,9,"2,12,11,5,14,15,10,4,9,1,7,8,13,3,6"
14619,commdev-image-keyboard-response,161,1307486,learnblock1,854.9000000003725,img/planet3_right.png,3,Community 3,NA,TRUE,j,j,NA,NA,NA,2,9,"2,12,11,5,14,15,10,4,9,1,7,8,13,3,6"
14619,commdev-image-keyboard-response,162,1308737,learnblock1,null,img/planet6_right.png,6,Community 3,NA,FALSE,null,j,NA,NA,NA,2,9,"2,12,11,5,14,15,10,4,9,1,7,8,13,3,6"
14619,commdev-image-keyboard-response,163,1309989,learnblock1,1066.7000000011176,img/planet7_left.png,7,Community 3,NA,TRUE,f,f,NA,NA,NA,2,9,"2,12,11,5,14,15,10,4,9,1,7,8,13,3,6"
14619,commdev-image-keyboard-response,164,1311242,learnblock1,804.5,img/planet14_left.png,14,Community 1,NA,FALSE,j,f,NA,NA,NA,2,9,"2,12,11,5,14,15,10,4,9,1,7,8,13,3,6"
14619,commdev-image-keyboard-response,165,1312495,learnblock1,1029.5999999996275,img/planet2_right.png,2,Community 1,NA,TRUE,j,j,NA,NA,NA,2,9,"2,12,11,5,14,15,10,4,9,1,7,8,13,3,6"
14619,commdev-image-keyboard-response,166,1313747,learnblock1,909.4000000003725,img/planet12_left.png,12,Community 1,NA,TRUE,f,f,NA,NA,NA,2,9,"2,12,11,5,14,15,10,4,9,1,7,8,13,3,6"
14619,commdev-image-keyboard-response,167,1314999,learnblock1,900.4000000003725,img/planet14_left.png,14,Community 1,NA,TRUE,f,f,NA,NA,NA,2,9,"2,12,11,5,14,15,10,4,9,1,7,8,13,3,6"
14619,commdev-image-keyboard-response,168,1316251,learnblock1,617.0999999996275,img/planet2_right.png,2,Community 1,NA,TRUE,j,j,NA,NA,NA,2,9,"2,12,11,5,14,15,10,4,9,1,7,8,13,3,6"
14619,commdev-image-keyboard-response,169,1317503,learnblock1,872.5,img/planet11_right.png,11,Community 1,NA,TRUE,j,j,NA,NA,NA,2,9,"2,12,11,5,14,15,10,4,9,1,7,8,13,3,6"
14619,commdev-image-keyboard-response,170,1318756,learnblock1,172.40000000037253,img/planet5_left.png,5,Community 1,NA,FALSE,j,f,NA,NA,NA,2,9,"2,12,11,5,14,15,10,4,9,1,7,8,13,3,6"
14619,commdev-image-keyboard-response,171,1320007,learnblock1,889.1999999992549,img/planet12_left.png,12,Community 1,NA,TRUE,f,f,NA,NA,NA,2,9,"2,12,11,5,14,15,10,4,9,1,7,8,13,3,6"
14619,commdev-image-keyboard-response,172,1321260,learnblock1,579.7000000011176,img/planet14_left.png,14,Community 1,NA,FALSE,j,f,NA,NA,NA,2,9,"2,12,11,5,14,15,10,4,9,1,7,8,13,3,6"
14619,commdev-image-keyboard-response,173,1322512,learnblock1,543.6999999992549,img/planet11_right.png,11,Community 1,NA,FALSE,f,j,NA,NA,NA,2,9,"2,12,11,5,14,15,10,4,9,1,7,8,13,3,6"
14619,commdev-image-keyboard-response,174,1323764,learnblock1,916.2000000011176,img/planet2_right.png,2,Community 1,NA,TRUE,j,j,NA,NA,NA,2,9,"2,12,11,5,14,15,10,4,9,1,7,8,13,3,6"
14619,commdev-image-keyboard-response,175,1325016,learnblock1,931.6999999992549,img/planet12_left.png,12,Community 1,NA,TRUE,f,f,NA,NA,NA,2,9,"2,12,11,5,14,15,10,4,9,1,7,8,13,3,6"
14619,commdev-image-keyboard-response,176,1326268,learnblock1,964.7000000011176,img/planet5_left.png,5,Community 1,NA,TRUE,f,f,NA,NA,NA,2,9,"2,12,11,5,14,15,10,4,9,1,7,8,13,3,6"
14619,commdev-image-keyboard-response,177,1327520,learnblock1,806.3999999985099,img/planet12_right.png,12,Community 1,NA,TRUE,j,j,NA,NA,NA,2,9,"2,12,11,5,14,15,10,4,9,1,7,8,13,3,6"
14619,commdev-image-keyboard-response,178,1328772,learnblock1,941.5999999996275,img/planet5_left.png,5,Community 1,NA,TRUE,f,f,NA,NA,NA,2,9,"2,12,11,5,14,15,10,4,9,1,7,8,13,3,6"
14619,commdev-image-keyboard-response,179,1330026,learnblock1,517.7000000011176,img/planet11_left.png,11,Community 1,NA,FALSE,j,f,NA,NA,NA,2,9,"2,12,11,5,14,15,10,4,9,1,7,8,13,3,6"
14619,commdev-image-keyboard-response,180,1331277,learnblock1,631.3000000007451,img/planet2_left.png,2,Community 1,NA,TRUE,f,f,NA,NA,NA,2,9,"2,12,11,5,14,15,10,4,9,1,7,8,13,3,6"
14619,commdev-image-keyboard-response,181,1332529,learnblock1,535.5999999996275,img/planet14_left.png,14,Community 1,NA,TRUE,f,f,NA,NA,NA,2,9,"2,12,11,5,14,15,10,4,9,1,7,8,13,3,6"
14619,commdev-image-keyboard-response,182,1333781,learnblock1,537.4000000003725,img/planet11_right.png,11,Community 1,NA,TRUE,j,j,NA,NA,NA,2,9,"2,12,11,5,14,15,10,4,9,1,7,8,13,3,6"
14619,commdev-image-keyboard-response,183,1335033,learnblock1,904.5999999996275,img/planet2_left.png,2,Community 1,NA,FALSE,j,f,NA,NA,NA,2,9,"2,12,11,5,14,15,10,4,9,1,7,8,13,3,6"
14619,commdev-image-keyboard-response,184,1336286,learnblock1,716.7000000011176,img/planet14_right.png,14,Community 1,NA,FALSE,f,j,NA,NA,NA,2,9,"2,12,11,5,14,15,10,4,9,1,7,8,13,3,6"
14619,commdev-image-keyboard-response,185,1337538,learnblock1,564.8000000007451,img/planet12_left.png,12,Community 1,NA,FALSE,j,f,NA,NA,NA,2,9,"2,12,11,5,14,15,10,4,9,1,7,8,13,3,6"
14619,commdev-image-keyboard-response,186,1338790,learnblock1,736.5999999996275,img/planet5_left.png,5,Community 1,NA,FALSE,j,f,NA,NA,NA,2,9,"2,12,11,5,14,15,10,4,9,1,7,8,13,3,6"
14619,commdev-image-keyboard-response,187,1340042,learnblock1,1031.5,img/planet2_left.png,2,Community 1,NA,TRUE,f,f,NA,NA,NA,2,9,"2,12,11,5,14,15,10,4,9,1,7,8,13,3,6"
14619,commdev-image-keyboard-response,188,1341295,learnblock1,819.5999999996275,img/planet11_right.png,11,Community 1,NA,TRUE,j,j,NA,NA,NA,2,9,"2,12,11,5,14,15,10,4,9,1,7,8,13,3,6"
14619,commdev-image-keyboard-response,189,1342547,learnblock1,795.5,img/planet5_right.png,5,Community 1,NA,TRUE,j,j,NA,NA,NA,2,9,"2,12,11,5,14,15,10,4,9,1,7,8,13,3,6"
14619,commdev-image-keyboard-response,190,1343799,learnblock1,649.2000000011176,img/planet2_left.png,2,Community 1,NA,TRUE,f,f,NA,NA,NA,2,9,"2,12,11,5,14,15,10,4,9,1,7,8,13,3,6"
14619,commdev-image-keyboard-response,191,1345051,learnblock1,754.5,img/planet11_left.png,11,Community 1,NA,TRUE,f,f,NA,NA,NA,2,9,"2,12,11,5,14,15,10,4,9,1,7,8,13,3,6"
14619,commdev-image-keyboard-response,192,1346303,learnblock1,679.5,img/planet14_right.png,14,Community 1,NA,TRUE,j,j,NA,NA,NA,2,9,"2,12,11,5,14,15,10,4,9,1,7,8,13,3,6"
14619,commdev-image-keyboard-response,193,1347555,learnblock1,602.9000000003725,img/planet11_left.png,11,Community 1,NA,FALSE,j,f,NA,NA,NA,2,9,"2,12,11,5,14,15,10,4,9,1,7,8,13,3,6"
14619,commdev-image-keyboard-response,194,1348808,learnblock1,639.8000000007451,img/planet5_right.png,5,Community 1,NA,FALSE,f,j,NA,NA,NA,2,9,"2,12,11,5,14,15,10,4,9,1,7,8,13,3,6"
14619,commdev-image-keyboard-response,195,1350060,learnblock1,591.0999999996275,img/planet11_left.png,11,Community 1,NA,FALSE,j,f,NA,NA,NA,2,9,"2,12,11,5,14,15,10,4,9,1,7,8,13,3,6"
14619,commdev-image-keyboard-response,196,1351312,learnblock1,883,img/planet5_right.png,5,Community 1,NA,FALSE,f,j,NA,NA,NA,2,9,"2,12,11,5,14,15,10,4,9,1,7,8,13,3,6"
14619,commdev-image-keyboard-response,197,1352564,learnblock1,null,img/planet2_right.png,2,Community 1,NA,FALSE,null,j,NA,NA,NA,2,9,"2,12,11,5,14,15,10,4,9,1,7,8,13,3,6"
14619,commdev-image-keyboard-response,198,1353816,learnblock1,76.59999999962747,img/planet5_left.png,5,Community 1,NA,TRUE,f,f,NA,NA,NA,2,9,"2,12,11,5,14,15,10,4,9,1,7,8,13,3,6"
14619,commdev-image-keyboard-response,199,1355068,learnblock1,978.1999999992549,img/planet2_right.png,2,Community 1,NA,TRUE,j,j,NA,NA,NA,2,9,"2,12,11,5,14,15,10,4,9,1,7,8,13,3,6"
14619,commdev-image-keyboard-response,200,1356320,learnblock1,979.0999999996275,img/planet5_left.png,5,Community 1,NA,TRUE,f,f,NA,NA,NA,2,9,"2,12,11,5,14,15,10,4,9,1,7,8,13,3,6"
14619,commdev-image-keyboard-response,201,1357572,learnblock1,1069.5,img/planet15_right.png,15,Community 2,NA,TRUE,j,j,NA,NA,NA,2,9,"2,12,11,5,14,15,10,4,9,1,7,8,13,3,6"
14619,commdev-image-keyboard-response,202,1358824,learnblock1,1052.0999999996275,img/planet5_right.png,5,Community 1,NA,TRUE,j,j,NA,NA,NA,2,9,"2,12,11,5,14,15,10,4,9,1,7,8,13,3,6"
14619,commdev-image-keyboard-response,203,1360077,learnblock1,1133.4000000003725,img/planet11_right.png,11,Community 1,NA,TRUE,j,j,NA,NA,NA,2,9,"2,12,11,5,14,15,10,4,9,1,7,8,13,3,6"
14619,commdev-image-keyboard-response,204,1361329,learnblock1,1123.5999999996275,img/planet2_right.png,2,Community 1,NA,TRUE,j,j,NA,NA,NA,2,9,"2,12,11,5,14,15,10,4,9,1,7,8,13,3,6"
14619,commdev-image-keyboard-response,205,1362582,learnblock1,996.9000000003725,img/planet14_left.png,14,Community 1,NA,TRUE,f,f,NA,NA,NA,2,9,"2,12,11,5,14,15,10,4,9,1,7,8,13,3,6"
14619,commdev-image-keyboard-response,206,1363834,learnblock1,756.0999999996275,img/planet12_right.png,12,Community 1,NA,TRUE,j,j,NA,NA,NA,2,9,"2,12,11,5,14,15,10,4,9,1,7,8,13,3,6"
14619,commdev-image-keyboard-response,207,1365086,learnblock1,896.2999999988824,img/planet14_right.png,14,Community 1,NA,TRUE,j,j,NA,NA,NA,2,9,"2,12,11,5,14,15,10,4,9,1,7,8,13,3,6"
14619,commdev-image-keyboard-response,208,1366338,learnblock1,529.6999999992549,img/planet2_left.png,2,Community 1,NA,FALSE,j,f,NA,NA,NA,2,9,"2,12,11,5,14,15,10,4,9,1,7,8,13,3,6"
14619,commdev-image-keyboard-response,209,1367590,learnblock1,845.5,img/planet11_left.png,11,Community 1,NA,FALSE,j,f,NA,NA,NA,2,9,"2,12,11,5,14,15,10,4,9,1,7,8,13,3,6"
14619,commdev-image-keyboard-response,210,1368841,learnblock1,null,img/planet2_left.png,2,Community 1,NA,FALSE,null,f,NA,NA,NA,2,9,"2,12,11,5,14,15,10,4,9,1,7,8,13,3,6"
14619,commdev-image-keyboard-response,211,1370093,learnblock1,null,img/planet12_right.png,12,Community 1,NA,FALSE,null,j,NA,NA,NA,2,9,"2,12,11,5,14,15,10,4,9,1,7,8,13,3,6"
14619,commdev-image-keyboard-response,212,1371346,learnblock1,43.80000000074506,img/planet5_right.png,5,Community 1,NA,FALSE,f,j,NA,NA,NA,2,9,"2,12,11,5,14,15,10,4,9,1,7,8,13,3,6"
14619,commdev-image-keyboard-response,213,1372598,learnblock1,971.6999999992549,img/planet15_left.png,15,Community 2,NA,FALSE,j,f,NA,NA,NA,2,9,"2,12,11,5,14,15,10,4,9,1,7,8,13,3,6"
14619,commdev-image-keyboard-response,214,1373849,learnblock1,974.5999999996275,img/planet9_left.png,9,Community 2,NA,TRUE,f,f,NA,NA,NA,2,9,"2,12,11,5,14,15,10,4,9,1,7,8,13,3,6"
14619,commdev-image-keyboard-response,215,1375101,learnblock1,894.7999999988824,img/planet4_right.png,4,Community 2,NA,TRUE,j,j,NA,NA,NA,2,9,"2,12,11,5,14,15,10,4,9,1,7,8,13,3,6"
14619,commdev-image-keyboard-response,216,1376353,learnblock1,1071.3999999985099,img/planet8_left.png,8,Community 3,NA,TRUE,f,f,NA,NA,NA,2,9,"2,12,11,5,14,15,10,4,9,1,7,8,13,3,6"
14619,commdev-image-keyboard-response,217,1377605,learnblock1,927.4000000003725,img/planet4_left.png,4,Community 2,NA,FALSE,j,f,NA,NA,NA,2,9,"2,12,11,5,14,15,10,4,9,1,7,8,13,3,6"
14619,commdev-image-keyboard-response,218,1378858,learnblock1,1019.7999999988824,img/planet1_left.png,1,Community 2,NA,FALSE,j,f,NA,NA,NA,2,9,"2,12,11,5,14,15,10,4,9,1,7,8,13,3,6"
14619,commdev-image-keyboard-response,219,1380110,learnblock1,771.6999999992549,img/planet9_right.png,9,Community 2,NA,FALSE,f,j,NA,NA,NA,2,9,"2,12,11,5,14,15,10,4,9,1,7,8,13,3,6"
14619,commdev-image-keyboard-response,220,1381362,learnblock1,181.90000000037253,img/planet15_right.png,15,Community 2,NA,TRUE,j,j,NA,NA,NA,2,9,"2,12,11,5,14,15,10,4,9,1,7,8,13,3,6"
14619,commdev-image-keyboard-response,221,1382614,learnblock1,142.7999999988824,img/planet10_left.png,10,Community 2,NA,FALSE,j,f,NA,NA,NA,2,9,"2,12,11,5,14,15,10,4,9,1,7,8,13,3,6"
14619,commdev-image-keyboard-response,222,1383866,learnblock1,831.2000000011176,img/planet1_right.png,1,Community 2,NA,TRUE,j,j,NA,NA,NA,2,9,"2,12,11,5,14,15,10,4,9,1,7,8,13,3,6"
14619,commdev-image-keyboard-response,223,1385118,learnblock1,996.7999999988824,img/planet9_right.png,9,Community 2,NA,FALSE,f,j,NA,NA,NA,2,9,"2,12,11,5,14,15,10,4,9,1,7,8,13,3,6"
14619,commdev-image-keyboard-response,224,1386370,learnblock1,897.0999999996275,img/planet10_right.png,10,Community 2,NA,TRUE,j,j,NA,NA,NA,2,9,"2,12,11,5,14,15,10,4,9,1,7,8,13,3,6"
14619,commdev-image-keyboard-response,225,1387622,learnblock1,981.7000000011176,img/planet4_left.png,4,Community 2,NA,TRUE,f,f,NA,NA,NA,2,9,"2,12,11,5,14,15,10,4,9,1,7,8,13,3,6"
14619,commdev-image-keyboard-response,226,1388874,learnblock1,695,img/planet1_right.png,1,Community 2,NA,TRUE,j,j,NA,NA,NA,2,9,"2,12,11,5,14,15,10,4,9,1,7,8,13,3,6"
14619,commdev-image-keyboard-response,227,1390127,learnblock1,1180.2000000011176,img/planet10_right.png,10,Community 2,NA,TRUE,j,j,NA,NA,NA,2,9,"2,12,11,5,14,15,10,4,9,1,7,8,13,3,6"
14619,commdev-image-keyboard-response,228,1391378,learnblock1,810.5,img/planet4_right.png,4,Community 2,NA,FALSE,f,j,NA,NA,NA,2,9,"2,12,11,5,14,15,10,4,9,1,7,8,13,3,6"
14619,commdev-image-keyboard-response,229,1392630,learnblock1,626.2000000011176,img/planet9_left.png,9,Community 2,NA,FALSE,j,f,NA,NA,NA,2,9,"2,12,11,5,14,15,10,4,9,1,7,8,13,3,6"
14619,commdev-image-keyboard-response,230,1393882,learnblock1,826.2999999988824,img/planet10_left.png,10,Community 2,NA,TRUE,f,f,NA,NA,NA,2,9,"2,12,11,5,14,15,10,4,9,1,7,8,13,3,6"
14619,commdev-image-keyboard-response,231,1395134,learnblock1,655.2000000011176,img/planet1_left.png,1,Community 2,NA,FALSE,j,f,NA,NA,NA,2,9,"2,12,11,5,14,15,10,4,9,1,7,8,13,3,6"
14619,commdev-image-keyboard-response,232,1396385,learnblock1,null,img/planet15_left.png,15,Community 2,NA,FALSE,null,f,NA,NA,NA,2,9,"2,12,11,5,14,15,10,4,9,1,7,8,13,3,6"
14619,commdev-image-keyboard-response,233,1397637,learnblock1,null,img/planet10_left.png,10,Community 2,NA,FALSE,null,f,NA,NA,NA,2,9,"2,12,11,5,14,15,10,4,9,1,7,8,13,3,6"
14619,commdev-image-keyboard-response,234,1398889,learnblock1,971,img/planet4_right.png,4,Community 2,NA,TRUE,j,j,NA,NA,NA,2,9,"2,12,11,5,14,15,10,4,9,1,7,8,13,3,6"
14619,commdev-image-keyboard-response,235,1400142,learnblock1,910.9000000003725,img/planet8_right.png,8,Community 3,NA,TRUE,j,j,NA,NA,NA,2,9,"2,12,11,5,14,15,10,4,9,1,7,8,13,3,6"
14619,commdev-image-keyboard-response,236,1401394,learnblock1,1231.0999999996275,img/planet6_left.png,6,Community 3,NA,TRUE,f,f,NA,NA,NA,2,9,"2,12,11,5,14,15,10,4,9,1,7,8,13,3,6"
14619,commdev-image-keyboard-response,237,1402645,learnblock1,null,img/planet8_left.png,8,Community 3,NA,FALSE,null,f,NA,NA,NA,2,9,"2,12,11,5,14,15,10,4,9,1,7,8,13,3,6"
14619,commdev-image-keyboard-response,238,1403897,learnblock1,130.5,img/planet3_left.png,3,Community 3,NA,TRUE,f,f,NA,NA,NA,2,9,"2,12,11,5,14,15,10,4,9,1,7,8,13,3,6"
14619,commdev-image-keyboard-response,239,1405149,learnblock1,939.6000000014901,img/planet8_left.png,8,Community 3,NA,TRUE,f,f,NA,NA,NA,2,9,"2,12,11,5,14,15,10,4,9,1,7,8,13,3,6"
14619,commdev-image-keyboard-response,240,1406401,learnblock1,1112,img/planet13_right.png,13,Community 3,NA,TRUE,j,j,NA,NA,NA,2,9,"2,12,11,5,14,15,10,4,9,1,7,8,13,3,6"
14619,commdev-image-keyboard-response,241,1407653,learnblock1,1000.2000000011176,img/planet6_left.png,6,Community 3,NA,TRUE,f,f,NA,NA,NA,2,9,"2,12,11,5,14,15,10,4,9,1,7,8,13,3,6"
14619,commdev-image-keyboard-response,242,1408905,learnblock1,1143.5,img/planet3_left.png,3,Community 3,NA,FALSE,j,f,NA,NA,NA,2,9,"2,12,11,5,14,15,10,4,9,1,7,8,13,3,6"
14619,commdev-image-keyboard-response,243,1410156,learnblock1,null,img/planet8_right.png,8,Community 3,NA,FALSE,null,j,NA,NA,NA,2,9,"2,12,11,5,14,15,10,4,9,1,7,8,13,3,6"
14619,commdev-image-keyboard-response,244,1411408,learnblock1,null,img/planet13_left.png,13,Community 3,NA,FALSE,null,f,NA,NA,NA,2,9,"2,12,11,5,14,15,10,4,9,1,7,8,13,3,6"
14619,commdev-image-keyboard-response,245,1412660,learnblock1,null,img/planet7_right.png,7,Community 3,NA,FALSE,null,j,NA,NA,NA,2,9,"2,12,11,5,14,15,10,4,9,1,7,8,13,3,6"
14619,commdev-image-keyboard-response,246,1413912,learnblock1,962.1000000014901,img/planet13_left.png,13,Community 3,NA,TRUE,f,f,NA,NA,NA,2,9,"2,12,11,5,14,15,10,4,9,1,7,8,13,3,6"
14619,commdev-image-keyboard-response,247,1415164,learnblock1,null,img/planet6_right.png,6,Community 3,NA,FALSE,null,j,NA,NA,NA,2,9,"2,12,11,5,14,15,10,4,9,1,7,8,13,3,6"
14619,commdev-image-keyboard-response,248,1416416,learnblock1,1107.4000000003725,img/planet3_left.png,3,Community 3,NA,FALSE,j,f,NA,NA,NA,2,9,"2,12,11,5,14,15,10,4,9,1,7,8,13,3,6"
14619,commdev-image-keyboard-response,249,1417670,learnblock1,null,img/planet13_left.png,13,Community 3,NA,FALSE,null,f,NA,NA,NA,2,9,"2,12,11,5,14,15,10,4,9,1,7,8,13,3,6"
14619,commdev-image-keyboard-response,250,1418922,learnblock1,null,img/planet6_right.png,6,Community 3,NA,FALSE,null,j,NA,NA,NA,2,9,"2,12,11,5,14,15,10,4,9,1,7,8,13,3,6"
14619,commdev-image-keyboard-response,251,1420175,learnblock1,240.7000000011176,img/planet3_right.png,3,Community 3,NA,FALSE,f,j,NA,NA,NA,2,9,"2,12,11,5,14,15,10,4,9,1,7,8,13,3,6"
14619,commdev-image-keyboard-response,252,1421427,learnblock1,null,img/planet6_right.png,6,Community 3,NA,FALSE,null,j,NA,NA,NA,2,9,"2,12,11,5,14,15,10,4,9,1,7,8,13,3,6"
14619,commdev-image-keyboard-response,253,1422679,learnblock1,123,img/planet8_right.png,8,Community 3,NA,TRUE,j,j,NA,NA,NA,2,9,"2,12,11,5,14,15,10,4,9,1,7,8,13,3,6"
14619,commdev-image-keyboard-response,254,1423931,learnblock1,151.59999999962747,img/planet4_right.png,4,Community 2,NA,TRUE,j,j,NA,NA,NA,2,9,"2,12,11,5,14,15,10,4,9,1,7,8,13,3,6"
14619,commdev-image-keyboard-response,255,1425183,learnblock1,null,img/planet9_left.png,9,Community 2,NA,FALSE,null,f,NA,NA,NA,2,9,"2,12,11,5,14,15,10,4,9,1,7,8,13,3,6"
14619,commdev-image-keyboard-response,256,1426435,learnblock1,12.299999998882413,img/planet15_left.png,15,Community 2,NA,TRUE,f,f,NA,NA,NA,2,9,"2,12,11,5,14,15,10,4,9,1,7,8,13,3,6"
14619,commdev-image-keyboard-response,257,1427687,learnblock1,1190.1000000014901,img/planet1_left.png,1,Community 2,NA,TRUE,f,f,NA,NA,NA,2,9,"2,12,11,5,14,15,10,4,9,1,7,8,13,3,6"
14619,commdev-image-keyboard-response,258,1428939,learnblock1,858.6999999992549,img/planet15_right.png,15,Community 2,NA,TRUE,j,j,NA,NA,NA,2,9,"2,12,11,5,14,15,10,4,9,1,7,8,13,3,6"
14619,commdev-image-keyboard-response,259,1430190,learnblock1,1213,img/planet9_left.png,9,Community 2,NA,TRUE,f,f,NA,NA,NA,2,9,"2,12,11,5,14,15,10,4,9,1,7,8,13,3,6"
14619,commdev-image-keyboard-response,260,1431442,learnblock1,1068.0999999996275,img/planet15_left.png,15,Community 2,NA,TRUE,f,f,NA,NA,NA,2,9,"2,12,11,5,14,15,10,4,9,1,7,8,13,3,6"
14619,commdev-image-keyboard-response,261,1432694,learnblock1,783.9000000003725,img/planet10_left.png,10,Community 2,NA,TRUE,f,f,NA,NA,NA,2,9,"2,12,11,5,14,15,10,4,9,1,7,8,13,3,6"
14619,commdev-image-keyboard-response,262,1433946,learnblock1,782.3000000007451,img/planet15_left.png,15,Community 2,NA,TRUE,f,f,NA,NA,NA,2,9,"2,12,11,5,14,15,10,4,9,1,7,8,13,3,6"
14619,commdev-image-keyboard-response,263,1435198,learnblock1,818.1999999992549,img/planet5_left.png,5,Community 1,NA,TRUE,f,f,NA,NA,NA,2,9,"2,12,11,5,14,15,10,4,9,1,7,8,13,3,6"
14619,commdev-image-keyboard-response,264,1436451,learnblock1,839.7000000011176,img/planet2_right.png,2,Community 1,NA,TRUE,j,j,NA,NA,NA,2,9,"2,12,11,5,14,15,10,4,9,1,7,8,13,3,6"
14619,commdev-image-keyboard-response,265,1437703,learnblock1,1218.300000000745,img/planet14_right.png,14,Community 1,NA,TRUE,j,j,NA,NA,NA,2,9,"2,12,11,5,14,15,10,4,9,1,7,8,13,3,6"
14619,commdev-image-keyboard-response,266,1438957,learnblock1,1061.199999999255,img/planet7_left.png,7,Community 3,NA,FALSE,j,f,NA,NA,NA,2,9,"2,12,11,5,14,15,10,4,9,1,7,8,13,3,6"
14619,commdev-image-keyboard-response,267,1440208,learnblock1,892.9000000003725,img/planet13_left.png,13,Community 3,NA,TRUE,f,f,NA,NA,NA,2,9,"2,12,11,5,14,15,10,4,9,1,7,8,13,3,6"
14619,commdev-image-keyboard-response,268,1441460,learnblock1,681,img/planet3_right.png,3,Community 3,NA,TRUE,j,j,NA,NA,NA,2,9,"2,12,11,5,14,15,10,4,9,1,7,8,13,3,6"
14619,commdev-image-keyboard-response,269,1442712,learnblock1,null,img/planet7_right.png,7,Community 3,NA,FALSE,null,j,NA,NA,NA,2,9,"2,12,11,5,14,15,10,4,9,1,7,8,13,3,6"
14619,commdev-image-keyboard-response,270,1443964,learnblock1,71,img/planet3_left.png,3,Community 3,NA,FALSE,j,f,NA,NA,NA,2,9,"2,12,11,5,14,15,10,4,9,1,7,8,13,3,6"
14619,commdev-image-keyboard-response,271,1445216,learnblock1,876.2000000011176,img/planet13_right.png,13,Community 3,NA,TRUE,j,j,NA,NA,NA,2,9,"2,12,11,5,14,15,10,4,9,1,7,8,13,3,6"
14619,commdev-image-keyboard-response,272,1446468,learnblock1,918.4000000003725,img/planet8_right.png,8,Community 3,NA,FALSE,f,j,NA,NA,NA,2,9,"2,12,11,5,14,15,10,4,9,1,7,8,13,3,6"
14619,commdev-image-keyboard-response,273,1447720,learnblock1,652.3000000007451,img/planet4_left.png,4,Community 2,NA,FALSE,j,f,NA,NA,NA,2,9,"2,12,11,5,14,15,10,4,9,1,7,8,13,3,6"
14619,commdev-image-keyboard-response,274,1448972,learnblock1,750.5999999996275,img/planet8_left.png,8,Community 3,NA,TRUE,f,f,NA,NA,NA,2,9,"2,12,11,5,14,15,10,4,9,1,7,8,13,3,6"
14619,commdev-image-keyboard-response,275,1450224,learnblock1,657.7000000011176,img/planet6_left.png,6,Community 3,NA,FALSE,j,f,NA,NA,NA,2,9,"2,12,11,5,14,15,10,4,9,1,7,8,13,3,6"
14619,commdev-image-keyboard-response,276,1451476,learnblock1,704.4000000003725,img/planet8_right.png,8,Community 3,NA,FALSE,f,j,NA,NA,NA,2,9,"2,12,11,5,14,15,10,4,9,1,7,8,13,3,6"
14619,commdev-image-keyboard-response,277,1452728,learnblock1,600,img/planet4_left.png,4,Community 2,NA,FALSE,j,f,NA,NA,NA,2,9,"2,12,11,5,14,15,10,4,9,1,7,8,13,3,6"
14619,commdev-image-keyboard-response,278,1453980,learnblock1,null,img/planet1_left.png,1,Community 2,NA,FALSE,null,f,NA,NA,NA,2,9,"2,12,11,5,14,15,10,4,9,1,7,8,13,3,6"
14619,commdev-image-keyboard-response,279,1455232,learnblock1,null,img/planet9_left.png,9,Community 2,NA,FALSE,null,f,NA,NA,NA,2,9,"2,12,11,5,14,15,10,4,9,1,7,8,13,3,6"
14619,commdev-image-keyboard-response,280,1456484,learnblock1,59.20000000111759,img/planet4_right.png,4,Community 2,NA,FALSE,f,j,NA,NA,NA,2,9,"2,12,11,5,14,15,10,4,9,1,7,8,13,3,6"
14619,commdev-image-keyboard-response,281,1457735,learnblock1,null,img/planet1_left.png,1,Community 2,NA,FALSE,null,f,NA,NA,NA,2,9,"2,12,11,5,14,15,10,4,9,1,7,8,13,3,6"
14619,commdev-image-keyboard-response,282,1458987,learnblock1,65.70000000111759,img/planet9_right.png,9,Community 2,NA,FALSE,f,j,NA,NA,NA,2,9,"2,12,11,5,14,15,10,4,9,1,7,8,13,3,6"
14619,commdev-image-keyboard-response,283,1460239,learnblock1,1099.4000000003725,img/planet15_right.png,15,Community 2,NA,TRUE,j,j,NA,NA,NA,2,9,"2,12,11,5,14,15,10,4,9,1,7,8,13,3,6"
14619,commdev-image-keyboard-response,284,1461491,learnblock1,886.5,img/planet1_right.png,1,Community 2,NA,TRUE,j,j,NA,NA,NA,2,9,"2,12,11,5,14,15,10,4,9,1,7,8,13,3,6"
14619,commdev-image-keyboard-response,285,1462742,learnblock1,662.1999999992549,img/planet4_left.png,4,Community 2,NA,TRUE,f,f,NA,NA,NA,2,9,"2,12,11,5,14,15,10,4,9,1,7,8,13,3,6"
14619,commdev-image-keyboard-response,286,1463995,learnblock1,521.8000000007451,img/planet9_left.png,9,Community 2,NA,FALSE,j,f,NA,NA,NA,2,9,"2,12,11,5,14,15,10,4,9,1,7,8,13,3,6"
14619,commdev-image-keyboard-response,287,1465247,learnblock1,1054.2999999988824,img/planet4_left.png,4,Community 2,NA,TRUE,f,f,NA,NA,NA,2,9,"2,12,11,5,14,15,10,4,9,1,7,8,13,3,6"
14619,commdev-image-keyboard-response,288,1466499,learnblock1,1037.9000000003725,img/planet8_right.png,8,Community 3,NA,FALSE,f,j,NA,NA,NA,2,9,"2,12,11,5,14,15,10,4,9,1,7,8,13,3,6"
14619,commdev-image-keyboard-response,289,1467751,learnblock1,49.40000000037253,img/planet4_right.png,4,Community 2,NA,TRUE,j,j,NA,NA,NA,2,9,"2,12,11,5,14,15,10,4,9,1,7,8,13,3,6"
14619,commdev-image-keyboard-response,290,1469003,learnblock1,1131.7999999988824,img/planet10_left.png,10,Community 2,NA,FALSE,j,f,NA,NA,NA,2,9,"2,12,11,5,14,15,10,4,9,1,7,8,13,3,6"
14619,commdev-image-keyboard-response,291,1470255,learnblock1,null,img/planet9_right.png,9,Community 2,NA,FALSE,null,j,NA,NA,NA,2,9,"2,12,11,5,14,15,10,4,9,1,7,8,13,3,6"
14619,commdev-image-keyboard-response,292,1471506,learnblock1,825.0999999996275,img/planet1_left.png,1,Community 2,NA,FALSE,j,f,NA,NA,NA,2,9,"2,12,11,5,14,15,10,4,9,1,7,8,13,3,6"
14619,commdev-image-keyboard-response,293,1472758,learnblock1,197.2999999988824,img/planet15_left.png,15,Community 2,NA,FALSE,j,f,NA,NA,NA,2,9,"2,12,11,5,14,15,10,4,9,1,7,8,13,3,6"
14619,commdev-image-keyboard-response,294,1474011,learnblock1,21.09999999962747,img/planet9_left.png,9,Community 2,NA,FALSE,j,f,NA,NA,NA,2,9,"2,12,11,5,14,15,10,4,9,1,7,8,13,3,6"
14619,commdev-image-keyboard-response,295,1475262,learnblock1,27.200000001117587,img/planet4_right.png,4,Community 2,NA,FALSE,f,j,NA,NA,NA,2,9,"2,12,11,5,14,15,10,4,9,1,7,8,13,3,6"
14619,commdev-image-keyboard-response,296,1476514,learnblock1,215.30000000074506,img/planet10_left.png,10,Community 2,NA,FALSE,j,f,NA,NA,NA,2,9,"2,12,11,5,14,15,10,4,9,1,7,8,13,3,6"
14619,commdev-image-keyboard-response,297,1477767,learnblock1,1202.9000000003725,img/planet1_right.png,1,Community 2,NA,TRUE,j,j,NA,NA,NA,2,9,"2,12,11,5,14,15,10,4,9,1,7,8,13,3,6"
14619,commdev-image-keyboard-response,298,1479018,learnblock1,null,img/planet10_right.png,10,Community 2,NA,FALSE,null,j,NA,NA,NA,2,9,"2,12,11,5,14,15,10,4,9,1,7,8,13,3,6"
14619,commdev-image-keyboard-response,299,1480271,learnblock1,1109.9000000003725,img/planet4_left.png,4,Community 2,NA,TRUE,f,f,NA,NA,NA,2,9,"2,12,11,5,14,15,10,4,9,1,7,8,13,3,6"
14619,commdev-image-keyboard-response,300,1481523,learnblock1,1209.5999999996275,img/planet9_left.png,9,Community 2,NA,TRUE,f,f,NA,NA,NA,2,9,"2,12,11,5,14,15,10,4,9,1,7,8,13,3,6"
14619,commdev-image-keyboard-response,301,1482775,learnblock1,1094.2000000011176,img/planet15_left.png,15,Community 2,NA,TRUE,f,f,NA,NA,NA,2,9,"2,12,11,5,14,15,10,4,9,1,7,8,13,3,6"
14619,commdev-image-keyboard-response,302,1484026,learnblock1,952.8999999985099,img/planet10_left.png,10,Community 2,NA,TRUE,f,f,NA,NA,NA,2,9,"2,12,11,5,14,15,10,4,9,1,7,8,13,3,6"
14619,commdev-image-keyboard-response,303,1485278,learnblock1,975.0999999996275,img/planet4_left.png,4,Community 2,NA,TRUE,f,f,NA,NA,NA,2,9,"2,12,11,5,14,15,10,4,9,1,7,8,13,3,6"
14619,commdev-image-keyboard-response,304,1486532,learnblock1,677.7999999988824,img/planet10_left.png,10,Community 2,NA,TRUE,f,f,NA,NA,NA,2,9,"2,12,11,5,14,15,10,4,9,1,7,8,13,3,6"
14619,commdev-image-keyboard-response,305,1487783,learnblock1,724.0999999996275,img/planet1_left.png,1,Community 2,NA,TRUE,f,f,NA,NA,NA,2,9,"2,12,11,5,14,15,10,4,9,1,7,8,13,3,6"
14619,commdev-image-keyboard-response,306,1489035,learnblock1,522.8000000007451,img/planet10_right.png,10,Community 2,NA,TRUE,j,j,NA,NA,NA,2,9,"2,12,11,5,14,15,10,4,9,1,7,8,13,3,6"
14619,commdev-image-keyboard-response,307,1490287,learnblock1,843.3000000007451,img/planet4_left.png,4,Community 2,NA,TRUE,f,f,NA,NA,NA,2,9,"2,12,11,5,14,15,10,4,9,1,7,8,13,3,6"
14619,commdev-image-keyboard-response,308,1491538,learnblock1,988.9000000003725,img/planet10_left.png,10,Community 2,NA,TRUE,f,f,NA,NA,NA,2,9,"2,12,11,5,14,15,10,4,9,1,7,8,13,3,6"
14619,commdev-image-keyboard-response,309,1492790,learnblock1,771.6999999992549,img/planet9_left.png,9,Community 2,NA,TRUE,f,f,NA,NA,NA,2,9,"2,12,11,5,14,15,10,4,9,1,7,8,13,3,6"
14619,commdev-image-keyboard-response,310,1494041,learnblock1,683.5,img/planet1_left.png,1,Community 2,NA,TRUE,f,f,NA,NA,NA,2,9,"2,12,11,5,14,15,10,4,9,1,7,8,13,3,6"
14619,commdev-image-keyboard-response,311,1495293,learnblock1,603.1999999992549,img/planet15_right.png,15,Community 2,NA,TRUE,j,j,NA,NA,NA,2,9,"2,12,11,5,14,15,10,4,9,1,7,8,13,3,6"
14619,commdev-image-keyboard-response,312,1496546,learnblock1,875.8000000007451,img/planet10_left.png,10,Community 2,NA,TRUE,f,f,NA,NA,NA,2,9,"2,12,11,5,14,15,10,4,9,1,7,8,13,3,6"
14619,commdev-image-keyboard-response,313,1497798,learnblock1,1067.4000000003725,img/planet9_left.png,9,Community 2,NA,TRUE,f,f,NA,NA,NA,2,9,"2,12,11,5,14,15,10,4,9,1,7,8,13,3,6"
14619,commdev-image-keyboard-response,314,1499050,learnblock1,803.1999999992549,img/planet10_right.png,10,Community 2,NA,FALSE,f,j,NA,NA,NA,2,9,"2,12,11,5,14,15,10,4,9,1,7,8,13,3,6"
14619,commdev-image-keyboard-response,315,1500302,learnblock1,685.9000000003725,img/planet9_left.png,9,Community 2,NA,FALSE,j,f,NA,NA,NA,2,9,"2,12,11,5,14,15,10,4,9,1,7,8,13,3,6"
14619,commdev-image-keyboard-response,316,1501554,learnblock1,817,img/planet1_left.png,1,Community 2,NA,TRUE,f,f,NA,NA,NA,2,9,"2,12,11,5,14,15,10,4,9,1,7,8,13,3,6"
14619,commdev-image-keyboard-response,317,1502805,learnblock1,1245.2000000011176,img/planet9_right.png,9,Community 2,NA,TRUE,j,j,NA,NA,NA,2,9,"2,12,11,5,14,15,10,4,9,1,7,8,13,3,6"
14619,commdev-image-keyboard-response,318,1504057,learnblock1,881.5,img/planet4_right.png,4,Community 2,NA,FALSE,f,j,NA,NA,NA,2,9,"2,12,11,5,14,15,10,4,9,1,7,8,13,3,6"
14619,commdev-image-keyboard-response,319,1505308,learnblock1,null,img/planet1_left.png,1,Community 2,NA,FALSE,null,f,NA,NA,NA,2,9,"2,12,11,5,14,15,10,4,9,1,7,8,13,3,6"
14619,commdev-image-keyboard-response,320,1506560,learnblock1,56.90000000037253,img/planet4_left.png,4,Community 2,NA,TRUE,f,f,NA,NA,NA,2,9,"2,12,11,5,14,15,10,4,9,1,7,8,13,3,6"
14619,commdev-image-keyboard-response,321,1507812,learnblock1,534.6999999992549,img/planet10_left.png,10,Community 2,NA,TRUE,f,f,NA,NA,NA,2,9,"2,12,11,5,14,15,10,4,9,1,7,8,13,3,6"
14619,commdev-image-keyboard-response,322,1509064,learnblock1,347.2000000011176,img/planet4_right.png,4,Community 2,NA,FALSE,f,j,NA,NA,NA,2,9,"2,12,11,5,14,15,10,4,9,1,7,8,13,3,6"
14619,commdev-image-keyboard-response,323,1510316,learnblock1,null,img/planet10_right.png,10,Community 2,NA,FALSE,null,j,NA,NA,NA,2,9,"2,12,11,5,14,15,10,4,9,1,7,8,13,3,6"
14619,commdev-image-keyboard-response,324,1511568,learnblock1,null,img/planet15_left.png,15,Community 2,NA,FALSE,null,f,NA,NA,NA,2,9,"2,12,11,5,14,15,10,4,9,1,7,8,13,3,6"
14619,commdev-image-keyboard-response,325,1512820,learnblock1,null,img/planet9_left.png,9,Community 2,NA,FALSE,null,f,NA,NA,NA,2,9,"2,12,11,5,14,15,10,4,9,1,7,8,13,3,6"
14619,commdev-image-keyboard-response,326,1514072,learnblock1,null,img/planet15_right.png,15,Community 2,NA,FALSE,null,j,NA,NA,NA,2,9,"2,12,11,5,14,15,10,4,9,1,7,8,13,3,6"
14619,commdev-image-keyboard-response,327,1515324,learnblock1,null,img/planet5_left.png,5,Community 1,NA,FALSE,null,f,NA,NA,NA,2,9,"2,12,11,5,14,15,10,4,9,1,7,8,13,3,6"
14619,commdev-image-keyboard-response,328,1516576,learnblock1,509.5,img/planet2_right.png,2,Community 1,NA,FALSE,f,j,NA,NA,NA,2,9,"2,12,11,5,14,15,10,4,9,1,7,8,13,3,6"
14619,commdev-image-keyboard-response,329,1517828,learnblock1,null,img/planet5_left.png,5,Community 1,NA,FALSE,null,f,NA,NA,NA,2,9,"2,12,11,5,14,15,10,4,9,1,7,8,13,3,6"
14619,commdev-image-keyboard-response,330,1519080,learnblock1,null,img/planet2_left.png,2,Community 1,NA,FALSE,null,f,NA,NA,NA,2,9,"2,12,11,5,14,15,10,4,9,1,7,8,13,3,6"
14619,commdev-image-keyboard-response,331,1520331,learnblock1,1050.9000000003725,img/planet5_left.png,5,Community 1,NA,TRUE,f,f,NA,NA,NA,2,9,"2,12,11,5,14,15,10,4,9,1,7,8,13,3,6"
14619,commdev-image-keyboard-response,332,1521583,learnblock1,1248.5999999996275,img/planet11_right.png,11,Community 1,NA,TRUE,j,j,NA,NA,NA,2,9,"2,12,11,5,14,15,10,4,9,1,7,8,13,3,6"
14619,commdev-image-keyboard-response,333,1522835,learnblock1,null,img/planet12_left.png,12,Community 1,NA,FALSE,null,f,NA,NA,NA,2,9,"2,12,11,5,14,15,10,4,9,1,7,8,13,3,6"
14619,commdev-image-keyboard-response,334,1524087,learnblock1,1247.699999999255,img/planet5_right.png,5,Community 1,NA,TRUE,j,j,NA,NA,NA,2,9,"2,12,11,5,14,15,10,4,9,1,7,8,13,3,6"
14619,commdev-image-keyboard-response,335,1525339,learnblock1,1086.4000000003725,img/planet12_left.png,12,Community 1,NA,TRUE,f,f,NA,NA,NA,2,9,"2,12,11,5,14,15,10,4,9,1,7,8,13,3,6"
14619,commdev-image-keyboard-response,336,1526590,learnblock1,1012.6999999992549,img/planet14_right.png,14,Community 1,NA,TRUE,j,j,NA,NA,NA,2,9,"2,12,11,5,14,15,10,4,9,1,7,8,13,3,6"
14619,commdev-image-keyboard-response,337,1527842,learnblock1,962.5999999996275,img/planet2_right.png,2,Community 1,NA,FALSE,f,j,NA,NA,NA,2,9,"2,12,11,5,14,15,10,4,9,1,7,8,13,3,6"
14619,commdev-image-keyboard-response,338,1529095,learnblock1,895.7000000011176,img/planet14_left.png,14,Community 1,NA,FALSE,j,f,NA,NA,NA,2,9,"2,12,11,5,14,15,10,4,9,1,7,8,13,3,6"
14619,commdev-image-keyboard-response,339,1530347,learnblock1,null,img/planet12_right.png,12,Community 1,NA,FALSE,null,j,NA,NA,NA,2,9,"2,12,11,5,14,15,10,4,9,1,7,8,13,3,6"
14619,commdev-image-keyboard-response,340,1531601,learnblock1,null,img/planet5_right.png,5,Community 1,NA,FALSE,null,j,NA,NA,NA,2,9,"2,12,11,5,14,15,10,4,9,1,7,8,13,3,6"
14619,commdev-image-keyboard-response,341,1532853,learnblock1,null,img/planet2_right.png,2,Community 1,NA,FALSE,null,j,NA,NA,NA,2,9,"2,12,11,5,14,15,10,4,9,1,7,8,13,3,6"
14619,commdev-image-keyboard-response,342,1534105,learnblock1,733.0999999996275,img/planet14_left.png,14,Community 1,NA,TRUE,f,f,NA,NA,NA,2,9,"2,12,11,5,14,15,10,4,9,1,7,8,13,3,6"
14619,commdev-image-keyboard-response,343,1535357,learnblock1,null,img/planet7_right.png,7,Community 3,NA,FALSE,null,j,NA,NA,NA,2,9,"2,12,11,5,14,15,10,4,9,1,7,8,13,3,6"
14619,commdev-image-keyboard-response,344,1536610,learnblock1,102.80000000074506,img/planet13_right.png,13,Community 3,NA,TRUE,j,j,NA,NA,NA,2,9,"2,12,11,5,14,15,10,4,9,1,7,8,13,3,6"
14619,commdev-image-keyboard-response,345,1537862,learnblock1,null,img/planet3_right.png,3,Community 3,NA,FALSE,null,j,NA,NA,NA,2,9,"2,12,11,5,14,15,10,4,9,1,7,8,13,3,6"
14619,commdev-image-keyboard-response,346,1539114,learnblock1,null,img/planet8_right.png,8,Community 3,NA,FALSE,null,j,NA,NA,NA,2,9,"2,12,11,5,14,15,10,4,9,1,7,8,13,3,6"
14619,commdev-image-keyboard-response,347,1540366,learnblock1,null,img/planet6_right.png,6,Community 3,NA,FALSE,null,j,NA,NA,NA,2,9,"2,12,11,5,14,15,10,4,9,1,7,8,13,3,6"
14619,commdev-image-keyboard-response,348,1541617,learnblock1,null,img/planet8_left.png,8,Community 3,NA,FALSE,null,f,NA,NA,NA,2,9,"2,12,11,5,14,15,10,4,9,1,7,8,13,3,6"
14619,commdev-image-keyboard-response,349,1542869,learnblock1,null,img/planet4_left.png,4,Community 2,NA,FALSE,null,f,NA,NA,NA,2,9,"2,12,11,5,14,15,10,4,9,1,7,8,13,3,6"
14619,commdev-image-keyboard-response,350,1544121,learnblock1,null,img/planet1_right.png,1,Community 2,NA,FALSE,null,j,NA,NA,NA,2,9,"2,12,11,5,14,15,10,4,9,1,7,8,13,3,6"
14619,commdev-image-keyboard-response,351,1545373,learnblock1,null,img/planet15_right.png,15,Community 2,NA,FALSE,null,j,NA,NA,NA,2,9,"2,12,11,5,14,15,10,4,9,1,7,8,13,3,6"
14619,commdev-image-keyboard-response,352,1546625,learnblock1,193,img/planet5_left.png,5,Community 1,NA,FALSE,j,f,NA,NA,NA,2,9,"2,12,11,5,14,15,10,4,9,1,7,8,13,3,6"
14619,commdev-image-keyboard-response,353,1547877,learnblock1,null,img/planet15_left.png,15,Community 2,NA,FALSE,null,f,NA,NA,NA,2,9,"2,12,11,5,14,15,10,4,9,1,7,8,13,3,6"
14619,commdev-image-keyboard-response,354,1549129,learnblock1,null,img/planet10_left.png,10,Community 2,NA,FALSE,null,f,NA,NA,NA,2,9,"2,12,11,5,14,15,10,4,9,1,7,8,13,3,6"
14619,commdev-image-keyboard-response,355,1550381,learnblock1,null,img/planet4_left.png,4,Community 2,NA,FALSE,null,f,NA,NA,NA,2,9,"2,12,11,5,14,15,10,4,9,1,7,8,13,3,6"
14619,commdev-image-keyboard-response,356,1551633,learnblock1,788.7000000011176,img/planet10_right.png,10,Community 2,NA,TRUE,j,j,NA,NA,NA,2,9,"2,12,11,5,14,15,10,4,9,1,7,8,13,3,6"
14619,commdev-image-keyboard-response,357,1552885,learnblock1,603.5,img/planet9_left.png,9,Community 2,NA,FALSE,j,f,NA,NA,NA,2,9,"2,12,11,5,14,15,10,4,9,1,7,8,13,3,6"
14619,commdev-image-keyboard-response,358,1554137,learnblock1,119.90000000037253,img/planet1_left.png,1,Community 2,NA,FALSE,j,f,NA,NA,NA,2,9,"2,12,11,5,14,15,10,4,9,1,7,8,13,3,6"
14619,commdev-image-keyboard-response,359,1555389,learnblock1,916.7000000011176,img/planet15_right.png,15,Community 2,NA,TRUE,j,j,NA,NA,NA,2,9,"2,12,11,5,14,15,10,4,9,1,7,8,13,3,6"
14619,commdev-image-keyboard-response,360,1556641,learnblock1,701.0999999996275,img/planet10_right.png,10,Community 2,NA,TRUE,j,j,NA,NA,NA,2,9,"2,12,11,5,14,15,10,4,9,1,7,8,13,3,6"
14619,commdev-image-keyboard-response,361,1557893,learnblock1,null,img/planet15_left.png,15,Community 2,NA,FALSE,null,f,NA,NA,NA,2,9,"2,12,11,5,14,15,10,4,9,1,7,8,13,3,6"
14619,commdev-image-keyboard-response,362,1559145,learnblock1,1040.199999999255,img/planet9_right.png,9,Community 2,NA,TRUE,j,j,NA,NA,NA,2,9,"2,12,11,5,14,15,10,4,9,1,7,8,13,3,6"
14619,commdev-image-keyboard-response,363,1560397,learnblock1,null,img/planet4_left.png,4,Community 2,NA,FALSE,null,f,NA,NA,NA,2,9,"2,12,11,5,14,15,10,4,9,1,7,8,13,3,6"
14619,commdev-image-keyboard-response,364,1561648,learnblock1,null,img/planet9_left.png,9,Community 2,NA,FALSE,null,f,NA,NA,NA,2,9,"2,12,11,5,14,15,10,4,9,1,7,8,13,3,6"
14619,commdev-image-keyboard-response,365,1562901,learnblock1,717.8000000007451,img/planet15_left.png,15,Community 2,NA,FALSE,j,f,NA,NA,NA,2,9,"2,12,11,5,14,15,10,4,9,1,7,8,13,3,6"
14619,commdev-image-keyboard-response,366,1564153,learnblock1,null,img/planet1_right.png,1,Community 2,NA,FALSE,null,j,NA,NA,NA,2,9,"2,12,11,5,14,15,10,4,9,1,7,8,13,3,6"
14619,commdev-image-keyboard-response,367,1565404,learnblock1,null,img/planet4_right.png,4,Community 2,NA,FALSE,null,j,NA,NA,NA,2,9,"2,12,11,5,14,15,10,4,9,1,7,8,13,3,6"
14619,commdev-image-keyboard-response,368,1566656,learnblock1,null,img/planet8_left.png,8,Community 3,NA,FALSE,null,f,NA,NA,NA,2,9,"2,12,11,5,14,15,10,4,9,1,7,8,13,3,6"
14619,commdev-image-keyboard-response,369,1567908,learnblock1,null,img/planet3_right.png,3,Community 3,NA,FALSE,null,j,NA,NA,NA,2,9,"2,12,11,5,14,15,10,4,9,1,7,8,13,3,6"
14619,commdev-image-keyboard-response,370,1569160,learnblock1,null,img/planet6_right.png,6,Community 3,NA,FALSE,null,j,NA,NA,NA,2,9,"2,12,11,5,14,15,10,4,9,1,7,8,13,3,6"
14619,commdev-image-keyboard-response,371,1570412,learnblock1,null,img/planet3_left.png,3,Community 3,NA,FALSE,null,f,NA,NA,NA,2,9,"2,12,11,5,14,15,10,4,9,1,7,8,13,3,6"
14619,commdev-image-keyboard-response,372,1571663,learnblock1,957.7000000011176,img/planet13_left.png,13,Community 3,NA,FALSE,j,f,NA,NA,NA,2,9,"2,12,11,5,14,15,10,4,9,1,7,8,13,3,6"
14619,commdev-image-keyboard-response,373,1572915,learnblock1,null,img/planet6_left.png,6,Community 3,NA,FALSE,null,f,NA,NA,NA,2,9,"2,12,11,5,14,15,10,4,9,1,7,8,13,3,6"
14619,commdev-image-keyboard-response,374,1574167,learnblock1,1014.4000000003725,img/planet7_right.png,7,Community 3,NA,TRUE,j,j,NA,NA,NA,2,9,"2,12,11,5,14,15,10,4,9,1,7,8,13,3,6"
14619,commdev-image-keyboard-response,375,1575420,learnblock1,null,img/planet6_right.png,6,Community 3,NA,FALSE,null,j,NA,NA,NA,2,9,"2,12,11,5,14,15,10,4,9,1,7,8,13,3,6"
14619,commdev-image-keyboard-response,376,1576672,learnblock1,971.6999999992549,img/planet8_left.png,8,Community 3,NA,FALSE,j,f,NA,NA,NA,2,9,"2,12,11,5,14,15,10,4,9,1,7,8,13,3,6"
14619,commdev-image-keyboard-response,377,1577934,learnblock1,null,img/planet13_right.png,13,Community 3,NA,FALSE,null,j,NA,NA,NA,2,9,"2,12,11,5,14,15,10,4,9,1,7,8,13,3,6"
14619,commdev-image-keyboard-response,378,1579186,learnblock1,9.599999999627471,img/planet3_left.png,3,Community 3,NA,FALSE,j,f,NA,NA,NA,2,9,"2,12,11,5,14,15,10,4,9,1,7,8,13,3,6"
14619,commdev-image-keyboard-response,379,1580439,learnblock1,null,img/planet13_right.png,13,Community 3,NA,FALSE,null,j,NA,NA,NA,2,9,"2,12,11,5,14,15,10,4,9,1,7,8,13,3,6"
14619,commdev-image-keyboard-response,380,1581690,learnblock1,null,img/planet8_left.png,8,Community 3,NA,FALSE,null,f,NA,NA,NA,2,9,"2,12,11,5,14,15,10,4,9,1,7,8,13,3,6"
14619,commdev-image-keyboard-response,381,1582942,learnblock1,null,img/planet4_right.png,4,Community 2,NA,FALSE,null,j,NA,NA,NA,2,9,"2,12,11,5,14,15,10,4,9,1,7,8,13,3,6"
14619,commdev-image-keyboard-response,382,1584194,learnblock1,864.0999999996275,img/planet8_right.png,8,Community 3,NA,TRUE,j,j,NA,NA,NA,2,9,"2,12,11,5,14,15,10,4,9,1,7,8,13,3,6"
14619,commdev-image-keyboard-response,383,1585446,learnblock1,null,img/planet3_left.png,3,Community 3,NA,FALSE,null,f,NA,NA,NA,2,9,"2,12,11,5,14,15,10,4,9,1,7,8,13,3,6"
14619,commdev-image-keyboard-response,384,1586697,learnblock1,null,img/planet13_left.png,13,Community 3,NA,FALSE,null,f,NA,NA,NA,2,9,"2,12,11,5,14,15,10,4,9,1,7,8,13,3,6"
14619,commdev-image-keyboard-response,385,1587949,learnblock1,null,img/planet8_right.png,8,Community 3,NA,FALSE,null,j,NA,NA,NA,2,9,"2,12,11,5,14,15,10,4,9,1,7,8,13,3,6"
14619,commdev-image-keyboard-response,386,1589201,learnblock1,null,img/planet6_left.png,6,Community 3,NA,FALSE,null,f,NA,NA,NA,2,9,"2,12,11,5,14,15,10,4,9,1,7,8,13,3,6"
14619,commdev-image-keyboard-response,387,1590453,learnblock1,null,img/planet3_left.png,3,Community 3,NA,FALSE,null,f,NA,NA,NA,2,9,"2,12,11,5,14,15,10,4,9,1,7,8,13,3,6"
14619,commdev-image-keyboard-response,388,1591705,learnblock1,53.09999999962747,img/planet7_left.png,7,Community 3,NA,FALSE,j,f,NA,NA,NA,2,9,"2,12,11,5,14,15,10,4,9,1,7,8,13,3,6"
14619,commdev-image-keyboard-response,389,1592957,learnblock1,null,img/planet14_left.png,14,Community 1,NA,FALSE,null,f,NA,NA,NA,2,9,"2,12,11,5,14,15,10,4,9,1,7,8,13,3,6"
14619,commdev-image-keyboard-response,390,1594209,learnblock1,null,img/planet2_left.png,2,Community 1,NA,FALSE,null,f,NA,NA,NA,2,9,"2,12,11,5,14,15,10,4,9,1,7,8,13,3,6"
14619,commdev-image-keyboard-response,391,1595461,learnblock1,828.7000000011176,img/planet11_right.png,11,Community 1,NA,TRUE,j,j,NA,NA,NA,2,9,"2,12,11,5,14,15,10,4,9,1,7,8,13,3,6"
14619,commdev-image-keyboard-response,392,1596713,learnblock1,712,img/planet2_right.png,2,Community 1,NA,TRUE,j,j,NA,NA,NA,2,9,"2,12,11,5,14,15,10,4,9,1,7,8,13,3,6"
14619,commdev-image-keyboard-response,393,1597966,learnblock1,null,img/planet11_right.png,11,Community 1,NA,FALSE,null,j,NA,NA,NA,2,9,"2,12,11,5,14,15,10,4,9,1,7,8,13,3,6"
14619,commdev-image-keyboard-response,394,1599218,learnblock1,1016.0999999996275,img/planet5_left.png,5,Community 1,NA,FALSE,j,f,NA,NA,NA,2,9,"2,12,11,5,14,15,10,4,9,1,7,8,13,3,6"
14619,commdev-image-keyboard-response,395,1600469,learnblock1,null,img/planet12_left.png,12,Community 1,NA,FALSE,null,f,NA,NA,NA,2,9,"2,12,11,5,14,15,10,4,9,1,7,8,13,3,6"
14619,commdev-image-keyboard-response,396,1601720,learnblock1,null,img/planet14_left.png,14,Community 1,NA,FALSE,null,f,NA,NA,NA,2,9,"2,12,11,5,14,15,10,4,9,1,7,8,13,3,6"
14619,commdev-image-keyboard-response,397,1602972,learnblock1,876.9000000003725,img/planet2_right.png,2,Community 1,NA,TRUE,j,j,NA,NA,NA,2,9,"2,12,11,5,14,15,10,4,9,1,7,8,13,3,6"
14619,commdev-image-keyboard-response,398,1604225,learnblock1,null,img/planet11_right.png,11,Community 1,NA,FALSE,null,j,NA,NA,NA,2,9,"2,12,11,5,14,15,10,4,9,1,7,8,13,3,6"
14619,commdev-image-keyboard-response,399,1605477,learnblock1,901.5,img/planet2_left.png,2,Community 1,NA,FALSE,j,f,NA,NA,NA,2,9,"2,12,11,5,14,15,10,4,9,1,7,8,13,3,6"
14619,commdev-image-keyboard-response,400,1606729,learnblock1,null,img/planet12_left.png,12,Community 1,NA,FALSE,null,f,NA,NA,NA,2,9,"2,12,11,5,14,15,10,4,9,1,7,8,13,3,6"
14619,commdev-image-keyboard-response,401,1607982,learnblock1,1205.4000000003725,img/planet2_right.png,2,Community 1,NA,TRUE,j,j,NA,NA,NA,2,9,"2,12,11,5,14,15,10,4,9,1,7,8,13,3,6"
14619,commdev-image-keyboard-response,402,1609234,learnblock1,null,img/planet5_left.png,5,Community 1,NA,FALSE,null,f,NA,NA,NA,2,9,"2,12,11,5,14,15,10,4,9,1,7,8,13,3,6"
14619,commdev-image-keyboard-response,403,1610485,learnblock1,40.59999999962747,img/planet2_right.png,2,Community 1,NA,TRUE,j,j,NA,NA,NA,2,9,"2,12,11,5,14,15,10,4,9,1,7,8,13,3,6"
14619,commdev-image-keyboard-response,404,1611737,learnblock1,913,img/planet12_left.png,12,Community 1,NA,FALSE,j,f,NA,NA,NA,2,9,"2,12,11,5,14,15,10,4,9,1,7,8,13,3,6"
14619,commdev-image-keyboard-response,405,1612989,learnblock1,125.70000000111759,img/planet14_right.png,14,Community 1,NA,TRUE,j,j,NA,NA,NA,2,9,"2,12,11,5,14,15,10,4,9,1,7,8,13,3,6"
14619,commdev-image-keyboard-response,406,1614241,learnblock1,44,img/planet11_left.png,11,Community 1,NA,FALSE,j,f,NA,NA,NA,2,9,"2,12,11,5,14,15,10,4,9,1,7,8,13,3,6"
14619,commdev-image-keyboard-response,407,1615493,learnblock1,11.099999999627471,img/planet14_right.png,14,Community 1,NA,TRUE,j,j,NA,NA,NA,2,9,"2,12,11,5,14,15,10,4,9,1,7,8,13,3,6"
14619,commdev-image-keyboard-response,408,1616745,learnblock1,241.19999999925494,img/planet11_left.png,11,Community 1,NA,FALSE,j,f,NA,NA,NA,2,9,"2,12,11,5,14,15,10,4,9,1,7,8,13,3,6"
14619,commdev-image-keyboard-response,409,1617997,learnblock1,null,img/planet2_left.png,2,Community 1,NA,FALSE,null,f,NA,NA,NA,2,9,"2,12,11,5,14,15,10,4,9,1,7,8,13,3,6"
14619,commdev-image-keyboard-response,410,1619249,learnblock1,null,img/planet11_left.png,11,Community 1,NA,FALSE,null,f,NA,NA,NA,2,9,"2,12,11,5,14,15,10,4,9,1,7,8,13,3,6"
14619,commdev-image-keyboard-response,411,1620510,learnblock1,null,img/planet5_left.png,5,Community 1,NA,FALSE,null,f,NA,NA,NA,2,9,"2,12,11,5,14,15,10,4,9,1,7,8,13,3,6"
14619,commdev-image-keyboard-response,412,1621761,learnblock1,1158.9000000003725,img/planet15_right.png,15,Community 2,NA,TRUE,j,j,NA,NA,NA,2,9,"2,12,11,5,14,15,10,4,9,1,7,8,13,3,6"
14619,commdev-image-keyboard-response,413,1623013,learnblock1,null,img/planet1_left.png,1,Community 2,NA,FALSE,null,f,NA,NA,NA,2,9,"2,12,11,5,14,15,10,4,9,1,7,8,13,3,6"
14619,commdev-image-keyboard-response,414,1624265,learnblock1,null,img/planet15_right.png,15,Community 2,NA,FALSE,null,j,NA,NA,NA,2,9,"2,12,11,5,14,15,10,4,9,1,7,8,13,3,6"
14619,commdev-image-keyboard-response,415,1625518,learnblock1,null,img/planet1_left.png,1,Community 2,NA,FALSE,null,f,NA,NA,NA,2,9,"2,12,11,5,14,15,10,4,9,1,7,8,13,3,6"
14619,commdev-image-keyboard-response,416,1626770,learnblock1,null,img/planet9_right.png,9,Community 2,NA,FALSE,null,j,NA,NA,NA,2,9,"2,12,11,5,14,15,10,4,9,1,7,8,13,3,6"
14619,commdev-image-keyboard-response,417,1628022,learnblock1,954.5,img/planet10_left.png,10,Community 2,NA,FALSE,j,f,NA,NA,NA,2,9,"2,12,11,5,14,15,10,4,9,1,7,8,13,3,6"
14619,commdev-image-keyboard-response,418,1629274,learnblock1,null,img/planet4_left.png,4,Community 2,NA,FALSE,null,f,NA,NA,NA,2,9,"2,12,11,5,14,15,10,4,9,1,7,8,13,3,6"
14619,commdev-image-keyboard-response,419,1630526,learnblock1,733.7999999988824,img/planet10_right.png,10,Community 2,NA,TRUE,j,j,NA,NA,NA,2,9,"2,12,11,5,14,15,10,4,9,1,7,8,13,3,6"
14619,commdev-image-keyboard-response,420,1631777,learnblock1,null,img/planet15_left.png,15,Community 2,NA,FALSE,null,f,NA,NA,NA,2,9,"2,12,11,5,14,15,10,4,9,1,7,8,13,3,6"
14619,commdev-image-keyboard-response,421,1633029,learnblock1,928.4000000003725,img/planet5_right.png,5,Community 1,NA,TRUE,j,j,NA,NA,NA,2,9,"2,12,11,5,14,15,10,4,9,1,7,8,13,3,6"
14619,commdev-image-keyboard-response,422,1634281,learnblock1,null,img/planet2_right.png,2,Community 1,NA,FALSE,null,j,NA,NA,NA,2,9,"2,12,11,5,14,15,10,4,9,1,7,8,13,3,6"
14619,commdev-image-keyboard-response,423,1635535,learnblock1,null,img/planet5_left.png,5,Community 1,NA,FALSE,null,f,NA,NA,NA,2,9,"2,12,11,5,14,15,10,4,9,1,7,8,13,3,6"
14619,commdev-image-keyboard-response,424,1636787,learnblock1,96.90000000037253,img/planet15_right.png,15,Community 2,NA,TRUE,j,j,NA,NA,NA,2,9,"2,12,11,5,14,15,10,4,9,1,7,8,13,3,6"
14619,commdev-image-keyboard-response,425,1638039,learnblock1,null,img/planet10_left.png,10,Community 2,NA,FALSE,null,f,NA,NA,NA,2,9,"2,12,11,5,14,15,10,4,9,1,7,8,13,3,6"
14619,commdev-image-keyboard-response,426,1639291,learnblock1,901,img/planet15_left.png,15,Community 2,NA,FALSE,j,f,NA,NA,NA,2,9,"2,12,11,5,14,15,10,4,9,1,7,8,13,3,6"
14619,commdev-image-keyboard-response,427,1640543,learnblock1,null,img/planet5_left.png,5,Community 1,NA,FALSE,null,f,NA,NA,NA,2,9,"2,12,11,5,14,15,10,4,9,1,7,8,13,3,6"
14619,commdev-image-keyboard-response,428,1641794,learnblock1,null,img/planet15_right.png,15,Community 2,NA,FALSE,null,j,NA,NA,NA,2,9,"2,12,11,5,14,15,10,4,9,1,7,8,13,3,6"
14619,commdev-image-keyboard-response,429,1643045,learnblock1,null,img/planet9_left.png,9,Community 2,NA,FALSE,null,f,NA,NA,NA,2,9,"2,12,11,5,14,15,10,4,9,1,7,8,13,3,6"
14619,commdev-image-keyboard-response,430,1644298,learnblock1,null,img/planet10_left.png,10,Community 2,NA,FALSE,null,f,NA,NA,NA,2,9,"2,12,11,5,14,15,10,4,9,1,7,8,13,3,6"
14619,commdev-image-keyboard-response,431,1645550,learnblock1,null,img/planet15_left.png,15,Community 2,NA,FALSE,null,f,NA,NA,NA,2,9,"2,12,11,5,14,15,10,4,9,1,7,8,13,3,6"
14619,commdev-image-keyboard-response,432,1646802,learnblock1,null,img/planet1_left.png,1,Community 2,NA,FALSE,null,f,NA,NA,NA,2,9,"2,12,11,5,14,15,10,4,9,1,7,8,13,3,6"
14619,commdev-image-keyboard-response,433,1648054,learnblock1,null,img/planet4_left.png,4,Community 2,NA,FALSE,null,f,NA,NA,NA,2,9,"2,12,11,5,14,15,10,4,9,1,7,8,13,3,6"
14619,commdev-image-keyboard-response,434,1649305,learnblock1,1081.199999999255,img/planet10_left.png,10,Community 2,NA,TRUE,f,f,NA,NA,NA,2,9,"2,12,11,5,14,15,10,4,9,1,7,8,13,3,6"
14619,commdev-image-keyboard-response,435,1650557,learnblock1,1088.800000000745,img/planet9_right.png,9,Community 2,NA,TRUE,j,j,NA,NA,NA,2,9,"2,12,11,5,14,15,10,4,9,1,7,8,13,3,6"
14619,commdev-image-keyboard-response,439,2093464,learnblock2,null,img/planet9_right.png,9,Community 2,NA,FALSE,null,j,NA,NA,NA,2,9,"2,12,11,5,14,15,10,4,9,1,7,8,13,3,6"
14619,commdev-image-keyboard-response,440,2094716,learnblock2,null,img/planet15_right.png,15,Community 2,NA,FALSE,null,j,NA,NA,NA,2,9,"2,12,11,5,14,15,10,4,9,1,7,8,13,3,6"
14619,commdev-image-keyboard-response,441,2095968,learnblock2,null,img/planet5_left.png,5,Community 1,NA,FALSE,null,f,NA,NA,NA,2,9,"2,12,11,5,14,15,10,4,9,1,7,8,13,3,6"
14619,commdev-image-keyboard-response,442,2097220,learnblock2,1230.2999999988824,img/planet2_left.png,2,Community 1,NA,TRUE,f,f,NA,NA,NA,2,9,"2,12,11,5,14,15,10,4,9,1,7,8,13,3,6"
14619,commdev-image-keyboard-response,443,2098472,learnblock2,771.5999999996275,img/planet5_right.png,5,Community 1,NA,TRUE,j,j,NA,NA,NA,2,9,"2,12,11,5,14,15,10,4,9,1,7,8,13,3,6"
14619,commdev-image-keyboard-response,444,2099724,learnblock2,905.9000000003725,img/planet11_right.png,11,Community 1,NA,TRUE,j,j,NA,NA,NA,2,9,"2,12,11,5,14,15,10,4,9,1,7,8,13,3,6"
14619,commdev-image-keyboard-response,445,2100976,learnblock2,891.0999999996275,img/planet2_right.png,2,Community 1,NA,TRUE,j,j,NA,NA,NA,2,9,"2,12,11,5,14,15,10,4,9,1,7,8,13,3,6"
14619,commdev-image-keyboard-response,446,2102229,learnblock2,764.5999999996275,img/planet14_right.png,14,Community 1,NA,TRUE,j,j,NA,NA,NA,2,9,"2,12,11,5,14,15,10,4,9,1,7,8,13,3,6"
14619,commdev-image-keyboard-response,447,2103481,learnblock2,709.1999999992549,img/planet2_left.png,2,Community 1,NA,TRUE,f,f,NA,NA,NA,2,9,"2,12,11,5,14,15,10,4,9,1,7,8,13,3,6"
14619,commdev-image-keyboard-response,448,2104733,learnblock2,1023.6999999992549,img/planet14_right.png,14,Community 1,NA,TRUE,j,j,NA,NA,NA,2,9,"2,12,11,5,14,15,10,4,9,1,7,8,13,3,6"
14619,commdev-image-keyboard-response,449,2105985,learnblock2,1028.4000000003725,img/planet7_right.png,7,Community 3,NA,TRUE,j,j,NA,NA,NA,2,9,"2,12,11,5,14,15,10,4,9,1,7,8,13,3,6"
14619,commdev-image-keyboard-response,450,2107237,learnblock2,1146.4000000003725,img/planet6_right.png,6,Community 3,NA,TRUE,j,j,NA,NA,NA,2,9,"2,12,11,5,14,15,10,4,9,1,7,8,13,3,6"
14619,commdev-image-keyboard-response,451,2108489,learnblock2,849.0999999996275,img/planet7_left.png,7,Community 3,NA,TRUE,f,f,NA,NA,NA,2,9,"2,12,11,5,14,15,10,4,9,1,7,8,13,3,6"
14619,commdev-image-keyboard-response,452,2109741,learnblock2,984,img/planet6_left.png,6,Community 3,NA,TRUE,f,f,NA,NA,NA,2,9,"2,12,11,5,14,15,10,4,9,1,7,8,13,3,6"
14619,commdev-image-keyboard-response,453,2110993,learnblock2,874.5,img/planet8_left.png,8,Community 3,NA,TRUE,f,f,NA,NA,NA,2,9,"2,12,11,5,14,15,10,4,9,1,7,8,13,3,6"
14619,commdev-image-keyboard-response,454,2112245,learnblock2,800.1999999992549,img/planet13_left.png,13,Community 3,NA,TRUE,f,f,NA,NA,NA,2,9,"2,12,11,5,14,15,10,4,9,1,7,8,13,3,6"
14619,commdev-image-keyboard-response,455,2113497,learnblock2,981.4000000003725,img/planet8_left.png,8,Community 3,NA,TRUE,f,f,NA,NA,NA,2,9,"2,12,11,5,14,15,10,4,9,1,7,8,13,3,6"
14619,commdev-image-keyboard-response,456,2114749,learnblock2,997.2999999988824,img/planet6_left.png,6,Community 3,NA,TRUE,f,f,NA,NA,NA,2,9,"2,12,11,5,14,15,10,4,9,1,7,8,13,3,6"
14619,commdev-image-keyboard-response,457,2116001,learnblock2,833.2000000011176,img/planet8_left.png,8,Community 3,NA,TRUE,f,f,NA,NA,NA,2,9,"2,12,11,5,14,15,10,4,9,1,7,8,13,3,6"
14619,commdev-image-keyboard-response,458,2117252,learnblock2,640.5,img/planet3_right.png,3,Community 3,NA,TRUE,j,j,NA,NA,NA,2,9,"2,12,11,5,14,15,10,4,9,1,7,8,13,3,6"
14619,commdev-image-keyboard-response,459,2118504,learnblock2,650.8000000007451,img/planet7_left.png,7,Community 3,NA,TRUE,f,f,NA,NA,NA,2,9,"2,12,11,5,14,15,10,4,9,1,7,8,13,3,6"
14619,commdev-image-keyboard-response,460,2119756,learnblock2,927.3999999985099,img/planet6_left.png,6,Community 3,NA,TRUE,f,f,NA,NA,NA,2,9,"2,12,11,5,14,15,10,4,9,1,7,8,13,3,6"
14619,commdev-image-keyboard-response,461,2121008,learnblock2,786.8999999985099,img/planet13_right.png,13,Community 3,NA,TRUE,j,j,NA,NA,NA,2,9,"2,12,11,5,14,15,10,4,9,1,7,8,13,3,6"
14619,commdev-image-keyboard-response,462,2122260,learnblock2,676,img/planet3_left.png,3,Community 3,NA,TRUE,f,f,NA,NA,NA,2,9,"2,12,11,5,14,15,10,4,9,1,7,8,13,3,6"
14619,commdev-image-keyboard-response,463,2123513,learnblock2,787.5,img/planet13_left.png,13,Community 3,NA,TRUE,f,f,NA,NA,NA,2,9,"2,12,11,5,14,15,10,4,9,1,7,8,13,3,6"
14619,commdev-image-keyboard-response,464,2124765,learnblock2,761.8000000007451,img/planet3_right.png,3,Community 3,NA,TRUE,j,j,NA,NA,NA,2,9,"2,12,11,5,14,15,10,4,9,1,7,8,13,3,6"
14619,commdev-image-keyboard-response,465,2126017,learnblock2,1026,img/planet6_right.png,6,Community 3,NA,TRUE,j,j,NA,NA,NA,2,9,"2,12,11,5,14,15,10,4,9,1,7,8,13,3,6"
14619,commdev-image-keyboard-response,466,2127269,learnblock2,767.5,img/planet7_right.png,7,Community 3,NA,TRUE,j,j,NA,NA,NA,2,9,"2,12,11,5,14,15,10,4,9,1,7,8,13,3,6"
14619,commdev-image-keyboard-response,467,2128521,learnblock2,897.5,img/planet14_left.png,14,Community 1,NA,TRUE,f,f,NA,NA,NA,2,9,"2,12,11,5,14,15,10,4,9,1,7,8,13,3,6"
14619,commdev-image-keyboard-response,468,2129774,learnblock2,841.7000000011176,img/planet11_left.png,11,Community 1,NA,TRUE,f,f,NA,NA,NA,2,9,"2,12,11,5,14,15,10,4,9,1,7,8,13,3,6"
14619,commdev-image-keyboard-response,469,2131026,learnblock2,582.1999999992549,img/planet2_left.png,2,Community 1,NA,TRUE,f,f,NA,NA,NA,2,9,"2,12,11,5,14,15,10,4,9,1,7,8,13,3,6"
14619,commdev-image-keyboard-response,470,2132278,learnblock2,827.0999999996275,img/planet12_left.png,12,Community 1,NA,TRUE,f,f,NA,NA,NA,2,9,"2,12,11,5,14,15,10,4,9,1,7,8,13,3,6"
14619,commdev-image-keyboard-response,471,2133530,learnblock2,769,img/planet11_right.png,11,Community 1,NA,TRUE,j,j,NA,NA,NA,2,9,"2,12,11,5,14,15,10,4,9,1,7,8,13,3,6"
14619,commdev-image-keyboard-response,472,2134783,learnblock2,742.5999999996275,img/planet12_right.png,12,Community 1,NA,TRUE,j,j,NA,NA,NA,2,9,"2,12,11,5,14,15,10,4,9,1,7,8,13,3,6"
14619,commdev-image-keyboard-response,473,2136035,learnblock2,512.2000000011176,img/planet2_left.png,2,Community 1,NA,FALSE,j,f,NA,NA,NA,2,9,"2,12,11,5,14,15,10,4,9,1,7,8,13,3,6"
14619,commdev-image-keyboard-response,474,2137287,learnblock2,665.2999999988824,img/planet11_right.png,11,Community 1,NA,TRUE,j,j,NA,NA,NA,2,9,"2,12,11,5,14,15,10,4,9,1,7,8,13,3,6"
14619,commdev-image-keyboard-response,475,2138539,learnblock2,1017.3000000007451,img/planet2_right.png,2,Community 1,NA,TRUE,j,j,NA,NA,NA,2,9,"2,12,11,5,14,15,10,4,9,1,7,8,13,3,6"
14619,commdev-image-keyboard-response,476,2139792,learnblock2,681.0999999996275,img/planet12_left.png,12,Community 1,NA,TRUE,f,f,NA,NA,NA,2,9,"2,12,11,5,14,15,10,4,9,1,7,8,13,3,6"
14619,commdev-image-keyboard-response,477,2141044,learnblock2,685.5999999996275,img/planet2_right.png,2,Community 1,NA,TRUE,j,j,NA,NA,NA,2,9,"2,12,11,5,14,15,10,4,9,1,7,8,13,3,6"
14619,commdev-image-keyboard-response,478,2142296,learnblock2,1057.4000000003725,img/planet11_left.png,11,Community 1,NA,TRUE,f,f,NA,NA,NA,2,9,"2,12,11,5,14,15,10,4,9,1,7,8,13,3,6"
14619,commdev-image-keyboard-response,479,2143549,learnblock2,677.6999999992549,img/planet12_left.png,12,Community 1,NA,FALSE,j,f,NA,NA,NA,2,9,"2,12,11,5,14,15,10,4,9,1,7,8,13,3,6"
14619,commdev-image-keyboard-response,480,2144801,learnblock2,776.9000000003725,img/planet11_left.png,11,Community 1,NA,TRUE,f,f,NA,NA,NA,2,9,"2,12,11,5,14,15,10,4,9,1,7,8,13,3,6"
14619,commdev-image-keyboard-response,481,2146053,learnblock2,849.6999999992549,img/planet14_left.png,14,Community 1,NA,TRUE,f,f,NA,NA,NA,2,9,"2,12,11,5,14,15,10,4,9,1,7,8,13,3,6"
14619,commdev-image-keyboard-response,482,2147306,learnblock2,596.7000000011176,img/planet7_right.png,7,Community 3,NA,TRUE,j,j,NA,NA,NA,2,9,"2,12,11,5,14,15,10,4,9,1,7,8,13,3,6"
14619,commdev-image-keyboard-response,483,2148558,learnblock2,785.5999999996275,img/planet6_left.png,6,Community 3,NA,FALSE,j,f,NA,NA,NA,2,9,"2,12,11,5,14,15,10,4,9,1,7,8,13,3,6"
14619,commdev-image-keyboard-response,484,2149810,learnblock2,1116.5,img/planet7_left.png,7,Community 3,NA,TRUE,f,f,NA,NA,NA,2,9,"2,12,11,5,14,15,10,4,9,1,7,8,13,3,6"
14619,commdev-image-keyboard-response,485,2151063,learnblock2,759.8000000007451,img/planet3_left.png,3,Community 3,NA,TRUE,f,f,NA,NA,NA,2,9,"2,12,11,5,14,15,10,4,9,1,7,8,13,3,6"
14619,commdev-image-keyboard-response,486,2152315,learnblock2,951.5999999996275,img/planet13_right.png,13,Community 3,NA,TRUE,j,j,NA,NA,NA,2,9,"2,12,11,5,14,15,10,4,9,1,7,8,13,3,6"
14619,commdev-image-keyboard-response,487,2153567,learnblock2,1184.4000000003725,img/planet3_left.png,3,Community 3,NA,TRUE,f,f,NA,NA,NA,2,9,"2,12,11,5,14,15,10,4,9,1,7,8,13,3,6"
14619,commdev-image-keyboard-response,488,2154819,learnblock2,1171.300000000745,img/planet6_left.png,6,Community 3,NA,FALSE,j,f,NA,NA,NA,2,9,"2,12,11,5,14,15,10,4,9,1,7,8,13,3,6"
14619,commdev-image-keyboard-response,489,2156072,learnblock2,1016.8000000007451,img/planet8_right.png,8,Community 3,NA,TRUE,j,j,NA,NA,NA,2,9,"2,12,11,5,14,15,10,4,9,1,7,8,13,3,6"
14619,commdev-image-keyboard-response,490,2157324,learnblock2,729.5999999996275,img/planet3_right.png,3,Community 3,NA,TRUE,j,j,NA,NA,NA,2,9,"2,12,11,5,14,15,10,4,9,1,7,8,13,3,6"
14619,commdev-image-keyboard-response,491,2158576,learnblock2,874.6000000014901,img/planet13_right.png,13,Community 3,NA,TRUE,j,j,NA,NA,NA,2,9,"2,12,11,5,14,15,10,4,9,1,7,8,13,3,6"
14619,commdev-image-keyboard-response,492,2159828,learnblock2,801.5,img/planet6_right.png,6,Community 3,NA,TRUE,j,j,NA,NA,NA,2,9,"2,12,11,5,14,15,10,4,9,1,7,8,13,3,6"
14619,commdev-image-keyboard-response,493,2161080,learnblock2,649.0999999996275,img/planet3_left.png,3,Community 3,NA,TRUE,f,f,NA,NA,NA,2,9,"2,12,11,5,14,15,10,4,9,1,7,8,13,3,6"
14619,commdev-image-keyboard-response,494,2162332,learnblock2,1014,img/planet13_right.png,13,Community 3,NA,TRUE,j,j,NA,NA,NA,2,9,"2,12,11,5,14,15,10,4,9,1,7,8,13,3,6"
14619,commdev-image-keyboard-response,495,2163584,learnblock2,898.9000000003725,img/planet8_right.png,8,Community 3,NA,TRUE,j,j,NA,NA,NA,2,9,"2,12,11,5,14,15,10,4,9,1,7,8,13,3,6"
14619,commdev-image-keyboard-response,496,2164836,learnblock2,739,img/planet4_left.png,4,Community 2,NA,TRUE,f,f,NA,NA,NA,2,9,"2,12,11,5,14,15,10,4,9,1,7,8,13,3,6"
14619,commdev-image-keyboard-response,497,2166089,learnblock2,984.5999999996275,img/planet8_right.png,8,Community 3,NA,TRUE,j,j,NA,NA,NA,2,9,"2,12,11,5,14,15,10,4,9,1,7,8,13,3,6"
14619,commdev-image-keyboard-response,498,2167341,learnblock2,860.1000000014901,img/planet4_right.png,4,Community 2,NA,TRUE,j,j,NA,NA,NA,2,9,"2,12,11,5,14,15,10,4,9,1,7,8,13,3,6"
14619,commdev-image-keyboard-response,499,2168593,learnblock2,860.5999999996275,img/planet1_right.png,1,Community 2,NA,TRUE,j,j,NA,NA,NA,2,9,"2,12,11,5,14,15,10,4,9,1,7,8,13,3,6"
14619,commdev-image-keyboard-response,500,2169845,learnblock2,733.8000000007451,img/planet9_left.png,9,Community 2,NA,TRUE,f,f,NA,NA,NA,2,9,"2,12,11,5,14,15,10,4,9,1,7,8,13,3,6"
14619,commdev-image-keyboard-response,501,2171097,learnblock2,null,img/planet1_left.png,1,Community 2,NA,FALSE,null,f,NA,NA,NA,2,9,"2,12,11,5,14,15,10,4,9,1,7,8,13,3,6"
14619,commdev-image-keyboard-response,502,2172352,learnblock2,0.3999999985098839,img/planet9_left.png,9,Community 2,NA,TRUE,f,f,NA,NA,NA,2,9,"2,12,11,5,14,15,10,4,9,1,7,8,13,3,6"
14619,commdev-image-keyboard-response,503,2173604,learnblock2,762.4000000003725,img/planet1_right.png,1,Community 2,NA,TRUE,j,j,NA,NA,NA,2,9,"2,12,11,5,14,15,10,4,9,1,7,8,13,3,6"
14619,commdev-image-keyboard-response,504,2174856,learnblock2,786.6000000014901,img/planet10_left.png,10,Community 2,NA,FALSE,j,f,NA,NA,NA,2,9,"2,12,11,5,14,15,10,4,9,1,7,8,13,3,6"
14619,commdev-image-keyboard-response,505,2176108,learnblock2,1154.800000000745,img/planet9_right.png,9,Community 2,NA,TRUE,j,j,NA,NA,NA,2,9,"2,12,11,5,14,15,10,4,9,1,7,8,13,3,6"
14619,commdev-image-keyboard-response,506,2177361,learnblock2,1116.7999999988824,img/planet15_left.png,15,Community 2,NA,TRUE,f,f,NA,NA,NA,2,9,"2,12,11,5,14,15,10,4,9,1,7,8,13,3,6"
14619,commdev-image-keyboard-response,507,2178613,learnblock2,null,img/planet10_right.png,10,Community 2,NA,FALSE,null,j,NA,NA,NA,2,9,"2,12,11,5,14,15,10,4,9,1,7,8,13,3,6"
14619,commdev-image-keyboard-response,508,2179865,learnblock2,1072,img/planet1_right.png,1,Community 2,NA,FALSE,f,j,NA,NA,NA,2,9,"2,12,11,5,14,15,10,4,9,1,7,8,13,3,6"
14619,commdev-image-keyboard-response,509,2181117,learnblock2,962.8000000007451,img/planet9_right.png,9,Community 2,NA,TRUE,j,j,NA,NA,NA,2,9,"2,12,11,5,14,15,10,4,9,1,7,8,13,3,6"
14619,commdev-image-keyboard-response,510,2182369,learnblock2,736.4000000003725,img/planet1_left.png,1,Community 2,NA,TRUE,f,f,NA,NA,NA,2,9,"2,12,11,5,14,15,10,4,9,1,7,8,13,3,6"
14619,commdev-image-keyboard-response,511,2183621,learnblock2,696.9000000003725,img/planet9_left.png,9,Community 2,NA,TRUE,f,f,NA,NA,NA,2,9,"2,12,11,5,14,15,10,4,9,1,7,8,13,3,6"
14619,commdev-image-keyboard-response,512,2184873,learnblock2,777.9000000003725,img/planet1_left.png,1,Community 2,NA,TRUE,f,f,NA,NA,NA,2,9,"2,12,11,5,14,15,10,4,9,1,7,8,13,3,6"
14619,commdev-image-keyboard-response,513,2186126,learnblock2,629.2000000011176,img/planet9_right.png,9,Community 2,NA,TRUE,j,j,NA,NA,NA,2,9,"2,12,11,5,14,15,10,4,9,1,7,8,13,3,6"
14619,commdev-image-keyboard-response,514,2187378,learnblock2,807.2999999988824,img/planet4_right.png,4,Community 2,NA,TRUE,j,j,NA,NA,NA,2,9,"2,12,11,5,14,15,10,4,9,1,7,8,13,3,6"
14619,commdev-image-keyboard-response,515,2188630,learnblock2,957.4000000003725,img/planet9_right.png,9,Community 2,NA,TRUE,j,j,NA,NA,NA,2,9,"2,12,11,5,14,15,10,4,9,1,7,8,13,3,6"
14619,commdev-image-keyboard-response,516,2189882,learnblock2,969.0999999996275,img/planet10_left.png,10,Community 2,NA,FALSE,j,f,NA,NA,NA,2,9,"2,12,11,5,14,15,10,4,9,1,7,8,13,3,6"
14619,commdev-image-keyboard-response,517,2191135,learnblock2,746.5,img/planet4_left.png,4,Community 2,NA,TRUE,f,f,NA,NA,NA,2,9,"2,12,11,5,14,15,10,4,9,1,7,8,13,3,6"
14619,commdev-image-keyboard-response,518,2192387,learnblock2,307.59999999962747,img/planet1_right.png,1,Community 2,NA,FALSE,f,j,NA,NA,NA,2,9,"2,12,11,5,14,15,10,4,9,1,7,8,13,3,6"
14619,commdev-image-keyboard-response,519,2193639,learnblock2,407.80000000074506,img/planet10_right.png,10,Community 2,NA,TRUE,j,j,NA,NA,NA,2,9,"2,12,11,5,14,15,10,4,9,1,7,8,13,3,6"
14619,commdev-image-keyboard-response,520,2194891,learnblock2,498.40000000037253,img/planet1_right.png,1,Community 2,NA,TRUE,j,j,NA,NA,NA,2,9,"2,12,11,5,14,15,10,4,9,1,7,8,13,3,6"
14619,commdev-image-keyboard-response,521,2196143,learnblock2,1203.9000000003725,img/planet15_right.png,15,Community 2,NA,TRUE,j,j,NA,NA,NA,2,9,"2,12,11,5,14,15,10,4,9,1,7,8,13,3,6"
14619,commdev-image-keyboard-response,522,2197395,learnblock2,725.8000000007451,img/planet5_left.png,5,Community 1,NA,TRUE,f,f,NA,NA,NA,2,9,"2,12,11,5,14,15,10,4,9,1,7,8,13,3,6"
14619,commdev-image-keyboard-response,523,2198647,learnblock2,779.9000000003725,img/planet11_right.png,11,Community 1,NA,TRUE,j,j,NA,NA,NA,2,9,"2,12,11,5,14,15,10,4,9,1,7,8,13,3,6"
14619,commdev-image-keyboard-response,524,2199899,learnblock2,880.4000000003725,img/planet14_left.png,14,Community 1,NA,TRUE,f,f,NA,NA,NA,2,9,"2,12,11,5,14,15,10,4,9,1,7,8,13,3,6"
14619,commdev-image-keyboard-response,525,2201151,learnblock2,990.6999999992549,img/planet2_left.png,2,Community 1,NA,TRUE,f,f,NA,NA,NA,2,9,"2,12,11,5,14,15,10,4,9,1,7,8,13,3,6"
14619,commdev-image-keyboard-response,526,2202404,learnblock2,594.5,img/planet14_left.png,14,Community 1,NA,TRUE,f,f,NA,NA,NA,2,9,"2,12,11,5,14,15,10,4,9,1,7,8,13,3,6"
14619,commdev-image-keyboard-response,527,2203656,learnblock2,590.1999999992549,img/planet11_left.png,11,Community 1,NA,TRUE,f,f,NA,NA,NA,2,9,"2,12,11,5,14,15,10,4,9,1,7,8,13,3,6"
14619,commdev-image-keyboard-response,528,2204908,learnblock2,597.3000000007451,img/planet12_right.png,12,Community 1,NA,FALSE,f,j,NA,NA,NA,2,9,"2,12,11,5,14,15,10,4,9,1,7,8,13,3,6"
14619,commdev-image-keyboard-response,529,2206160,learnblock2,777.3000000007451,img/planet2_right.png,2,Community 1,NA,TRUE,j,j,NA,NA,NA,2,9,"2,12,11,5,14,15,10,4,9,1,7,8,13,3,6"
14619,commdev-image-keyboard-response,530,2207412,learnblock2,787.5,img/planet11_left.png,11,Community 1,NA,TRUE,f,f,NA,NA,NA,2,9,"2,12,11,5,14,15,10,4,9,1,7,8,13,3,6"
14619,commdev-image-keyboard-response,531,2208664,learnblock2,674.8000000007451,img/planet12_left.png,12,Community 1,NA,TRUE,f,f,NA,NA,NA,2,9,"2,12,11,5,14,15,10,4,9,1,7,8,13,3,6"
14619,commdev-image-keyboard-response,532,2209916,learnblock2,493.2999999988824,img/planet2_right.png,2,Community 1,NA,TRUE,j,j,NA,NA,NA,2,9,"2,12,11,5,14,15,10,4,9,1,7,8,13,3,6"
14619,commdev-image-keyboard-response,533,2211168,learnblock2,907.2000000011176,img/planet14_right.png,14,Community 1,NA,TRUE,j,j,NA,NA,NA,2,9,"2,12,11,5,14,15,10,4,9,1,7,8,13,3,6"
14619,commdev-image-keyboard-response,534,2212420,learnblock2,833.1999999992549,img/planet2_left.png,2,Community 1,NA,TRUE,f,f,NA,NA,NA,2,9,"2,12,11,5,14,15,10,4,9,1,7,8,13,3,6"
14619,commdev-image-keyboard-response,535,2213672,learnblock2,985.0999999996275,img/planet5_right.png,5,Community 1,NA,FALSE,f,j,NA,NA,NA,2,9,"2,12,11,5,14,15,10,4,9,1,7,8,13,3,6"
14619,commdev-image-keyboard-response,536,2214925,learnblock2,1186.1000000014901,img/planet12_left.png,12,Community 1,NA,TRUE,f,f,NA,NA,NA,2,9,"2,12,11,5,14,15,10,4,9,1,7,8,13,3,6"
14619,commdev-image-keyboard-response,537,2216177,learnblock2,885.7999999988824,img/planet5_right.png,5,Community 1,NA,TRUE,j,j,NA,NA,NA,2,9,"2,12,11,5,14,15,10,4,9,1,7,8,13,3,6"
14619,commdev-image-keyboard-response,538,2217429,learnblock2,786.1999999992549,img/planet11_left.png,11,Community 1,NA,TRUE,f,f,NA,NA,NA,2,9,"2,12,11,5,14,15,10,4,9,1,7,8,13,3,6"
14619,commdev-image-keyboard-response,539,2218681,learnblock2,495.5,img/planet12_right.png,12,Community 1,NA,TRUE,j,j,NA,NA,NA,2,9,"2,12,11,5,14,15,10,4,9,1,7,8,13,3,6"
14619,commdev-image-keyboard-response,540,2219934,learnblock2,486.69999999925494,img/planet14_left.png,14,Community 1,NA,TRUE,f,f,NA,NA,NA,2,9,"2,12,11,5,14,15,10,4,9,1,7,8,13,3,6"
14619,commdev-image-keyboard-response,541,2221186,learnblock2,1025.199999999255,img/planet12_left.png,12,Community 1,NA,TRUE,f,f,NA,NA,NA,2,9,"2,12,11,5,14,15,10,4,9,1,7,8,13,3,6"
14619,commdev-image-keyboard-response,542,2222438,learnblock2,705.4000000003725,img/planet5_left.png,5,Community 1,NA,TRUE,f,f,NA,NA,NA,2,9,"2,12,11,5,14,15,10,4,9,1,7,8,13,3,6"
14619,commdev-image-keyboard-response,543,2223690,learnblock2,832.9000000003725,img/planet12_left.png,12,Community 1,NA,TRUE,f,f,NA,NA,NA,2,9,"2,12,11,5,14,15,10,4,9,1,7,8,13,3,6"
14619,commdev-image-keyboard-response,544,2224942,learnblock2,800.2000000011176,img/planet5_left.png,5,Community 1,NA,TRUE,f,f,NA,NA,NA,2,9,"2,12,11,5,14,15,10,4,9,1,7,8,13,3,6"
14619,commdev-image-keyboard-response,545,2226194,learnblock2,804,img/planet2_right.png,2,Community 1,NA,TRUE,j,j,NA,NA,NA,2,9,"2,12,11,5,14,15,10,4,9,1,7,8,13,3,6"
14619,commdev-image-keyboard-response,546,2227447,learnblock2,816.5,img/planet14_left.png,14,Community 1,NA,TRUE,f,f,NA,NA,NA,2,9,"2,12,11,5,14,15,10,4,9,1,7,8,13,3,6"
14619,commdev-image-keyboard-response,547,2228699,learnblock2,796,img/planet2_left.png,2,Community 1,NA,FALSE,j,f,NA,NA,NA,2,9,"2,12,11,5,14,15,10,4,9,1,7,8,13,3,6"
14619,commdev-image-keyboard-response,548,2229953,learnblock2,877.4000000003725,img/planet12_right.png,12,Community 1,NA,TRUE,j,j,NA,NA,NA,2,9,"2,12,11,5,14,15,10,4,9,1,7,8,13,3,6"
14619,commdev-image-keyboard-response,549,2231205,learnblock2,805.7999999988824,img/planet5_left.png,5,Community 1,NA,TRUE,f,f,NA,NA,NA,2,9,"2,12,11,5,14,15,10,4,9,1,7,8,13,3,6"
14619,commdev-image-keyboard-response,550,2232457,learnblock2,879.2000000011176,img/planet2_left.png,2,Community 1,NA,TRUE,f,f,NA,NA,NA,2,9,"2,12,11,5,14,15,10,4,9,1,7,8,13,3,6"
14619,commdev-image-keyboard-response,551,2233709,learnblock2,1153.199999999255,img/planet5_right.png,5,Community 1,NA,TRUE,j,j,NA,NA,NA,2,9,"2,12,11,5,14,15,10,4,9,1,7,8,13,3,6"
14619,commdev-image-keyboard-response,552,2234961,learnblock2,null,img/planet12_left.png,12,Community 1,NA,FALSE,null,f,NA,NA,NA,2,9,"2,12,11,5,14,15,10,4,9,1,7,8,13,3,6"
14619,commdev-image-keyboard-response,553,2236214,learnblock2,17.09999999962747,img/planet2_right.png,2,Community 1,NA,FALSE,f,j,NA,NA,NA,2,9,"2,12,11,5,14,15,10,4,9,1,7,8,13,3,6"
14619,commdev-image-keyboard-response,554,2237465,learnblock2,761.0999999996275,img/planet12_left.png,12,Community 1,NA,TRUE,f,f,NA,NA,NA,2,9,"2,12,11,5,14,15,10,4,9,1,7,8,13,3,6"
14619,commdev-image-keyboard-response,555,2238717,learnblock2,509.5,img/planet2_left.png,2,Community 1,NA,FALSE,j,f,NA,NA,NA,2,9,"2,12,11,5,14,15,10,4,9,1,7,8,13,3,6"
14619,commdev-image-keyboard-response,556,2239969,learnblock2,801,img/planet11_left.png,11,Community 1,NA,TRUE,f,f,NA,NA,NA,2,9,"2,12,11,5,14,15,10,4,9,1,7,8,13,3,6"
14619,commdev-image-keyboard-response,557,2241221,learnblock2,801.1999999992549,img/planet12_right.png,12,Community 1,NA,TRUE,j,j,NA,NA,NA,2,9,"2,12,11,5,14,15,10,4,9,1,7,8,13,3,6"
14619,commdev-image-keyboard-response,558,2242474,learnblock2,1246.1000000014901,img/planet5_right.png,5,Community 1,NA,FALSE,f,j,NA,NA,NA,2,9,"2,12,11,5,14,15,10,4,9,1,7,8,13,3,6"
14619,commdev-image-keyboard-response,559,2243725,learnblock2,1173.800000000745,img/planet11_right.png,11,Community 1,NA,TRUE,j,j,NA,NA,NA,2,9,"2,12,11,5,14,15,10,4,9,1,7,8,13,3,6"
14619,commdev-image-keyboard-response,560,2244977,learnblock2,820,img/planet2_left.png,2,Community 1,NA,TRUE,f,f,NA,NA,NA,2,9,"2,12,11,5,14,15,10,4,9,1,7,8,13,3,6"
14619,commdev-image-keyboard-response,561,2246228,learnblock2,1233.5,img/planet5_right.png,5,Community 1,NA,FALSE,f,j,NA,NA,NA,2,9,"2,12,11,5,14,15,10,4,9,1,7,8,13,3,6"
14619,commdev-image-keyboard-response,562,2247481,learnblock2,165.40000000037253,img/planet12_right.png,12,Community 1,NA,TRUE,j,j,NA,NA,NA,2,9,"2,12,11,5,14,15,10,4,9,1,7,8,13,3,6"
14619,commdev-image-keyboard-response,563,2248733,learnblock2,1017.0999999996275,img/planet14_left.png,14,Community 1,NA,TRUE,f,f,NA,NA,NA,2,9,"2,12,11,5,14,15,10,4,9,1,7,8,13,3,6"
14619,commdev-image-keyboard-response,564,2249985,learnblock2,null,img/planet7_left.png,7,Community 3,NA,FALSE,null,f,NA,NA,NA,2,9,"2,12,11,5,14,15,10,4,9,1,7,8,13,3,6"
14619,commdev-image-keyboard-response,565,2251237,learnblock2,35.59999999962747,img/planet3_left.png,3,Community 3,NA,TRUE,f,f,NA,NA,NA,2,9,"2,12,11,5,14,15,10,4,9,1,7,8,13,3,6"
14619,commdev-image-keyboard-response,566,2252490,learnblock2,943.4000000003725,img/planet8_left.png,8,Community 3,NA,TRUE,f,f,NA,NA,NA,2,9,"2,12,11,5,14,15,10,4,9,1,7,8,13,3,6"
14619,commdev-image-keyboard-response,567,2253742,learnblock2,558.0999999996275,img/planet6_right.png,6,Community 3,NA,TRUE,j,j,NA,NA,NA,2,9,"2,12,11,5,14,15,10,4,9,1,7,8,13,3,6"
14619,commdev-image-keyboard-response,568,2254996,learnblock2,744.0999999996275,img/planet8_left.png,8,Community 3,NA,TRUE,f,f,NA,NA,NA,2,9,"2,12,11,5,14,15,10,4,9,1,7,8,13,3,6"
14619,commdev-image-keyboard-response,569,2256248,learnblock2,671.5999999996275,img/planet13_left.png,13,Community 3,NA,TRUE,f,f,NA,NA,NA,2,9,"2,12,11,5,14,15,10,4,9,1,7,8,13,3,6"
14619,commdev-image-keyboard-response,570,2257501,learnblock2,747.1999999992549,img/planet3_left.png,3,Community 3,NA,TRUE,f,f,NA,NA,NA,2,9,"2,12,11,5,14,15,10,4,9,1,7,8,13,3,6"
14619,commdev-image-keyboard-response,571,2258753,learnblock2,707.1999999992549,img/planet7_right.png,7,Community 3,NA,FALSE,f,j,NA,NA,NA,2,9,"2,12,11,5,14,15,10,4,9,1,7,8,13,3,6"
14619,commdev-image-keyboard-response,572,2260005,learnblock2,898.3000000007451,img/planet3_right.png,3,Community 3,NA,TRUE,j,j,NA,NA,NA,2,9,"2,12,11,5,14,15,10,4,9,1,7,8,13,3,6"
14619,commdev-image-keyboard-response,573,2261258,learnblock2,1076.5,img/planet8_left.png,8,Community 3,NA,TRUE,f,f,NA,NA,NA,2,9,"2,12,11,5,14,15,10,4,9,1,7,8,13,3,6"
14619,commdev-image-keyboard-response,574,2262510,learnblock2,907.2999999988824,img/planet6_right.png,6,Community 3,NA,TRUE,j,j,NA,NA,NA,2,9,"2,12,11,5,14,15,10,4,9,1,7,8,13,3,6"
14619,commdev-image-keyboard-response,575,2263762,learnblock2,937,img/planet7_right.png,7,Community 3,NA,TRUE,j,j,NA,NA,NA,2,9,"2,12,11,5,14,15,10,4,9,1,7,8,13,3,6"
14619,commdev-image-keyboard-response,576,2265015,learnblock2,1019,img/planet3_right.png,3,Community 3,NA,TRUE,j,j,NA,NA,NA,2,9,"2,12,11,5,14,15,10,4,9,1,7,8,13,3,6"
14619,commdev-image-keyboard-response,577,2266266,learnblock2,1066.800000000745,img/planet7_right.png,7,Community 3,NA,TRUE,j,j,NA,NA,NA,2,9,"2,12,11,5,14,15,10,4,9,1,7,8,13,3,6"
14619,commdev-image-keyboard-response,578,2267519,learnblock2,794.2000000011176,img/planet3_right.png,3,Community 3,NA,TRUE,j,j,NA,NA,NA,2,9,"2,12,11,5,14,15,10,4,9,1,7,8,13,3,6"
14619,commdev-image-keyboard-response,579,2268771,learnblock2,495.2999999988824,img/planet6_left.png,6,Community 3,NA,TRUE,f,f,NA,NA,NA,2,9,"2,12,11,5,14,15,10,4,9,1,7,8,13,3,6"
14619,commdev-image-keyboard-response,580,2270023,learnblock2,866,img/planet7_right.png,7,Community 3,NA,FALSE,f,j,NA,NA,NA,2,9,"2,12,11,5,14,15,10,4,9,1,7,8,13,3,6"
14619,commdev-image-keyboard-response,581,2271275,learnblock2,null,img/planet6_right.png,6,Community 3,NA,FALSE,null,j,NA,NA,NA,2,9,"2,12,11,5,14,15,10,4,9,1,7,8,13,3,6"
14619,commdev-image-keyboard-response,582,2272527,learnblock2,null,img/planet3_left.png,3,Community 3,NA,FALSE,null,f,NA,NA,NA,2,9,"2,12,11,5,14,15,10,4,9,1,7,8,13,3,6"
14619,commdev-image-keyboard-response,583,2273780,learnblock2,689.9000000003725,img/planet7_left.png,7,Community 3,NA,TRUE,f,f,NA,NA,NA,2,9,"2,12,11,5,14,15,10,4,9,1,7,8,13,3,6"
14619,commdev-image-keyboard-response,584,2275032,learnblock2,205.10000000149012,img/planet13_right.png,13,Community 3,NA,FALSE,f,j,NA,NA,NA,2,9,"2,12,11,5,14,15,10,4,9,1,7,8,13,3,6"
14619,commdev-image-keyboard-response,585,2276284,learnblock2,437.2999999988824,img/planet6_left.png,6,Community 3,NA,TRUE,f,f,NA,NA,NA,2,9,"2,12,11,5,14,15,10,4,9,1,7,8,13,3,6"
14619,commdev-image-keyboard-response,586,2277536,learnblock2,981.9000000003725,img/planet13_left.png,13,Community 3,NA,TRUE,f,f,NA,NA,NA,2,9,"2,12,11,5,14,15,10,4,9,1,7,8,13,3,6"
14619,commdev-image-keyboard-response,587,2278788,learnblock2,803.0999999996275,img/planet8_left.png,8,Community 3,NA,TRUE,f,f,NA,NA,NA,2,9,"2,12,11,5,14,15,10,4,9,1,7,8,13,3,6"
14619,commdev-image-keyboard-response,588,2280040,learnblock2,859.2999999988824,img/planet4_left.png,4,Community 2,NA,TRUE,f,f,NA,NA,NA,2,9,"2,12,11,5,14,15,10,4,9,1,7,8,13,3,6"
14619,commdev-image-keyboard-response,589,2281293,learnblock2,886.5,img/planet8_right.png,8,Community 3,NA,TRUE,j,j,NA,NA,NA,2,9,"2,12,11,5,14,15,10,4,9,1,7,8,13,3,6"
14619,commdev-image-keyboard-response,590,2282545,learnblock2,1000.5999999996275,img/planet4_left.png,4,Community 2,NA,TRUE,f,f,NA,NA,NA,2,9,"2,12,11,5,14,15,10,4,9,1,7,8,13,3,6"
14619,commdev-image-keyboard-response,591,2283797,learnblock2,883.3000000007451,img/planet8_right.png,8,Community 3,NA,TRUE,j,j,NA,NA,NA,2,9,"2,12,11,5,14,15,10,4,9,1,7,8,13,3,6"
14619,commdev-image-keyboard-response,592,2285050,learnblock2,981.5999999996275,img/planet4_left.png,4,Community 2,NA,TRUE,f,f,NA,NA,NA,2,9,"2,12,11,5,14,15,10,4,9,1,7,8,13,3,6"
14619,commdev-image-keyboard-response,593,2286302,learnblock2,739.4000000003725,img/planet10_right.png,10,Community 2,NA,TRUE,j,j,NA,NA,NA,2,9,"2,12,11,5,14,15,10,4,9,1,7,8,13,3,6"
14619,commdev-image-keyboard-response,594,2287554,learnblock2,934.1999999992549,img/planet9_right.png,9,Community 2,NA,TRUE,j,j,NA,NA,NA,2,9,"2,12,11,5,14,15,10,4,9,1,7,8,13,3,6"
14619,commdev-image-keyboard-response,595,2288806,learnblock2,1057.0999999996275,img/planet4_right.png,4,Community 2,NA,TRUE,j,j,NA,NA,NA,2,9,"2,12,11,5,14,15,10,4,9,1,7,8,13,3,6"
14619,commdev-image-keyboard-response,596,2290058,learnblock2,1115.9000000003725,img/planet9_right.png,9,Community 2,NA,TRUE,j,j,NA,NA,NA,2,9,"2,12,11,5,14,15,10,4,9,1,7,8,13,3,6"
14619,commdev-image-keyboard-response,597,2291311,learnblock2,823.7999999988824,img/planet1_left.png,1,Community 2,NA,TRUE,f,f,NA,NA,NA,2,9,"2,12,11,5,14,15,10,4,9,1,7,8,13,3,6"
14619,commdev-image-keyboard-response,598,2292563,learnblock2,1221.4000000003725,img/planet10_left.png,10,Community 2,NA,FALSE,j,f,NA,NA,NA,2,9,"2,12,11,5,14,15,10,4,9,1,7,8,13,3,6"
14619,commdev-image-keyboard-response,599,2293815,learnblock2,null,img/planet1_right.png,1,Community 2,NA,FALSE,null,j,NA,NA,NA,2,9,"2,12,11,5,14,15,10,4,9,1,7,8,13,3,6"
14619,commdev-image-keyboard-response,600,2295068,learnblock2,672.2999999988824,img/planet9_left.png,9,Community 2,NA,FALSE,j,f,NA,NA,NA,2,9,"2,12,11,5,14,15,10,4,9,1,7,8,13,3,6"
14619,commdev-image-keyboard-response,601,2296320,learnblock2,384.2000000011176,img/planet10_left.png,10,Community 2,NA,TRUE,f,f,NA,NA,NA,2,9,"2,12,11,5,14,15,10,4,9,1,7,8,13,3,6"
14619,commdev-image-keyboard-response,602,2297572,learnblock2,817,img/planet15_left.png,15,Community 2,NA,TRUE,f,f,NA,NA,NA,2,9,"2,12,11,5,14,15,10,4,9,1,7,8,13,3,6"
14619,commdev-image-keyboard-response,603,2298824,learnblock2,746.9000000003725,img/planet5_right.png,5,Community 1,NA,FALSE,f,j,NA,NA,NA,2,9,"2,12,11,5,14,15,10,4,9,1,7,8,13,3,6"
14619,commdev-image-keyboard-response,604,2300077,learnblock2,707.9000000003725,img/planet2_right.png,2,Community 1,NA,FALSE,f,j,NA,NA,NA,2,9,"2,12,11,5,14,15,10,4,9,1,7,8,13,3,6"
14619,commdev-image-keyboard-response,605,2301329,learnblock2,77.5,img/planet14_right.png,14,Community 1,NA,TRUE,j,j,NA,NA,NA,2,9,"2,12,11,5,14,15,10,4,9,1,7,8,13,3,6"
14619,commdev-image-keyboard-response,606,2302582,learnblock2,519.9000000003725,img/planet2_left.png,2,Community 1,NA,FALSE,j,f,NA,NA,NA,2,9,"2,12,11,5,14,15,10,4,9,1,7,8,13,3,6"
14619,commdev-image-keyboard-response,607,2303834,learnblock2,996.4000000003725,img/planet5_left.png,5,Community 1,NA,FALSE,j,f,NA,NA,NA,2,9,"2,12,11,5,14,15,10,4,9,1,7,8,13,3,6"
14619,commdev-image-keyboard-response,608,2305086,learnblock2,1059.800000000745,img/planet11_left.png,11,Community 1,NA,FALSE,j,f,NA,NA,NA,2,9,"2,12,11,5,14,15,10,4,9,1,7,8,13,3,6"
14619,commdev-image-keyboard-response,609,2306338,learnblock2,1078.199999999255,img/planet14_right.png,14,Community 1,NA,FALSE,f,j,NA,NA,NA,2,9,"2,12,11,5,14,15,10,4,9,1,7,8,13,3,6"
14619,commdev-image-keyboard-response,610,2307591,learnblock2,1067.5,img/planet7_left.png,7,Community 3,NA,FALSE,j,f,NA,NA,NA,2,9,"2,12,11,5,14,15,10,4,9,1,7,8,13,3,6"
14619,commdev-image-keyboard-response,611,2308843,learnblock2,null,img/planet3_left.png,3,Community 3,NA,FALSE,null,f,NA,NA,NA,2,9,"2,12,11,5,14,15,10,4,9,1,7,8,13,3,6"
14619,commdev-image-keyboard-response,612,2310095,learnblock2,42.09999999962747,img/planet6_right.png,6,Community 3,NA,FALSE,f,j,NA,NA,NA,2,9,"2,12,11,5,14,15,10,4,9,1,7,8,13,3,6"
14619,commdev-image-keyboard-response,613,2311347,learnblock2,940.5999999996275,img/planet3_right.png,3,Community 3,NA,TRUE,j,j,NA,NA,NA,2,9,"2,12,11,5,14,15,10,4,9,1,7,8,13,3,6"
14619,commdev-image-keyboard-response,614,2312599,learnblock2,932.2000000011176,img/planet8_right.png,8,Community 3,NA,FALSE,f,j,NA,NA,NA,2,9,"2,12,11,5,14,15,10,4,9,1,7,8,13,3,6"
14619,commdev-image-keyboard-response,615,2313851,learnblock2,null,img/planet13_right.png,13,Community 3,NA,FALSE,null,j,NA,NA,NA,2,9,"2,12,11,5,14,15,10,4,9,1,7,8,13,3,6"
14619,commdev-image-keyboard-response,616,2315104,learnblock2,1008.3000000007451,img/planet3_left.png,3,Community 3,NA,TRUE,f,f,NA,NA,NA,2,9,"2,12,11,5,14,15,10,4,9,1,7,8,13,3,6"
14619,commdev-image-keyboard-response,617,2316356,learnblock2,874.3000000007451,img/planet7_right.png,7,Community 3,NA,TRUE,j,j,NA,NA,NA,2,9,"2,12,11,5,14,15,10,4,9,1,7,8,13,3,6"
14619,commdev-image-keyboard-response,618,2317608,learnblock2,1140.199999999255,img/planet14_right.png,14,Community 1,NA,TRUE,j,j,NA,NA,NA,2,9,"2,12,11,5,14,15,10,4,9,1,7,8,13,3,6"
14619,commdev-image-keyboard-response,619,2318860,learnblock2,994.0999999996275,img/planet12_right.png,12,Community 1,NA,TRUE,j,j,NA,NA,NA,2,9,"2,12,11,5,14,15,10,4,9,1,7,8,13,3,6"
14619,commdev-image-keyboard-response,620,2320112,learnblock2,644.1000000014901,img/planet5_right.png,5,Community 1,NA,TRUE,j,j,NA,NA,NA,2,9,"2,12,11,5,14,15,10,4,9,1,7,8,13,3,6"
14619,commdev-image-keyboard-response,621,2321364,learnblock2,976.7999999988824,img/planet12_right.png,12,Community 1,NA,TRUE,j,j,NA,NA,NA,2,9,"2,12,11,5,14,15,10,4,9,1,7,8,13,3,6"
14619,commdev-image-keyboard-response,622,2322616,learnblock2,686.2000000011176,img/planet11_right.png,11,Community 1,NA,TRUE,j,j,NA,NA,NA,2,9,"2,12,11,5,14,15,10,4,9,1,7,8,13,3,6"
14619,commdev-image-keyboard-response,623,2323867,learnblock2,932.6000000014901,img/planet14_right.png,14,Community 1,NA,TRUE,j,j,NA,NA,NA,2,9,"2,12,11,5,14,15,10,4,9,1,7,8,13,3,6"
14619,commdev-image-keyboard-response,624,2325119,learnblock2,548.0999999996275,img/planet2_left.png,2,Community 1,NA,FALSE,j,f,NA,NA,NA,2,9,"2,12,11,5,14,15,10,4,9,1,7,8,13,3,6"
14619,commdev-image-keyboard-response,625,2326372,learnblock2,724.0999999996275,img/planet5_right.png,5,Community 1,NA,TRUE,j,j,NA,NA,NA,2,9,"2,12,11,5,14,15,10,4,9,1,7,8,13,3,6"
14619,commdev-image-keyboard-response,626,2327624,learnblock2,1005.3999999985099,img/planet2_right.png,2,Community 1,NA,TRUE,j,j,NA,NA,NA,2,9,"2,12,11,5,14,15,10,4,9,1,7,8,13,3,6"
14619,commdev-image-keyboard-response,627,2328876,learnblock2,957.9000000003725,img/planet12_left.png,12,Community 1,NA,TRUE,f,f,NA,NA,NA,2,9,"2,12,11,5,14,15,10,4,9,1,7,8,13,3,6"
14619,commdev-image-keyboard-response,628,2330129,learnblock2,786.9000000003725,img/planet2_right.png,2,Community 1,NA,TRUE,j,j,NA,NA,NA,2,9,"2,12,11,5,14,15,10,4,9,1,7,8,13,3,6"
14619,commdev-image-keyboard-response,629,2331381,learnblock2,null,img/planet11_left.png,11,Community 1,NA,FALSE,null,f,NA,NA,NA,2,9,"2,12,11,5,14,15,10,4,9,1,7,8,13,3,6"
14619,commdev-image-keyboard-response,630,2332633,learnblock2,908.5,img/planet2_right.png,2,Community 1,NA,TRUE,j,j,NA,NA,NA,2,9,"2,12,11,5,14,15,10,4,9,1,7,8,13,3,6"
14619,commdev-image-keyboard-response,631,2333886,learnblock2,941.5,img/planet11_left.png,11,Community 1,NA,FALSE,j,f,NA,NA,NA,2,9,"2,12,11,5,14,15,10,4,9,1,7,8,13,3,6"
14619,commdev-image-keyboard-response,632,2335138,learnblock2,565.0999999996275,img/planet2_left.png,2,Community 1,NA,TRUE,f,f,NA,NA,NA,2,9,"2,12,11,5,14,15,10,4,9,1,7,8,13,3,6"
14619,commdev-image-keyboard-response,633,2336390,learnblock2,321.90000000037253,img/planet12_left.png,12,Community 1,NA,TRUE,f,f,NA,NA,NA,2,9,"2,12,11,5,14,15,10,4,9,1,7,8,13,3,6"
14619,commdev-image-keyboard-response,634,2337643,learnblock2,572.5,img/planet5_left.png,5,Community 1,NA,TRUE,f,f,NA,NA,NA,2,9,"2,12,11,5,14,15,10,4,9,1,7,8,13,3,6"
14619,commdev-image-keyboard-response,635,2338895,learnblock2,473.3999999985099,img/planet11_left.png,11,Community 1,NA,TRUE,f,f,NA,NA,NA,2,9,"2,12,11,5,14,15,10,4,9,1,7,8,13,3,6"
14619,commdev-image-keyboard-response,636,2340147,learnblock2,420.09999999962747,img/planet5_right.png,5,Community 1,NA,FALSE,f,j,NA,NA,NA,2,9,"2,12,11,5,14,15,10,4,9,1,7,8,13,3,6"
14619,commdev-image-keyboard-response,637,2341400,learnblock2,456.30000000074506,img/planet15_left.png,15,Community 2,NA,TRUE,f,f,NA,NA,NA,2,9,"2,12,11,5,14,15,10,4,9,1,7,8,13,3,6"
14619,commdev-image-keyboard-response,638,2342652,learnblock2,935.1999999992549,img/planet5_right.png,5,Community 1,NA,FALSE,f,j,NA,NA,NA,2,9,"2,12,11,5,14,15,10,4,9,1,7,8,13,3,6"
14619,commdev-image-keyboard-response,639,2343904,learnblock2,153.40000000037253,img/planet11_right.png,11,Community 1,NA,TRUE,j,j,NA,NA,NA,2,9,"2,12,11,5,14,15,10,4,9,1,7,8,13,3,6"
14619,commdev-image-keyboard-response,640,2345156,learnblock2,null,img/planet12_right.png,12,Community 1,NA,FALSE,null,j,NA,NA,NA,2,9,"2,12,11,5,14,15,10,4,9,1,7,8,13,3,6"
14619,commdev-image-keyboard-response,641,2346409,learnblock2,77.30000000074506,img/planet11_left.png,11,Community 1,NA,FALSE,j,f,NA,NA,NA,2,9,"2,12,11,5,14,15,10,4,9,1,7,8,13,3,6"
14619,commdev-image-keyboard-response,642,2347661,learnblock2,1123.9000000003725,img/planet5_left.png,5,Community 1,NA,TRUE,f,f,NA,NA,NA,2,9,"2,12,11,5,14,15,10,4,9,1,7,8,13,3,6"
14619,commdev-image-keyboard-response,643,2348914,learnblock2,723.5,img/planet15_left.png,15,Community 2,NA,TRUE,f,f,NA,NA,NA,2,9,"2,12,11,5,14,15,10,4,9,1,7,8,13,3,6"
14619,commdev-image-keyboard-response,644,2350166,learnblock2,832.5999999996275,img/planet9_left.png,9,Community 2,NA,TRUE,f,f,NA,NA,NA,2,9,"2,12,11,5,14,15,10,4,9,1,7,8,13,3,6"
14619,commdev-image-keyboard-response,645,2351418,learnblock2,434,img/planet15_right.png,15,Community 2,NA,FALSE,f,j,NA,NA,NA,2,9,"2,12,11,5,14,15,10,4,9,1,7,8,13,3,6"
14619,commdev-image-keyboard-response,646,2352671,learnblock2,868.7999999988824,img/planet5_left.png,5,Community 1,NA,TRUE,f,f,NA,NA,NA,2,9,"2,12,11,5,14,15,10,4,9,1,7,8,13,3,6"
14619,commdev-image-keyboard-response,647,2353923,learnblock2,null,img/planet12_left.png,12,Community 1,NA,FALSE,null,f,NA,NA,NA,2,9,"2,12,11,5,14,15,10,4,9,1,7,8,13,3,6"
14619,commdev-image-keyboard-response,648,2355175,learnblock2,74.70000000111759,img/planet2_right.png,2,Community 1,NA,FALSE,f,j,NA,NA,NA,2,9,"2,12,11,5,14,15,10,4,9,1,7,8,13,3,6"
14619,commdev-image-keyboard-response,649,2356427,learnblock2,889.8000000007451,img/planet14_right.png,14,Community 1,NA,TRUE,j,j,NA,NA,NA,2,9,"2,12,11,5,14,15,10,4,9,1,7,8,13,3,6"
14619,commdev-image-keyboard-response,650,2357679,learnblock2,920.6000000014901,img/planet11_left.png,11,Community 1,NA,TRUE,f,f,NA,NA,NA,2,9,"2,12,11,5,14,15,10,4,9,1,7,8,13,3,6"
14619,commdev-image-keyboard-response,651,2358931,learnblock2,819.8000000007451,img/planet12_right.png,12,Community 1,NA,TRUE,j,j,NA,NA,NA,2,9,"2,12,11,5,14,15,10,4,9,1,7,8,13,3,6"
14619,commdev-image-keyboard-response,652,2360183,learnblock2,1025.5,img/planet5_right.png,5,Community 1,NA,TRUE,j,j,NA,NA,NA,2,9,"2,12,11,5,14,15,10,4,9,1,7,8,13,3,6"
14619,commdev-image-keyboard-response,653,2361435,learnblock2,1188,img/planet15_right.png,15,Community 2,NA,TRUE,j,j,NA,NA,NA,2,9,"2,12,11,5,14,15,10,4,9,1,7,8,13,3,6"
14619,commdev-image-keyboard-response,654,2362688,learnblock2,1231.2000000011176,img/planet1_right.png,1,Community 2,NA,TRUE,j,j,NA,NA,NA,2,9,"2,12,11,5,14,15,10,4,9,1,7,8,13,3,6"
14619,commdev-image-keyboard-response,655,2363940,learnblock2,864.4000000003725,img/planet4_right.png,4,Community 2,NA,TRUE,j,j,NA,NA,NA,2,9,"2,12,11,5,14,15,10,4,9,1,7,8,13,3,6"
14619,commdev-image-keyboard-response,656,2365192,learnblock2,553.3000000007451,img/planet1_left.png,1,Community 2,NA,TRUE,f,f,NA,NA,NA,2,9,"2,12,11,5,14,15,10,4,9,1,7,8,13,3,6"
14619,commdev-image-keyboard-response,657,2366444,learnblock2,817.2000000011176,img/planet4_left.png,4,Community 2,NA,TRUE,f,f,NA,NA,NA,2,9,"2,12,11,5,14,15,10,4,9,1,7,8,13,3,6"
14619,commdev-image-keyboard-response,658,2367696,learnblock2,593.1000000014901,img/planet8_right.png,8,Community 3,NA,FALSE,f,j,NA,NA,NA,2,9,"2,12,11,5,14,15,10,4,9,1,7,8,13,3,6"
14619,commdev-image-keyboard-response,659,2368948,learnblock2,1052.5,img/planet13_left.png,13,Community 3,NA,TRUE,f,f,NA,NA,NA,2,9,"2,12,11,5,14,15,10,4,9,1,7,8,13,3,6"
14619,commdev-image-keyboard-response,660,2370200,learnblock2,912.5,img/planet7_right.png,7,Community 3,NA,TRUE,j,j,NA,NA,NA,2,9,"2,12,11,5,14,15,10,4,9,1,7,8,13,3,6"
14619,commdev-image-keyboard-response,661,2371452,learnblock2,696.6999999992549,img/planet14_left.png,14,Community 1,NA,TRUE,f,f,NA,NA,NA,2,9,"2,12,11,5,14,15,10,4,9,1,7,8,13,3,6"
14619,commdev-image-keyboard-response,662,2372704,learnblock2,1010.1999999992549,img/planet7_right.png,7,Community 3,NA,TRUE,j,j,NA,NA,NA,2,9,"2,12,11,5,14,15,10,4,9,1,7,8,13,3,6"
14619,commdev-image-keyboard-response,663,2373957,learnblock2,1029.5,img/planet13_right.png,13,Community 3,NA,TRUE,j,j,NA,NA,NA,2,9,"2,12,11,5,14,15,10,4,9,1,7,8,13,3,6"
14619,commdev-image-keyboard-response,664,2375209,learnblock2,960.9000000003725,img/planet3_left.png,3,Community 3,NA,TRUE,f,f,NA,NA,NA,2,9,"2,12,11,5,14,15,10,4,9,1,7,8,13,3,6"
14619,commdev-image-keyboard-response,665,2376460,learnblock2,1067.5999999996275,img/planet13_right.png,13,Community 3,NA,TRUE,j,j,NA,NA,NA,2,9,"2,12,11,5,14,15,10,4,9,1,7,8,13,3,6"
14619,commdev-image-keyboard-response,666,2377712,learnblock2,1171.9000000003725,img/planet7_left.png,7,Community 3,NA,FALSE,j,f,NA,NA,NA,2,9,"2,12,11,5,14,15,10,4,9,1,7,8,13,3,6"
