subject_id,trial_type,trial_index,time_elapsed,block,rt,stimulus,planet,community,response,correct,key_press,learning_correct_response,parse,init_locations,final_locations,browser_interactions,num_comp,planet_map
14968,commdev-instructions,7,31998,NA,1631.5999999642372,"<p>In this game, you will be shown a 3x3 grid of patterns.</p> <p>The last one in the bottom right-hand corner, <strong>will be missing:</strong></p> <div style='width: 700px;'><div style='float: top;'><img style='width: 200px;' src='practice/p1_M1.png'></img><p class='small'>You need to select<strong> which of the four possible patterns </strong>along the bottom<strong> fits into the gap:</strong></p></div><div style='float: top;'><img style='width: 300px;' src='practice/p1_T1.png'></img></div><br>",NA,NA,NA,NA,NA,NA,NA,NA,NA,1,7,"2,5,4,7,14,15,10,9,1,8,12,6,13,3,11"
14968,commdev-instructions,8,59911,NA,10674.899999976158,"<p>Try to be as fast and as accurate as you can be.</p> <p>If you cannot solve the puzzle then you should guess - you will not be penalised for an incorrect answer.</p> <p>The task contains a shuffled mix of easy, medium and hard puzzles.</p> <p>You will have <strong>30 seconds</strong> to complete each puzzle.</p><br>",NA,NA,NA,NA,NA,NA,NA,NA,NA,1,7,"2,5,4,7,14,15,10,9,1,8,12,6,13,3,11"
14968,commdev-instructions,15,107237,NA,26044.400000035763,<p><strong>Success!</strong></p> <p>You seem to be getting the hang of this...</p> <p>Let's move on to the real trials.</p><br>,NA,NA,NA,NA,NA,NA,NA,NA,NA,1,7,"2,5,4,7,14,15,10,9,1,8,12,6,13,3,11"
14968,commdev-instructions,81,604561,NA,4884.399999976158,"<p>In this game, you are a scientist on board a space shuttle. </p><p> On each mission, you will visit planets all across the universe.</p><img src=""img/controlroom.jpg"" width=300vw>",NA,NA,NA,NA,NA,NA,NA,NA,NA,1,7,"2,5,4,7,14,15,10,9,1,8,12,6,13,3,11"
14968,commdev-instructions,82,610654,NA,4023.400000035763,"<p>Here are a few planets you might see:</p><img src=""img/practice1.png"" width=200vw><img src=""img/practice2.png"" width=200vw><img src=""img/practice3.png"" width=200vw>",NA,NA,NA,NA,NA,NA,NA,NA,NA,1,7,"2,5,4,7,14,15,10,9,1,8,12,6,13,3,11"
14968,commdev-instructions,83,622204,NA,4138.600000023842,"<p>Your job as a scientist is to record which direction the winds are moving on each planet.</p><p>There are two types of wind directions:</p><img src=""img/practice1_left.png"" width=200vw><img src=""img/practice1_right.png"" width=200vw>",NA,NA,NA,NA,NA,NA,NA,NA,NA,1,7,"2,5,4,7,14,15,10,9,1,8,12,6,13,3,11"
14968,commdev-instructions,84,628975,NA,1885,"<p>If the winds are moving this way, press the letter <strong>F</strong> on the keyboard as fast as you can.</p><img src=""img/leftwind.png"" width=250vw>",NA,NA,NA,NA,NA,NA,NA,NA,NA,1,7,"2,5,4,7,14,15,10,9,1,8,12,6,13,3,11"
14968,commdev-instructions,85,636304,NA,2824.199999988079,"<p>If the winds are moving this way, press the letter <strong>J</strong> on the keyboard as fast as you can.</p><img src=""img/rightwind.png"" width=350vw>",NA,NA,NA,NA,NA,NA,NA,NA,NA,1,7,"2,5,4,7,14,15,10,9,1,8,12,6,13,3,11"
14968,commdev-instructions,86,642255,NA,1521.8999999761581,<p>You will have 1 second to respond. Try to respond before the time runs out!,NA,NA,NA,NA,NA,NA,NA,NA,NA,1,7,"2,5,4,7,14,15,10,9,1,8,12,6,13,3,11"
14968,commdev-instructions,87,649601,NA,1913.6000000238419,<p>The planets you will visit will look different from each other.</p><p>You should respond <strong>only</strong> based on wind direction.,NA,NA,NA,NA,NA,NA,NA,NA,NA,1,7,"2,5,4,7,14,15,10,9,1,8,12,6,13,3,11"
14968,commdev-instructions,88,655505,NA,724.5,"<p> Ready to start the practice round? </p><p> Remember, press <strong>F</strong> or <strong>J</strong> depending on the wind direction.<br><img src=""img/categorize_planet_example.png""",NA,NA,NA,NA,NA,NA,NA,NA,NA,1,7,"2,5,4,7,14,15,10,9,1,8,12,6,13,3,11"
14968,commdev-instructions,100,722592,NA,1168.800000011921,"<p>Great, now try a short practice mission. </p><p> This time, you will have 1 second to respond and you won't know whether you pressed the right or wrong key for each planet.</p>",NA,NA,NA,NA,NA,NA,NA,NA,NA,1,7,"2,5,4,7,14,15,10,9,1,8,12,6,13,3,11"
14968,commdev-image-keyboard-response,101,723958,practice,1058.199999988079,img/practice4_right.png,NA,Number not found in mappings,NA,TRUE,j,j,NA,NA,NA,1,7,"2,5,4,7,14,15,10,9,1,8,12,6,13,3,11"
14968,commdev-image-keyboard-response,102,725225,practice,858.8999999761581,img/practice3_left.png,NA,Number not found in mappings,NA,TRUE,f,f,NA,NA,NA,1,7,"2,5,4,7,14,15,10,9,1,8,12,6,13,3,11"
14968,commdev-image-keyboard-response,103,726483,practice,605.5,img/practice2_right.png,NA,Number not found in mappings,NA,TRUE,j,j,NA,NA,NA,1,7,"2,5,4,7,14,15,10,9,1,8,12,6,13,3,11"
14968,commdev-image-keyboard-response,104,727736,practice,453.60000002384186,img/practice4_left.png,NA,Number not found in mappings,NA,TRUE,f,f,NA,NA,NA,1,7,"2,5,4,7,14,15,10,9,1,8,12,6,13,3,11"
14968,commdev-image-keyboard-response,105,729000,practice,490.9000000357628,img/practice2_right.png,NA,Number not found in mappings,NA,TRUE,j,j,NA,NA,NA,1,7,"2,5,4,7,14,15,10,9,1,8,12,6,13,3,11"
14968,commdev-image-keyboard-response,106,730254,practice,538.8000000119209,img/practice4_right.png,NA,Number not found in mappings,NA,TRUE,j,j,NA,NA,NA,1,7,"2,5,4,7,14,15,10,9,1,8,12,6,13,3,11"
14968,commdev-image-keyboard-response,107,731507,practice,712.8000000119209,img/practice3_left.png,NA,Number not found in mappings,NA,TRUE,f,f,NA,NA,NA,1,7,"2,5,4,7,14,15,10,9,1,8,12,6,13,3,11"
14968,commdev-image-keyboard-response,108,732760,practice,579.4000000357628,img/practice1_right.png,NA,Number not found in mappings,NA,TRUE,j,j,NA,NA,NA,1,7,"2,5,4,7,14,15,10,9,1,8,12,6,13,3,11"
14968,commdev-instructions,109,743211,NA,902.6999999880791,"<p>Great job with the practice round.</p><p>During real missions, you won't know whether you pressed the right or wrong key for each planet.</p><p>But between missions, we will tell you how you did overall.</p>",NA,NA,NA,NA,NA,NA,NA,NA,NA,1,7,"2,5,4,7,14,15,10,9,1,8,12,6,13,3,11"
14968,commdev-instructions,110,752624,NA,1174.4000000357628,<p>Try your best! You will be paid a bonus based on how many correct responses you make!</p><p>Responses that are too slow will not count toward your bonus.</p>,NA,NA,NA,NA,NA,NA,NA,NA,NA,1,7,"2,5,4,7,14,15,10,9,1,8,12,6,13,3,11"
14968,commdev-instructions,111,759643,NA,812.3999999761581,"<p>You are almost ready to start the real game.</p><p> First, we are going to ask you some questions about how the game works.</p>",NA,NA,NA,NA,NA,NA,NA,NA,NA,1,7,"2,5,4,7,14,15,10,9,1,8,12,6,13,3,11"
14968,commdev-instructions,120,842312,NA,1059,"<p> Nice work! It is now time to start the real game.<p></p>You will go on two missions to record wind directions of different planets.<p></p>Each one will take about 5 minutes. You will get to take a break between missions.<p><p> Remember, press <strong>F</strong> or <strong>J</strong> depending on the wind direction. Good luck!<br><img src=""img/categorize_planet_example.png""",NA,NA,NA,NA,NA,NA,NA,NA,NA,1,7,"2,5,4,7,14,15,10,9,1,8,12,6,13,3,11"
14968,commdev-image-keyboard-response,122,847582,learnblock1,994.6000000238419,img/planet6_right.png,6,Community 3,NA,FALSE,f,j,NA,NA,NA,1,7,"2,5,4,7,14,15,10,9,1,8,12,6,13,3,11"
14968,commdev-image-keyboard-response,123,848835,learnblock1,1010.7000000476837,img/planet11_right.png,11,Community 3,NA,TRUE,j,j,NA,NA,NA,1,7,"2,5,4,7,14,15,10,9,1,8,12,6,13,3,11"
14968,commdev-image-keyboard-response,124,850089,learnblock1,737.1999999880791,img/planet13_left.png,13,Community 3,NA,TRUE,f,f,NA,NA,NA,1,7,"2,5,4,7,14,15,10,9,1,8,12,6,13,3,11"
14968,commdev-image-keyboard-response,125,851352,learnblock1,702.3999999761581,img/planet12_right.png,12,Community 3,NA,TRUE,j,j,NA,NA,NA,1,7,"2,5,4,7,14,15,10,9,1,8,12,6,13,3,11"
14968,commdev-image-keyboard-response,126,852606,learnblock1,797.7000000476837,img/planet14_right.png,14,Community 1,NA,TRUE,j,j,NA,NA,NA,1,7,"2,5,4,7,14,15,10,9,1,8,12,6,13,3,11"
14968,commdev-image-keyboard-response,127,853859,learnblock1,687.6000000238419,img/planet4_left.png,4,Community 1,NA,TRUE,f,f,NA,NA,NA,1,7,"2,5,4,7,14,15,10,9,1,8,12,6,13,3,11"
14968,commdev-image-keyboard-response,128,855112,learnblock1,534.7999999523163,img/planet7_right.png,7,Community 1,NA,TRUE,j,j,NA,NA,NA,1,7,"2,5,4,7,14,15,10,9,1,8,12,6,13,3,11"
14968,commdev-image-keyboard-response,129,856366,learnblock1,600.3999999761581,img/planet15_left.png,15,Community 2,NA,TRUE,f,f,NA,NA,NA,1,7,"2,5,4,7,14,15,10,9,1,8,12,6,13,3,11"
14968,commdev-image-keyboard-response,130,857629,learnblock1,470.89999997615814,img/planet7_right.png,7,Community 1,NA,TRUE,j,j,NA,NA,NA,1,7,"2,5,4,7,14,15,10,9,1,8,12,6,13,3,11"
14968,commdev-image-keyboard-response,131,858883,learnblock1,532.2999999523163,img/planet2_left.png,2,Community 1,NA,TRUE,f,f,NA,NA,NA,1,7,"2,5,4,7,14,15,10,9,1,8,12,6,13,3,11"
14968,commdev-image-keyboard-response,132,860147,learnblock1,547.4000000357628,img/planet5_right.png,5,Community 1,NA,TRUE,j,j,NA,NA,NA,1,7,"2,5,4,7,14,15,10,9,1,8,12,6,13,3,11"
14968,commdev-image-keyboard-response,133,861399,learnblock1,576.5999999642372,img/planet4_left.png,4,Community 1,NA,TRUE,f,f,NA,NA,NA,1,7,"2,5,4,7,14,15,10,9,1,8,12,6,13,3,11"
14968,commdev-image-keyboard-response,134,862653,learnblock1,477.30000001192093,img/planet2_right.png,2,Community 1,NA,TRUE,j,j,NA,NA,NA,1,7,"2,5,4,7,14,15,10,9,1,8,12,6,13,3,11"
14968,commdev-image-keyboard-response,135,863905,learnblock1,642.1000000238419,img/planet14_right.png,14,Community 1,NA,TRUE,j,j,NA,NA,NA,1,7,"2,5,4,7,14,15,10,9,1,8,12,6,13,3,11"
14968,commdev-image-keyboard-response,136,865170,learnblock1,597.8000000119209,img/planet12_right.png,12,Community 3,NA,TRUE,j,j,NA,NA,NA,1,7,"2,5,4,7,14,15,10,9,1,8,12,6,13,3,11"
14968,commdev-image-keyboard-response,137,866424,learnblock1,551.8999999761581,img/planet14_right.png,14,Community 1,NA,TRUE,j,j,NA,NA,NA,1,7,"2,5,4,7,14,15,10,9,1,8,12,6,13,3,11"
14968,commdev-image-keyboard-response,138,867688,learnblock1,479.5,img/planet12_left.png,12,Community 3,NA,TRUE,f,f,NA,NA,NA,1,7,"2,5,4,7,14,15,10,9,1,8,12,6,13,3,11"
14968,commdev-image-keyboard-response,139,868941,learnblock1,722.1999999880791,img/planet11_left.png,11,Community 3,NA,TRUE,f,f,NA,NA,NA,1,7,"2,5,4,7,14,15,10,9,1,8,12,6,13,3,11"
14968,commdev-image-keyboard-response,140,870206,learnblock1,629.8000000119209,img/planet3_left.png,3,Community 3,NA,TRUE,f,f,NA,NA,NA,1,7,"2,5,4,7,14,15,10,9,1,8,12,6,13,3,11"
14968,commdev-image-keyboard-response,141,871457,learnblock1,559.6999999880791,img/planet12_left.png,12,Community 3,NA,TRUE,f,f,NA,NA,NA,1,7,"2,5,4,7,14,15,10,9,1,8,12,6,13,3,11"
14968,commdev-image-keyboard-response,142,872710,learnblock1,450.30000001192093,img/planet14_right.png,14,Community 1,NA,FALSE,f,j,NA,NA,NA,1,7,"2,5,4,7,14,15,10,9,1,8,12,6,13,3,11"
14968,commdev-image-keyboard-response,143,873961,learnblock1,647.3999999761581,img/planet2_right.png,2,Community 1,NA,FALSE,f,j,NA,NA,NA,1,7,"2,5,4,7,14,15,10,9,1,8,12,6,13,3,11"
14968,commdev-image-keyboard-response,144,875213,learnblock1,800.8000000119209,img/planet4_right.png,4,Community 1,NA,TRUE,j,j,NA,NA,NA,1,7,"2,5,4,7,14,15,10,9,1,8,12,6,13,3,11"
14968,commdev-image-keyboard-response,145,876464,learnblock1,663,img/planet14_right.png,14,Community 1,NA,TRUE,j,j,NA,NA,NA,1,7,"2,5,4,7,14,15,10,9,1,8,12,6,13,3,11"
14968,commdev-image-keyboard-response,146,877716,learnblock1,550.8000000119209,img/planet2_right.png,2,Community 1,NA,TRUE,j,j,NA,NA,NA,1,7,"2,5,4,7,14,15,10,9,1,8,12,6,13,3,11"
14968,commdev-image-keyboard-response,147,878967,learnblock1,425.69999998807907,img/planet14_left.png,14,Community 1,NA,FALSE,j,f,NA,NA,NA,1,7,"2,5,4,7,14,15,10,9,1,8,12,6,13,3,11"
14968,commdev-image-keyboard-response,148,880219,learnblock1,807.5999999642372,img/planet12_left.png,12,Community 3,NA,TRUE,f,f,NA,NA,NA,1,7,"2,5,4,7,14,15,10,9,1,8,12,6,13,3,11"
14968,commdev-image-keyboard-response,149,881471,learnblock1,728.6000000238419,img/planet11_right.png,11,Community 3,NA,TRUE,j,j,NA,NA,NA,1,7,"2,5,4,7,14,15,10,9,1,8,12,6,13,3,11"
14968,commdev-image-keyboard-response,150,882723,learnblock1,771.5,img/planet3_right.png,3,Community 3,NA,TRUE,j,j,NA,NA,NA,1,7,"2,5,4,7,14,15,10,9,1,8,12,6,13,3,11"
14968,commdev-image-keyboard-response,151,883975,learnblock1,601.8000000119209,img/planet12_right.png,12,Community 3,NA,TRUE,j,j,NA,NA,NA,1,7,"2,5,4,7,14,15,10,9,1,8,12,6,13,3,11"
14968,commdev-image-keyboard-response,152,885227,learnblock1,522.1000000238419,img/planet13_right.png,13,Community 3,NA,TRUE,j,j,NA,NA,NA,1,7,"2,5,4,7,14,15,10,9,1,8,12,6,13,3,11"
14968,commdev-image-keyboard-response,153,886479,learnblock1,446.60000002384186,img/planet12_left.png,12,Community 3,NA,FALSE,j,f,NA,NA,NA,1,7,"2,5,4,7,14,15,10,9,1,8,12,6,13,3,11"
14968,commdev-image-keyboard-response,154,887731,learnblock1,868,img/planet3_left.png,3,Community 3,NA,TRUE,f,f,NA,NA,NA,1,7,"2,5,4,7,14,15,10,9,1,8,12,6,13,3,11"
14968,commdev-image-keyboard-response,155,888983,learnblock1,759.5999999642372,img/planet12_right.png,12,Community 3,NA,TRUE,j,j,NA,NA,NA,1,7,"2,5,4,7,14,15,10,9,1,8,12,6,13,3,11"
14968,commdev-image-keyboard-response,156,890235,learnblock1,819.8999999761581,img/planet13_right.png,13,Community 3,NA,TRUE,j,j,NA,NA,NA,1,7,"2,5,4,7,14,15,10,9,1,8,12,6,13,3,11"
14968,commdev-image-keyboard-response,157,891487,learnblock1,673.4000000357628,img/planet11_left.png,11,Community 3,NA,TRUE,f,f,NA,NA,NA,1,7,"2,5,4,7,14,15,10,9,1,8,12,6,13,3,11"
14968,commdev-image-keyboard-response,158,892739,learnblock1,681.3000000119209,img/planet3_left.png,3,Community 3,NA,TRUE,f,f,NA,NA,NA,1,7,"2,5,4,7,14,15,10,9,1,8,12,6,13,3,11"
14968,commdev-image-keyboard-response,159,893991,learnblock1,711,img/planet11_right.png,11,Community 3,NA,TRUE,j,j,NA,NA,NA,1,7,"2,5,4,7,14,15,10,9,1,8,12,6,13,3,11"
14968,commdev-image-keyboard-response,160,895242,learnblock1,628.6000000238419,img/planet13_right.png,13,Community 3,NA,TRUE,j,j,NA,NA,NA,1,7,"2,5,4,7,14,15,10,9,1,8,12,6,13,3,11"
14968,commdev-image-keyboard-response,161,896493,learnblock1,641.5,img/planet12_right.png,12,Community 3,NA,TRUE,j,j,NA,NA,NA,1,7,"2,5,4,7,14,15,10,9,1,8,12,6,13,3,11"
14968,commdev-image-keyboard-response,162,897745,learnblock1,702.8000000119209,img/planet11_right.png,11,Community 3,NA,TRUE,j,j,NA,NA,NA,1,7,"2,5,4,7,14,15,10,9,1,8,12,6,13,3,11"
14968,commdev-image-keyboard-response,163,898996,learnblock1,736.4000000357628,img/planet3_right.png,3,Community 3,NA,TRUE,j,j,NA,NA,NA,1,7,"2,5,4,7,14,15,10,9,1,8,12,6,13,3,11"
14968,commdev-image-keyboard-response,164,900248,learnblock1,587.5,img/planet11_right.png,11,Community 3,NA,TRUE,j,j,NA,NA,NA,1,7,"2,5,4,7,14,15,10,9,1,8,12,6,13,3,11"
14968,commdev-image-keyboard-response,165,901499,learnblock1,596.9000000357628,img/planet13_right.png,13,Community 3,NA,TRUE,j,j,NA,NA,NA,1,7,"2,5,4,7,14,15,10,9,1,8,12,6,13,3,11"
14968,commdev-image-keyboard-response,166,902751,learnblock1,516.3000000119209,img/planet11_right.png,11,Community 3,NA,TRUE,j,j,NA,NA,NA,1,7,"2,5,4,7,14,15,10,9,1,8,12,6,13,3,11"
14968,commdev-image-keyboard-response,167,904003,learnblock1,662.6999999880791,img/planet12_left.png,12,Community 3,NA,TRUE,f,f,NA,NA,NA,1,7,"2,5,4,7,14,15,10,9,1,8,12,6,13,3,11"
14968,commdev-image-keyboard-response,168,905254,learnblock1,718.3000000119209,img/planet13_right.png,13,Community 3,NA,TRUE,j,j,NA,NA,NA,1,7,"2,5,4,7,14,15,10,9,1,8,12,6,13,3,11"
14968,commdev-image-keyboard-response,169,906505,learnblock1,753.1000000238419,img/planet11_left.png,11,Community 3,NA,TRUE,f,f,NA,NA,NA,1,7,"2,5,4,7,14,15,10,9,1,8,12,6,13,3,11"
14968,commdev-image-keyboard-response,170,907757,learnblock1,571.3000000119209,img/planet13_right.png,13,Community 3,NA,TRUE,j,j,NA,NA,NA,1,7,"2,5,4,7,14,15,10,9,1,8,12,6,13,3,11"
14968,commdev-image-keyboard-response,171,909008,learnblock1,635.0999999642372,img/planet6_right.png,6,Community 3,NA,TRUE,j,j,NA,NA,NA,1,7,"2,5,4,7,14,15,10,9,1,8,12,6,13,3,11"
14968,commdev-image-keyboard-response,172,910259,learnblock1,639.1999999880791,img/planet9_left.png,9,Community 2,NA,TRUE,f,f,NA,NA,NA,1,7,"2,5,4,7,14,15,10,9,1,8,12,6,13,3,11"
14968,commdev-image-keyboard-response,173,911511,learnblock1,678.3000000119209,img/planet8_right.png,8,Community 2,NA,TRUE,j,j,NA,NA,NA,1,7,"2,5,4,7,14,15,10,9,1,8,12,6,13,3,11"
14968,commdev-image-keyboard-response,174,912766,learnblock1,979.6999999880791,img/planet9_left.png,9,Community 2,NA,TRUE,f,f,NA,NA,NA,1,7,"2,5,4,7,14,15,10,9,1,8,12,6,13,3,11"
14968,commdev-image-keyboard-response,175,914018,learnblock1,836.6000000238419,img/planet10_left.png,10,Community 2,NA,TRUE,f,f,NA,NA,NA,1,7,"2,5,4,7,14,15,10,9,1,8,12,6,13,3,11"
14968,commdev-image-keyboard-response,176,915269,learnblock1,787.9000000357628,img/planet8_left.png,8,Community 2,NA,TRUE,f,f,NA,NA,NA,1,7,"2,5,4,7,14,15,10,9,1,8,12,6,13,3,11"
14968,commdev-image-keyboard-response,177,916521,learnblock1,652.1999999880791,img/planet1_right.png,1,Community 2,NA,TRUE,j,j,NA,NA,NA,1,7,"2,5,4,7,14,15,10,9,1,8,12,6,13,3,11"
14968,commdev-image-keyboard-response,178,917773,learnblock1,651.7999999523163,img/planet9_right.png,9,Community 2,NA,TRUE,j,j,NA,NA,NA,1,7,"2,5,4,7,14,15,10,9,1,8,12,6,13,3,11"
14968,commdev-image-keyboard-response,179,919024,learnblock1,654.8999999761581,img/planet10_right.png,10,Community 2,NA,TRUE,j,j,NA,NA,NA,1,7,"2,5,4,7,14,15,10,9,1,8,12,6,13,3,11"
14968,commdev-image-keyboard-response,180,920276,learnblock1,669,img/planet1_right.png,1,Community 2,NA,TRUE,j,j,NA,NA,NA,1,7,"2,5,4,7,14,15,10,9,1,8,12,6,13,3,11"
14968,commdev-image-keyboard-response,181,921527,learnblock1,557.2999999523163,img/planet9_right.png,9,Community 2,NA,TRUE,j,j,NA,NA,NA,1,7,"2,5,4,7,14,15,10,9,1,8,12,6,13,3,11"
14968,commdev-image-keyboard-response,182,922779,learnblock1,591.5,img/planet6_right.png,6,Community 3,NA,TRUE,j,j,NA,NA,NA,1,7,"2,5,4,7,14,15,10,9,1,8,12,6,13,3,11"
14968,commdev-image-keyboard-response,183,924031,learnblock1,607.8000000119209,img/planet9_right.png,9,Community 2,NA,TRUE,j,j,NA,NA,NA,1,7,"2,5,4,7,14,15,10,9,1,8,12,6,13,3,11"
14968,commdev-image-keyboard-response,184,925282,learnblock1,763,img/planet8_left.png,8,Community 2,NA,TRUE,f,f,NA,NA,NA,1,7,"2,5,4,7,14,15,10,9,1,8,12,6,13,3,11"
14968,commdev-image-keyboard-response,185,926534,learnblock1,725.1999999880791,img/planet15_left.png,15,Community 2,NA,TRUE,f,f,NA,NA,NA,1,7,"2,5,4,7,14,15,10,9,1,8,12,6,13,3,11"
14968,commdev-image-keyboard-response,186,927785,learnblock1,725.5,img/planet10_right.png,10,Community 2,NA,TRUE,j,j,NA,NA,NA,1,7,"2,5,4,7,14,15,10,9,1,8,12,6,13,3,11"
14968,commdev-image-keyboard-response,187,929037,learnblock1,622.5,img/planet8_left.png,8,Community 2,NA,FALSE,j,f,NA,NA,NA,1,7,"2,5,4,7,14,15,10,9,1,8,12,6,13,3,11"
14968,commdev-image-keyboard-response,188,930289,learnblock1,688.6000000238419,img/planet10_left.png,10,Community 2,NA,TRUE,f,f,NA,NA,NA,1,7,"2,5,4,7,14,15,10,9,1,8,12,6,13,3,11"
14968,commdev-image-keyboard-response,189,931556,learnblock1,701.5,img/planet8_right.png,8,Community 2,NA,TRUE,j,j,NA,NA,NA,1,7,"2,5,4,7,14,15,10,9,1,8,12,6,13,3,11"
14968,commdev-image-keyboard-response,190,932808,learnblock1,803,img/planet9_right.png,9,Community 2,NA,TRUE,j,j,NA,NA,NA,1,7,"2,5,4,7,14,15,10,9,1,8,12,6,13,3,11"
14968,commdev-image-keyboard-response,191,934060,learnblock1,631,img/planet10_right.png,10,Community 2,NA,TRUE,j,j,NA,NA,NA,1,7,"2,5,4,7,14,15,10,9,1,8,12,6,13,3,11"
14968,commdev-image-keyboard-response,192,935312,learnblock1,543.6000000238419,img/planet9_right.png,9,Community 2,NA,TRUE,j,j,NA,NA,NA,1,7,"2,5,4,7,14,15,10,9,1,8,12,6,13,3,11"
14968,commdev-image-keyboard-response,193,936563,learnblock1,590.5,img/planet1_left.png,1,Community 2,NA,TRUE,f,f,NA,NA,NA,1,7,"2,5,4,7,14,15,10,9,1,8,12,6,13,3,11"
14968,commdev-image-keyboard-response,194,937815,learnblock1,718.6000000238419,img/planet9_right.png,9,Community 2,NA,TRUE,j,j,NA,NA,NA,1,7,"2,5,4,7,14,15,10,9,1,8,12,6,13,3,11"
14968,commdev-image-keyboard-response,195,939067,learnblock1,974.1999999880791,img/planet8_right.png,8,Community 2,NA,TRUE,j,j,NA,NA,NA,1,7,"2,5,4,7,14,15,10,9,1,8,12,6,13,3,11"
14968,commdev-image-keyboard-response,196,940318,learnblock1,934.6000000238419,img/planet15_right.png,15,Community 2,NA,TRUE,j,j,NA,NA,NA,1,7,"2,5,4,7,14,15,10,9,1,8,12,6,13,3,11"
14968,commdev-image-keyboard-response,197,941570,learnblock1,784.5,img/planet1_right.png,1,Community 2,NA,TRUE,j,j,NA,NA,NA,1,7,"2,5,4,7,14,15,10,9,1,8,12,6,13,3,11"
14968,commdev-image-keyboard-response,198,942822,learnblock1,722.1999999880791,img/planet15_right.png,15,Community 2,NA,TRUE,j,j,NA,NA,NA,1,7,"2,5,4,7,14,15,10,9,1,8,12,6,13,3,11"
14968,commdev-image-keyboard-response,199,944073,learnblock1,756.3000000119209,img/planet8_right.png,8,Community 2,NA,TRUE,j,j,NA,NA,NA,1,7,"2,5,4,7,14,15,10,9,1,8,12,6,13,3,11"
14968,commdev-image-keyboard-response,200,945325,learnblock1,734.5,img/planet15_right.png,15,Community 2,NA,TRUE,j,j,NA,NA,NA,1,7,"2,5,4,7,14,15,10,9,1,8,12,6,13,3,11"
14968,commdev-image-keyboard-response,201,946576,learnblock1,772.1999999880791,img/planet10_right.png,10,Community 2,NA,TRUE,j,j,NA,NA,NA,1,7,"2,5,4,7,14,15,10,9,1,8,12,6,13,3,11"
14968,commdev-image-keyboard-response,202,947827,learnblock1,776.7000000476837,img/planet15_left.png,15,Community 2,NA,TRUE,f,f,NA,NA,NA,1,7,"2,5,4,7,14,15,10,9,1,8,12,6,13,3,11"
14968,commdev-image-keyboard-response,203,949079,learnblock1,734.3000000119209,img/planet7_right.png,7,Community 1,NA,TRUE,j,j,NA,NA,NA,1,7,"2,5,4,7,14,15,10,9,1,8,12,6,13,3,11"
14968,commdev-image-keyboard-response,204,950331,learnblock1,null,img/planet2_left.png,2,Community 1,NA,FALSE,null,f,NA,NA,NA,1,7,"2,5,4,7,14,15,10,9,1,8,12,6,13,3,11"
14968,commdev-image-keyboard-response,205,951582,learnblock1,101.5,img/planet4_left.png,4,Community 1,NA,TRUE,f,f,NA,NA,NA,1,7,"2,5,4,7,14,15,10,9,1,8,12,6,13,3,11"
14968,commdev-image-keyboard-response,206,952834,learnblock1,752,img/planet7_right.png,7,Community 1,NA,TRUE,j,j,NA,NA,NA,1,7,"2,5,4,7,14,15,10,9,1,8,12,6,13,3,11"
14968,commdev-image-keyboard-response,207,954086,learnblock1,1064.5,img/planet5_right.png,5,Community 1,NA,TRUE,j,j,NA,NA,NA,1,7,"2,5,4,7,14,15,10,9,1,8,12,6,13,3,11"
14968,commdev-image-keyboard-response,208,955338,learnblock1,1076.5999999642372,img/planet2_right.png,2,Community 1,NA,TRUE,j,j,NA,NA,NA,1,7,"2,5,4,7,14,15,10,9,1,8,12,6,13,3,11"
14968,commdev-image-keyboard-response,209,956589,learnblock1,627.7999999523163,img/planet14_left.png,14,Community 1,NA,FALSE,j,f,NA,NA,NA,1,7,"2,5,4,7,14,15,10,9,1,8,12,6,13,3,11"
14968,commdev-image-keyboard-response,210,957841,learnblock1,919,img/planet2_right.png,2,Community 1,NA,TRUE,j,j,NA,NA,NA,1,7,"2,5,4,7,14,15,10,9,1,8,12,6,13,3,11"
14968,commdev-image-keyboard-response,211,959092,learnblock1,756.7000000476837,img/planet5_right.png,5,Community 1,NA,TRUE,j,j,NA,NA,NA,1,7,"2,5,4,7,14,15,10,9,1,8,12,6,13,3,11"
14968,commdev-image-keyboard-response,212,960343,learnblock1,682.1000000238419,img/planet4_left.png,4,Community 1,NA,TRUE,f,f,NA,NA,NA,1,7,"2,5,4,7,14,15,10,9,1,8,12,6,13,3,11"
14968,commdev-image-keyboard-response,213,961601,learnblock1,808.8999999761581,img/planet7_right.png,7,Community 1,NA,TRUE,j,j,NA,NA,NA,1,7,"2,5,4,7,14,15,10,9,1,8,12,6,13,3,11"
14968,commdev-image-keyboard-response,214,962852,learnblock1,691.6999999880791,img/planet5_right.png,5,Community 1,NA,TRUE,j,j,NA,NA,NA,1,7,"2,5,4,7,14,15,10,9,1,8,12,6,13,3,11"
14968,commdev-image-keyboard-response,215,964104,learnblock1,695.6000000238419,img/planet4_left.png,4,Community 1,NA,TRUE,f,f,NA,NA,NA,1,7,"2,5,4,7,14,15,10,9,1,8,12,6,13,3,11"
14968,commdev-image-keyboard-response,216,965355,learnblock1,868.3999999761581,img/planet2_left.png,2,Community 1,NA,TRUE,f,f,NA,NA,NA,1,7,"2,5,4,7,14,15,10,9,1,8,12,6,13,3,11"
14968,commdev-image-keyboard-response,217,966607,learnblock1,823.6999999880791,img/planet4_left.png,4,Community 1,NA,TRUE,f,f,NA,NA,NA,1,7,"2,5,4,7,14,15,10,9,1,8,12,6,13,3,11"
14968,commdev-image-keyboard-response,218,967858,learnblock1,851.5999999642372,img/planet5_left.png,5,Community 1,NA,TRUE,f,f,NA,NA,NA,1,7,"2,5,4,7,14,15,10,9,1,8,12,6,13,3,11"
14968,commdev-image-keyboard-response,219,969110,learnblock1,803.4000000357628,img/planet2_left.png,2,Community 1,NA,TRUE,f,f,NA,NA,NA,1,7,"2,5,4,7,14,15,10,9,1,8,12,6,13,3,11"
14968,commdev-image-keyboard-response,220,970363,learnblock1,708.5,img/planet5_right.png,5,Community 1,NA,TRUE,j,j,NA,NA,NA,1,7,"2,5,4,7,14,15,10,9,1,8,12,6,13,3,11"
14968,commdev-image-keyboard-response,221,971614,learnblock1,611.6999999880791,img/planet2_left.png,2,Community 1,NA,TRUE,f,f,NA,NA,NA,1,7,"2,5,4,7,14,15,10,9,1,8,12,6,13,3,11"
14968,commdev-image-keyboard-response,222,972866,learnblock1,535.5,img/planet5_right.png,5,Community 1,NA,TRUE,j,j,NA,NA,NA,1,7,"2,5,4,7,14,15,10,9,1,8,12,6,13,3,11"
14968,commdev-image-keyboard-response,223,974118,learnblock1,661,img/planet4_left.png,4,Community 1,NA,TRUE,f,f,NA,NA,NA,1,7,"2,5,4,7,14,15,10,9,1,8,12,6,13,3,11"
14968,commdev-image-keyboard-response,224,975369,learnblock1,593,img/planet2_right.png,2,Community 1,NA,TRUE,j,j,NA,NA,NA,1,7,"2,5,4,7,14,15,10,9,1,8,12,6,13,3,11"
14968,commdev-image-keyboard-response,225,976621,learnblock1,1093.699999988079,img/planet7_left.png,7,Community 1,NA,TRUE,f,f,NA,NA,NA,1,7,"2,5,4,7,14,15,10,9,1,8,12,6,13,3,11"
14968,commdev-image-keyboard-response,226,977872,learnblock1,727.5999999642372,img/planet5_left.png,5,Community 1,NA,TRUE,f,f,NA,NA,NA,1,7,"2,5,4,7,14,15,10,9,1,8,12,6,13,3,11"
14968,commdev-image-keyboard-response,227,979124,learnblock1,755.8999999761581,img/planet4_right.png,4,Community 1,NA,TRUE,j,j,NA,NA,NA,1,7,"2,5,4,7,14,15,10,9,1,8,12,6,13,3,11"
14968,commdev-image-keyboard-response,228,980376,learnblock1,648.7999999523163,img/planet5_right.png,5,Community 1,NA,FALSE,f,j,NA,NA,NA,1,7,"2,5,4,7,14,15,10,9,1,8,12,6,13,3,11"
14968,commdev-image-keyboard-response,229,981628,learnblock1,811.6000000238419,img/planet7_left.png,7,Community 1,NA,TRUE,f,f,NA,NA,NA,1,7,"2,5,4,7,14,15,10,9,1,8,12,6,13,3,11"
14968,commdev-image-keyboard-response,230,982880,learnblock1,581.6000000238419,img/planet2_right.png,2,Community 1,NA,TRUE,j,j,NA,NA,NA,1,7,"2,5,4,7,14,15,10,9,1,8,12,6,13,3,11"
14968,commdev-image-keyboard-response,231,984131,learnblock1,724.8000000119209,img/planet4_left.png,4,Community 1,NA,TRUE,f,f,NA,NA,NA,1,7,"2,5,4,7,14,15,10,9,1,8,12,6,13,3,11"
14968,commdev-image-keyboard-response,232,985383,learnblock1,538.4000000357628,img/planet7_right.png,7,Community 1,NA,TRUE,j,j,NA,NA,NA,1,7,"2,5,4,7,14,15,10,9,1,8,12,6,13,3,11"
14968,commdev-image-keyboard-response,233,986635,learnblock1,697.7999999523163,img/planet4_right.png,4,Community 1,NA,TRUE,j,j,NA,NA,NA,1,7,"2,5,4,7,14,15,10,9,1,8,12,6,13,3,11"
14968,commdev-image-keyboard-response,234,987890,learnblock1,853.1999999880791,img/planet2_left.png,2,Community 1,NA,TRUE,f,f,NA,NA,NA,1,7,"2,5,4,7,14,15,10,9,1,8,12,6,13,3,11"
14968,commdev-image-keyboard-response,235,989142,learnblock1,1035.699999988079,img/planet14_left.png,14,Community 1,NA,TRUE,f,f,NA,NA,NA,1,7,"2,5,4,7,14,15,10,9,1,8,12,6,13,3,11"
14968,commdev-image-keyboard-response,236,990393,learnblock1,577.6999999880791,img/planet2_left.png,2,Community 1,NA,TRUE,f,f,NA,NA,NA,1,7,"2,5,4,7,14,15,10,9,1,8,12,6,13,3,11"
14968,commdev-image-keyboard-response,237,991644,learnblock1,678.1000000238419,img/planet4_left.png,4,Community 1,NA,TRUE,f,f,NA,NA,NA,1,7,"2,5,4,7,14,15,10,9,1,8,12,6,13,3,11"
14968,commdev-image-keyboard-response,238,992896,learnblock1,647.1000000238419,img/planet5_left.png,5,Community 1,NA,TRUE,f,f,NA,NA,NA,1,7,"2,5,4,7,14,15,10,9,1,8,12,6,13,3,11"
14968,commdev-image-keyboard-response,239,994147,learnblock1,733.5999999642372,img/planet2_left.png,2,Community 1,NA,TRUE,f,f,NA,NA,NA,1,7,"2,5,4,7,14,15,10,9,1,8,12,6,13,3,11"
14968,commdev-image-keyboard-response,240,995398,learnblock1,676.1999999880791,img/planet14_right.png,14,Community 1,NA,FALSE,f,j,NA,NA,NA,1,7,"2,5,4,7,14,15,10,9,1,8,12,6,13,3,11"
14968,commdev-image-keyboard-response,241,996649,learnblock1,1091.5,img/planet12_right.png,12,Community 3,NA,FALSE,f,j,NA,NA,NA,1,7,"2,5,4,7,14,15,10,9,1,8,12,6,13,3,11"
14968,commdev-image-keyboard-response,242,997900,learnblock1,1004.1000000238419,img/planet13_left.png,13,Community 3,NA,FALSE,j,f,NA,NA,NA,1,7,"2,5,4,7,14,15,10,9,1,8,12,6,13,3,11"
14968,commdev-image-keyboard-response,243,999152,learnblock1,1159.5999999642372,img/planet3_right.png,3,Community 3,NA,TRUE,j,j,NA,NA,NA,1,7,"2,5,4,7,14,15,10,9,1,8,12,6,13,3,11"
14968,commdev-image-keyboard-response,244,1000404,learnblock1,741.3999999761581,img/planet12_right.png,12,Community 3,NA,TRUE,j,j,NA,NA,NA,1,7,"2,5,4,7,14,15,10,9,1,8,12,6,13,3,11"
14968,commdev-image-keyboard-response,245,1001655,learnblock1,633.3000000119209,img/planet13_left.png,13,Community 3,NA,TRUE,f,f,NA,NA,NA,1,7,"2,5,4,7,14,15,10,9,1,8,12,6,13,3,11"
14968,commdev-image-keyboard-response,246,1002906,learnblock1,784.8000000119209,img/planet11_left.png,11,Community 3,NA,TRUE,f,f,NA,NA,NA,1,7,"2,5,4,7,14,15,10,9,1,8,12,6,13,3,11"
14968,commdev-image-keyboard-response,247,1004158,learnblock1,909.1999999880791,img/planet12_right.png,12,Community 3,NA,TRUE,j,j,NA,NA,NA,1,7,"2,5,4,7,14,15,10,9,1,8,12,6,13,3,11"
14968,commdev-image-keyboard-response,248,1005409,learnblock1,799.7000000476837,img/planet14_right.png,14,Community 1,NA,TRUE,j,j,NA,NA,NA,1,7,"2,5,4,7,14,15,10,9,1,8,12,6,13,3,11"
14968,commdev-image-keyboard-response,249,1006661,learnblock1,700.4000000357628,img/planet5_right.png,5,Community 1,NA,TRUE,j,j,NA,NA,NA,1,7,"2,5,4,7,14,15,10,9,1,8,12,6,13,3,11"
14968,commdev-image-keyboard-response,250,1007912,learnblock1,1078.1000000238419,img/planet7_left.png,7,Community 1,NA,TRUE,f,f,NA,NA,NA,1,7,"2,5,4,7,14,15,10,9,1,8,12,6,13,3,11"
14968,commdev-image-keyboard-response,251,1009164,learnblock1,1098.199999988079,img/planet15_right.png,15,Community 2,NA,TRUE,j,j,NA,NA,NA,1,7,"2,5,4,7,14,15,10,9,1,8,12,6,13,3,11"
14968,commdev-image-keyboard-response,252,1010416,learnblock1,842.6999999880791,img/planet8_left.png,8,Community 2,NA,TRUE,f,f,NA,NA,NA,1,7,"2,5,4,7,14,15,10,9,1,8,12,6,13,3,11"
14968,commdev-image-keyboard-response,253,1011667,learnblock1,665.8999999761581,img/planet9_right.png,9,Community 2,NA,TRUE,j,j,NA,NA,NA,1,7,"2,5,4,7,14,15,10,9,1,8,12,6,13,3,11"
14968,commdev-image-keyboard-response,254,1012918,learnblock1,682.5999999642372,img/planet6_right.png,6,Community 3,NA,FALSE,f,j,NA,NA,NA,1,7,"2,5,4,7,14,15,10,9,1,8,12,6,13,3,11"
14968,commdev-image-keyboard-response,255,1014171,learnblock1,1048.199999988079,img/planet13_right.png,13,Community 3,NA,TRUE,j,j,NA,NA,NA,1,7,"2,5,4,7,14,15,10,9,1,8,12,6,13,3,11"
14968,commdev-image-keyboard-response,256,1015423,learnblock1,802.3000000119209,img/planet12_left.png,12,Community 3,NA,TRUE,f,f,NA,NA,NA,1,7,"2,5,4,7,14,15,10,9,1,8,12,6,13,3,11"
14968,commdev-image-keyboard-response,257,1016674,learnblock1,746.6000000238419,img/planet14_right.png,14,Community 1,NA,TRUE,j,j,NA,NA,NA,1,7,"2,5,4,7,14,15,10,9,1,8,12,6,13,3,11"
14968,commdev-image-keyboard-response,258,1017926,learnblock1,835,img/planet12_right.png,12,Community 3,NA,TRUE,j,j,NA,NA,NA,1,7,"2,5,4,7,14,15,10,9,1,8,12,6,13,3,11"
14968,commdev-image-keyboard-response,259,1019178,learnblock1,677,img/planet3_right.png,3,Community 3,NA,TRUE,j,j,NA,NA,NA,1,7,"2,5,4,7,14,15,10,9,1,8,12,6,13,3,11"
14968,commdev-image-keyboard-response,260,1020430,learnblock1,651.3999999761581,img/planet6_left.png,6,Community 3,NA,FALSE,j,f,NA,NA,NA,1,7,"2,5,4,7,14,15,10,9,1,8,12,6,13,3,11"
14968,commdev-image-keyboard-response,261,1021681,learnblock1,699.3000000119209,img/planet13_right.png,13,Community 3,NA,TRUE,j,j,NA,NA,NA,1,7,"2,5,4,7,14,15,10,9,1,8,12,6,13,3,11"
14968,commdev-image-keyboard-response,262,1022932,learnblock1,714.9000000357628,img/planet12_right.png,12,Community 3,NA,TRUE,j,j,NA,NA,NA,1,7,"2,5,4,7,14,15,10,9,1,8,12,6,13,3,11"
14968,commdev-image-keyboard-response,263,1024188,learnblock1,645.8999999761581,img/planet3_right.png,3,Community 3,NA,TRUE,j,j,NA,NA,NA,1,7,"2,5,4,7,14,15,10,9,1,8,12,6,13,3,11"
14968,commdev-image-keyboard-response,264,1025439,learnblock1,553,img/planet13_left.png,13,Community 3,NA,TRUE,f,f,NA,NA,NA,1,7,"2,5,4,7,14,15,10,9,1,8,12,6,13,3,11"
14968,commdev-image-keyboard-response,265,1026691,learnblock1,651.1999999880791,img/planet6_left.png,6,Community 3,NA,TRUE,f,f,NA,NA,NA,1,7,"2,5,4,7,14,15,10,9,1,8,12,6,13,3,11"
14968,commdev-image-keyboard-response,266,1027943,learnblock1,571.5,img/planet11_left.png,11,Community 3,NA,TRUE,f,f,NA,NA,NA,1,7,"2,5,4,7,14,15,10,9,1,8,12,6,13,3,11"
14968,commdev-image-keyboard-response,267,1029194,learnblock1,611.3000000119209,img/planet3_left.png,3,Community 3,NA,FALSE,j,f,NA,NA,NA,1,7,"2,5,4,7,14,15,10,9,1,8,12,6,13,3,11"
14968,commdev-image-keyboard-response,268,1030445,learnblock1,672.4000000357628,img/planet11_left.png,11,Community 3,NA,TRUE,f,f,NA,NA,NA,1,7,"2,5,4,7,14,15,10,9,1,8,12,6,13,3,11"
14968,commdev-image-keyboard-response,269,1031696,learnblock1,587.6999999880791,img/planet12_left.png,12,Community 3,NA,TRUE,f,f,NA,NA,NA,1,7,"2,5,4,7,14,15,10,9,1,8,12,6,13,3,11"
14968,commdev-image-keyboard-response,270,1032948,learnblock1,572.3000000119209,img/planet13_right.png,13,Community 3,NA,FALSE,f,j,NA,NA,NA,1,7,"2,5,4,7,14,15,10,9,1,8,12,6,13,3,11"
14968,commdev-image-keyboard-response,271,1034199,learnblock1,553.8999999761581,img/planet6_right.png,6,Community 3,NA,FALSE,f,j,NA,NA,NA,1,7,"2,5,4,7,14,15,10,9,1,8,12,6,13,3,11"
14968,commdev-image-keyboard-response,272,1035451,learnblock1,546.8000000119209,img/planet13_right.png,13,Community 3,NA,TRUE,j,j,NA,NA,NA,1,7,"2,5,4,7,14,15,10,9,1,8,12,6,13,3,11"
14968,commdev-image-keyboard-response,273,1036706,learnblock1,440.0999999642372,img/planet6_right.png,6,Community 3,NA,TRUE,j,j,NA,NA,NA,1,7,"2,5,4,7,14,15,10,9,1,8,12,6,13,3,11"
14968,commdev-image-keyboard-response,274,1037958,learnblock1,574.7999999523163,img/planet9_right.png,9,Community 2,NA,TRUE,j,j,NA,NA,NA,1,7,"2,5,4,7,14,15,10,9,1,8,12,6,13,3,11"
14968,commdev-image-keyboard-response,275,1039210,learnblock1,601.1999999880791,img/planet8_right.png,8,Community 2,NA,TRUE,j,j,NA,NA,NA,1,7,"2,5,4,7,14,15,10,9,1,8,12,6,13,3,11"
14968,commdev-image-keyboard-response,276,1040461,learnblock1,790.8000000119209,img/planet9_left.png,9,Community 2,NA,TRUE,f,f,NA,NA,NA,1,7,"2,5,4,7,14,15,10,9,1,8,12,6,13,3,11"
14968,commdev-image-keyboard-response,277,1041713,learnblock1,562.5999999642372,img/planet1_right.png,1,Community 2,NA,FALSE,f,j,NA,NA,NA,1,7,"2,5,4,7,14,15,10,9,1,8,12,6,13,3,11"
14968,commdev-image-keyboard-response,278,1042965,learnblock1,792.5999999642372,img/planet10_left.png,10,Community 2,NA,TRUE,f,f,NA,NA,NA,1,7,"2,5,4,7,14,15,10,9,1,8,12,6,13,3,11"
14968,commdev-image-keyboard-response,279,1044216,learnblock1,656.7999999523163,img/planet8_right.png,8,Community 2,NA,TRUE,j,j,NA,NA,NA,1,7,"2,5,4,7,14,15,10,9,1,8,12,6,13,3,11"
14968,commdev-image-keyboard-response,280,1045467,learnblock1,784,img/planet1_right.png,1,Community 2,NA,TRUE,j,j,NA,NA,NA,1,7,"2,5,4,7,14,15,10,9,1,8,12,6,13,3,11"
14968,commdev-image-keyboard-response,281,1046718,learnblock1,864.5,img/planet15_left.png,15,Community 2,NA,TRUE,f,f,NA,NA,NA,1,7,"2,5,4,7,14,15,10,9,1,8,12,6,13,3,11"
14968,commdev-image-keyboard-response,282,1047970,learnblock1,673.6999999880791,img/planet8_right.png,8,Community 2,NA,TRUE,j,j,NA,NA,NA,1,7,"2,5,4,7,14,15,10,9,1,8,12,6,13,3,11"
14968,commdev-image-keyboard-response,283,1049222,learnblock1,623.3000000119209,img/planet10_left.png,10,Community 2,NA,TRUE,f,f,NA,NA,NA,1,7,"2,5,4,7,14,15,10,9,1,8,12,6,13,3,11"
14968,commdev-image-keyboard-response,284,1050473,learnblock1,588.0999999642372,img/planet1_right.png,1,Community 2,NA,TRUE,j,j,NA,NA,NA,1,7,"2,5,4,7,14,15,10,9,1,8,12,6,13,3,11"
14968,commdev-image-keyboard-response,285,1051725,learnblock1,587.3000000119209,img/planet10_right.png,10,Community 2,NA,TRUE,j,j,NA,NA,NA,1,7,"2,5,4,7,14,15,10,9,1,8,12,6,13,3,11"
14968,commdev-image-keyboard-response,286,1052977,learnblock1,656.8999999761581,img/planet1_right.png,1,Community 2,NA,TRUE,j,j,NA,NA,NA,1,7,"2,5,4,7,14,15,10,9,1,8,12,6,13,3,11"
14968,commdev-image-keyboard-response,287,1054228,learnblock1,692.8999999761581,img/planet9_left.png,9,Community 2,NA,TRUE,f,f,NA,NA,NA,1,7,"2,5,4,7,14,15,10,9,1,8,12,6,13,3,11"
14968,commdev-image-keyboard-response,288,1055480,learnblock1,642.1000000238419,img/planet6_left.png,6,Community 3,NA,FALSE,j,f,NA,NA,NA,1,7,"2,5,4,7,14,15,10,9,1,8,12,6,13,3,11"
14968,commdev-image-keyboard-response,289,1056731,learnblock1,633.1000000238419,img/planet13_left.png,13,Community 3,NA,FALSE,j,f,NA,NA,NA,1,7,"2,5,4,7,14,15,10,9,1,8,12,6,13,3,11"
14968,commdev-image-keyboard-response,290,1057983,learnblock1,631.3000000119209,img/planet6_right.png,6,Community 3,NA,FALSE,f,j,NA,NA,NA,1,7,"2,5,4,7,14,15,10,9,1,8,12,6,13,3,11"
14968,commdev-image-keyboard-response,291,1059235,learnblock1,null,img/planet13_left.png,13,Community 3,NA,FALSE,null,f,NA,NA,NA,1,7,"2,5,4,7,14,15,10,9,1,8,12,6,13,3,11"
14968,commdev-image-keyboard-response,292,1060487,learnblock1,1006.8999999761581,img/planet12_right.png,12,Community 3,NA,TRUE,j,j,NA,NA,NA,1,7,"2,5,4,7,14,15,10,9,1,8,12,6,13,3,11"
14968,commdev-image-keyboard-response,293,1061750,learnblock1,943,img/planet13_right.png,13,Community 3,NA,TRUE,j,j,NA,NA,NA,1,7,"2,5,4,7,14,15,10,9,1,8,12,6,13,3,11"
14968,commdev-image-keyboard-response,294,1063003,learnblock1,806.8000000119209,img/planet6_right.png,6,Community 3,NA,TRUE,j,j,NA,NA,NA,1,7,"2,5,4,7,14,15,10,9,1,8,12,6,13,3,11"
14968,commdev-image-keyboard-response,295,1064269,learnblock1,779.1999999880791,img/planet13_left.png,13,Community 3,NA,TRUE,f,f,NA,NA,NA,1,7,"2,5,4,7,14,15,10,9,1,8,12,6,13,3,11"
14968,commdev-image-keyboard-response,296,1065520,learnblock1,675.1999999880791,img/planet12_left.png,12,Community 3,NA,TRUE,f,f,NA,NA,NA,1,7,"2,5,4,7,14,15,10,9,1,8,12,6,13,3,11"
14968,commdev-image-keyboard-response,297,1066772,learnblock1,737,img/planet3_left.png,3,Community 3,NA,TRUE,f,f,NA,NA,NA,1,7,"2,5,4,7,14,15,10,9,1,8,12,6,13,3,11"
14968,commdev-image-keyboard-response,298,1068031,learnblock1,634.6999999880791,img/planet12_left.png,12,Community 3,NA,TRUE,f,f,NA,NA,NA,1,7,"2,5,4,7,14,15,10,9,1,8,12,6,13,3,11"
14968,commdev-image-keyboard-response,299,1069283,learnblock1,652.5,img/planet11_left.png,11,Community 3,NA,TRUE,f,f,NA,NA,NA,1,7,"2,5,4,7,14,15,10,9,1,8,12,6,13,3,11"
14968,commdev-image-keyboard-response,300,1070535,learnblock1,716.6000000238419,img/planet6_right.png,6,Community 3,NA,TRUE,j,j,NA,NA,NA,1,7,"2,5,4,7,14,15,10,9,1,8,12,6,13,3,11"
14968,commdev-image-keyboard-response,301,1071786,learnblock1,699.7000000476837,img/planet11_right.png,11,Community 3,NA,FALSE,f,j,NA,NA,NA,1,7,"2,5,4,7,14,15,10,9,1,8,12,6,13,3,11"
14968,commdev-image-keyboard-response,302,1073038,learnblock1,909.5999999642372,img/planet13_left.png,13,Community 3,NA,TRUE,f,f,NA,NA,NA,1,7,"2,5,4,7,14,15,10,9,1,8,12,6,13,3,11"
14968,commdev-image-keyboard-response,303,1074289,learnblock1,849.0999999642372,img/planet12_right.png,12,Community 3,NA,TRUE,j,j,NA,NA,NA,1,7,"2,5,4,7,14,15,10,9,1,8,12,6,13,3,11"
14968,commdev-image-keyboard-response,304,1075541,learnblock1,878.6999999880791,img/planet3_right.png,3,Community 3,NA,TRUE,j,j,NA,NA,NA,1,7,"2,5,4,7,14,15,10,9,1,8,12,6,13,3,11"
14968,commdev-image-keyboard-response,305,1076793,learnblock1,779.3000000119209,img/planet12_left.png,12,Community 3,NA,TRUE,f,f,NA,NA,NA,1,7,"2,5,4,7,14,15,10,9,1,8,12,6,13,3,11"
14968,commdev-image-keyboard-response,306,1078044,learnblock1,830.1999999880791,img/planet14_left.png,14,Community 1,NA,TRUE,f,f,NA,NA,NA,1,7,"2,5,4,7,14,15,10,9,1,8,12,6,13,3,11"
14968,commdev-image-keyboard-response,307,1079295,learnblock1,870,img/planet5_left.png,5,Community 1,NA,TRUE,f,f,NA,NA,NA,1,7,"2,5,4,7,14,15,10,9,1,8,12,6,13,3,11"
14968,commdev-image-keyboard-response,308,1080547,learnblock1,1016.5999999642372,img/planet7_left.png,7,Community 1,NA,TRUE,f,f,NA,NA,NA,1,7,"2,5,4,7,14,15,10,9,1,8,12,6,13,3,11"
14968,commdev-image-keyboard-response,309,1081798,learnblock1,679,img/planet2_right.png,2,Community 1,NA,TRUE,j,j,NA,NA,NA,1,7,"2,5,4,7,14,15,10,9,1,8,12,6,13,3,11"
14968,commdev-image-keyboard-response,310,1083049,learnblock1,709.1999999880791,img/planet5_right.png,5,Community 1,NA,TRUE,j,j,NA,NA,NA,1,7,"2,5,4,7,14,15,10,9,1,8,12,6,13,3,11"
14968,commdev-image-keyboard-response,311,1084301,learnblock1,863.4000000357628,img/planet7_right.png,7,Community 1,NA,TRUE,j,j,NA,NA,NA,1,7,"2,5,4,7,14,15,10,9,1,8,12,6,13,3,11"
14968,commdev-image-keyboard-response,312,1085558,learnblock1,810.1000000238419,img/planet2_right.png,2,Community 1,NA,TRUE,j,j,NA,NA,NA,1,7,"2,5,4,7,14,15,10,9,1,8,12,6,13,3,11"
14968,commdev-image-keyboard-response,313,1086812,learnblock1,662.3999999761581,img/planet5_right.png,5,Community 1,NA,TRUE,j,j,NA,NA,NA,1,7,"2,5,4,7,14,15,10,9,1,8,12,6,13,3,11"
14968,commdev-image-keyboard-response,314,1088064,learnblock1,761.5,img/planet2_left.png,2,Community 1,NA,TRUE,f,f,NA,NA,NA,1,7,"2,5,4,7,14,15,10,9,1,8,12,6,13,3,11"
14968,commdev-image-keyboard-response,315,1089325,learnblock1,708.8999999761581,img/planet5_left.png,5,Community 1,NA,TRUE,f,f,NA,NA,NA,1,7,"2,5,4,7,14,15,10,9,1,8,12,6,13,3,11"
14968,commdev-image-keyboard-response,316,1090576,learnblock1,831.6000000238419,img/planet7_left.png,7,Community 1,NA,TRUE,f,f,NA,NA,NA,1,7,"2,5,4,7,14,15,10,9,1,8,12,6,13,3,11"
14968,commdev-image-keyboard-response,317,1091827,learnblock1,588.5999999642372,img/planet2_left.png,2,Community 1,NA,TRUE,f,f,NA,NA,NA,1,7,"2,5,4,7,14,15,10,9,1,8,12,6,13,3,11"
14968,commdev-image-keyboard-response,318,1093079,learnblock1,490.39999997615814,img/planet5_left.png,5,Community 1,NA,TRUE,f,f,NA,NA,NA,1,7,"2,5,4,7,14,15,10,9,1,8,12,6,13,3,11"
14968,commdev-image-keyboard-response,319,1094331,learnblock1,771.6999999880791,img/planet7_right.png,7,Community 1,NA,TRUE,j,j,NA,NA,NA,1,7,"2,5,4,7,14,15,10,9,1,8,12,6,13,3,11"
14968,commdev-image-keyboard-response,320,1095582,learnblock1,811.3999999761581,img/planet4_right.png,4,Community 1,NA,TRUE,j,j,NA,NA,NA,1,7,"2,5,4,7,14,15,10,9,1,8,12,6,13,3,11"
14968,commdev-image-keyboard-response,321,1096834,learnblock1,697.5,img/planet2_left.png,2,Community 1,NA,TRUE,f,f,NA,NA,NA,1,7,"2,5,4,7,14,15,10,9,1,8,12,6,13,3,11"
14968,commdev-image-keyboard-response,322,1098086,learnblock1,906.0999999642372,img/planet7_left.png,7,Community 1,NA,TRUE,f,f,NA,NA,NA,1,7,"2,5,4,7,14,15,10,9,1,8,12,6,13,3,11"
14968,commdev-image-keyboard-response,323,1099338,learnblock1,766.6999999880791,img/planet15_left.png,15,Community 2,NA,TRUE,f,f,NA,NA,NA,1,7,"2,5,4,7,14,15,10,9,1,8,12,6,13,3,11"
14968,commdev-image-keyboard-response,324,1100590,learnblock1,676.9000000357628,img/planet7_right.png,7,Community 1,NA,TRUE,j,j,NA,NA,NA,1,7,"2,5,4,7,14,15,10,9,1,8,12,6,13,3,11"
14968,commdev-image-keyboard-response,325,1101853,learnblock1,837.5,img/planet2_left.png,2,Community 1,NA,TRUE,f,f,NA,NA,NA,1,7,"2,5,4,7,14,15,10,9,1,8,12,6,13,3,11"
14968,commdev-image-keyboard-response,326,1103104,learnblock1,780.4000000357628,img/planet5_left.png,5,Community 1,NA,TRUE,f,f,NA,NA,NA,1,7,"2,5,4,7,14,15,10,9,1,8,12,6,13,3,11"
14968,commdev-image-keyboard-response,327,1104356,learnblock1,698.3999999761581,img/planet7_right.png,7,Community 1,NA,FALSE,f,j,NA,NA,NA,1,7,"2,5,4,7,14,15,10,9,1,8,12,6,13,3,11"
14968,commdev-image-keyboard-response,328,1105607,learnblock1,969.5,img/planet15_right.png,15,Community 2,NA,TRUE,j,j,NA,NA,NA,1,7,"2,5,4,7,14,15,10,9,1,8,12,6,13,3,11"
14968,commdev-image-keyboard-response,329,1106858,learnblock1,736.8999999761581,img/planet8_right.png,8,Community 2,NA,TRUE,j,j,NA,NA,NA,1,7,"2,5,4,7,14,15,10,9,1,8,12,6,13,3,11"
14968,commdev-image-keyboard-response,330,1108110,learnblock1,746.3000000119209,img/planet9_left.png,9,Community 2,NA,TRUE,f,f,NA,NA,NA,1,7,"2,5,4,7,14,15,10,9,1,8,12,6,13,3,11"
14968,commdev-image-keyboard-response,331,1109361,learnblock1,1047.5,img/planet8_left.png,8,Community 2,NA,TRUE,f,f,NA,NA,NA,1,7,"2,5,4,7,14,15,10,9,1,8,12,6,13,3,11"
14968,commdev-image-keyboard-response,332,1110613,learnblock1,830.1000000238419,img/planet1_left.png,1,Community 2,NA,TRUE,f,f,NA,NA,NA,1,7,"2,5,4,7,14,15,10,9,1,8,12,6,13,3,11"
14968,commdev-image-keyboard-response,333,1111865,learnblock1,726.5,img/planet15_right.png,15,Community 2,NA,TRUE,j,j,NA,NA,NA,1,7,"2,5,4,7,14,15,10,9,1,8,12,6,13,3,11"
14968,commdev-image-keyboard-response,334,1113117,learnblock1,888.5999999642372,img/planet7_left.png,7,Community 1,NA,TRUE,f,f,NA,NA,NA,1,7,"2,5,4,7,14,15,10,9,1,8,12,6,13,3,11"
14968,commdev-image-keyboard-response,335,1114368,learnblock1,712.5999999642372,img/planet4_right.png,4,Community 1,NA,TRUE,j,j,NA,NA,NA,1,7,"2,5,4,7,14,15,10,9,1,8,12,6,13,3,11"
14968,commdev-image-keyboard-response,336,1115620,learnblock1,782.7999999523163,img/planet14_left.png,14,Community 1,NA,TRUE,f,f,NA,NA,NA,1,7,"2,5,4,7,14,15,10,9,1,8,12,6,13,3,11"
14968,commdev-image-keyboard-response,337,1116872,learnblock1,677.6999999880791,img/planet2_left.png,2,Community 1,NA,TRUE,f,f,NA,NA,NA,1,7,"2,5,4,7,14,15,10,9,1,8,12,6,13,3,11"
14968,commdev-image-keyboard-response,338,1118123,learnblock1,834.1999999880791,img/planet7_right.png,7,Community 1,NA,TRUE,j,j,NA,NA,NA,1,7,"2,5,4,7,14,15,10,9,1,8,12,6,13,3,11"
14968,commdev-image-keyboard-response,339,1119374,learnblock1,747.3000000119209,img/planet15_left.png,15,Community 2,NA,TRUE,f,f,NA,NA,NA,1,7,"2,5,4,7,14,15,10,9,1,8,12,6,13,3,11"
14968,commdev-image-keyboard-response,340,1120625,learnblock1,631.2999999523163,img/planet7_right.png,7,Community 1,NA,TRUE,j,j,NA,NA,NA,1,7,"2,5,4,7,14,15,10,9,1,8,12,6,13,3,11"
14968,commdev-image-keyboard-response,341,1121877,learnblock1,820.3999999761581,img/planet4_left.png,4,Community 1,NA,TRUE,f,f,NA,NA,NA,1,7,"2,5,4,7,14,15,10,9,1,8,12,6,13,3,11"
14968,commdev-image-keyboard-response,342,1123128,learnblock1,728.8000000119209,img/planet7_left.png,7,Community 1,NA,TRUE,f,f,NA,NA,NA,1,7,"2,5,4,7,14,15,10,9,1,8,12,6,13,3,11"
14968,commdev-image-keyboard-response,343,1124380,learnblock1,808.8000000119209,img/planet4_right.png,4,Community 1,NA,TRUE,j,j,NA,NA,NA,1,7,"2,5,4,7,14,15,10,9,1,8,12,6,13,3,11"
14968,commdev-image-keyboard-response,344,1125632,learnblock1,777.8000000119209,img/planet14_right.png,14,Community 1,NA,TRUE,j,j,NA,NA,NA,1,7,"2,5,4,7,14,15,10,9,1,8,12,6,13,3,11"
14968,commdev-image-keyboard-response,345,1126884,learnblock1,919.2000000476837,img/planet4_right.png,4,Community 1,NA,TRUE,j,j,NA,NA,NA,1,7,"2,5,4,7,14,15,10,9,1,8,12,6,13,3,11"
14968,commdev-image-keyboard-response,346,1128136,learnblock1,769.6999999880791,img/planet7_left.png,7,Community 1,NA,TRUE,f,f,NA,NA,NA,1,7,"2,5,4,7,14,15,10,9,1,8,12,6,13,3,11"
14968,commdev-image-keyboard-response,347,1129388,learnblock1,690.0999999642372,img/planet2_right.png,2,Community 1,NA,TRUE,j,j,NA,NA,NA,1,7,"2,5,4,7,14,15,10,9,1,8,12,6,13,3,11"
14968,commdev-image-keyboard-response,348,1130640,learnblock1,640.5,img/planet14_right.png,14,Community 1,NA,TRUE,j,j,NA,NA,NA,1,7,"2,5,4,7,14,15,10,9,1,8,12,6,13,3,11"
14968,commdev-image-keyboard-response,349,1131892,learnblock1,595.1999999880791,img/planet12_left.png,12,Community 3,NA,TRUE,f,f,NA,NA,NA,1,7,"2,5,4,7,14,15,10,9,1,8,12,6,13,3,11"
14968,commdev-image-keyboard-response,350,1133144,learnblock1,787.2999999523163,img/planet13_left.png,13,Community 3,NA,TRUE,f,f,NA,NA,NA,1,7,"2,5,4,7,14,15,10,9,1,8,12,6,13,3,11"
14968,commdev-image-keyboard-response,351,1134395,learnblock1,622.1999999880791,img/planet12_right.png,12,Community 3,NA,TRUE,j,j,NA,NA,NA,1,7,"2,5,4,7,14,15,10,9,1,8,12,6,13,3,11"
14968,commdev-image-keyboard-response,352,1135647,learnblock1,704.0999999642372,img/planet14_left.png,14,Community 1,NA,FALSE,j,f,NA,NA,NA,1,7,"2,5,4,7,14,15,10,9,1,8,12,6,13,3,11"
14968,commdev-image-keyboard-response,353,1136907,learnblock1,677.0999999642372,img/planet5_right.png,5,Community 1,NA,TRUE,j,j,NA,NA,NA,1,7,"2,5,4,7,14,15,10,9,1,8,12,6,13,3,11"
14968,commdev-image-keyboard-response,354,1138159,learnblock1,734.1999999880791,img/planet7_right.png,7,Community 1,NA,TRUE,j,j,NA,NA,NA,1,7,"2,5,4,7,14,15,10,9,1,8,12,6,13,3,11"
14968,commdev-image-keyboard-response,355,1139410,learnblock1,752.3000000119209,img/planet15_right.png,15,Community 2,NA,TRUE,j,j,NA,NA,NA,1,7,"2,5,4,7,14,15,10,9,1,8,12,6,13,3,11"
14968,commdev-image-keyboard-response,356,1140662,learnblock1,761.3000000119209,img/planet8_left.png,8,Community 2,NA,TRUE,f,f,NA,NA,NA,1,7,"2,5,4,7,14,15,10,9,1,8,12,6,13,3,11"
14968,commdev-image-keyboard-response,357,1141913,learnblock1,853.1999999880791,img/planet1_left.png,1,Community 2,NA,TRUE,f,f,NA,NA,NA,1,7,"2,5,4,7,14,15,10,9,1,8,12,6,13,3,11"
14968,commdev-image-keyboard-response,358,1143165,learnblock1,622.1000000238419,img/planet8_left.png,8,Community 2,NA,TRUE,f,f,NA,NA,NA,1,7,"2,5,4,7,14,15,10,9,1,8,12,6,13,3,11"
14968,commdev-image-keyboard-response,359,1144417,learnblock1,598.0999999642372,img/planet9_right.png,9,Community 2,NA,TRUE,j,j,NA,NA,NA,1,7,"2,5,4,7,14,15,10,9,1,8,12,6,13,3,11"
14968,commdev-image-keyboard-response,360,1145669,learnblock1,640.8000000119209,img/planet1_left.png,1,Community 2,NA,TRUE,f,f,NA,NA,NA,1,7,"2,5,4,7,14,15,10,9,1,8,12,6,13,3,11"
14968,commdev-image-keyboard-response,361,1146921,learnblock1,845,img/planet9_left.png,9,Community 2,NA,TRUE,f,f,NA,NA,NA,1,7,"2,5,4,7,14,15,10,9,1,8,12,6,13,3,11"
14968,commdev-image-keyboard-response,362,1148172,learnblock1,705.5999999642372,img/planet8_left.png,8,Community 2,NA,TRUE,f,f,NA,NA,NA,1,7,"2,5,4,7,14,15,10,9,1,8,12,6,13,3,11"
14968,commdev-image-keyboard-response,363,1149423,learnblock1,771.3999999761581,img/planet15_right.png,15,Community 2,NA,TRUE,j,j,NA,NA,NA,1,7,"2,5,4,7,14,15,10,9,1,8,12,6,13,3,11"
14968,commdev-image-keyboard-response,364,1150675,learnblock1,669.7000000476837,img/planet8_left.png,8,Community 2,NA,TRUE,f,f,NA,NA,NA,1,7,"2,5,4,7,14,15,10,9,1,8,12,6,13,3,11"
14968,commdev-image-keyboard-response,365,1151927,learnblock1,619.8000000119209,img/planet1_right.png,1,Community 2,NA,TRUE,j,j,NA,NA,NA,1,7,"2,5,4,7,14,15,10,9,1,8,12,6,13,3,11"
14968,commdev-image-keyboard-response,366,1153179,learnblock1,542.2999999523163,img/planet9_left.png,9,Community 2,NA,TRUE,f,f,NA,NA,NA,1,7,"2,5,4,7,14,15,10,9,1,8,12,6,13,3,11"
14968,commdev-image-keyboard-response,367,1154430,learnblock1,492.69999998807907,img/planet8_right.png,8,Community 2,NA,TRUE,j,j,NA,NA,NA,1,7,"2,5,4,7,14,15,10,9,1,8,12,6,13,3,11"
14968,commdev-image-keyboard-response,368,1155682,learnblock1,556.2999999523163,img/planet10_left.png,10,Community 2,NA,TRUE,f,f,NA,NA,NA,1,7,"2,5,4,7,14,15,10,9,1,8,12,6,13,3,11"
14968,commdev-image-keyboard-response,369,1156933,learnblock1,753.1000000238419,img/planet8_left.png,8,Community 2,NA,TRUE,f,f,NA,NA,NA,1,7,"2,5,4,7,14,15,10,9,1,8,12,6,13,3,11"
14968,commdev-image-keyboard-response,370,1158185,learnblock1,532.0999999642372,img/planet15_right.png,15,Community 2,NA,TRUE,j,j,NA,NA,NA,1,7,"2,5,4,7,14,15,10,9,1,8,12,6,13,3,11"
14968,commdev-image-keyboard-response,371,1159437,learnblock1,711.5999999642372,img/planet10_right.png,10,Community 2,NA,TRUE,j,j,NA,NA,NA,1,7,"2,5,4,7,14,15,10,9,1,8,12,6,13,3,11"
14968,commdev-image-keyboard-response,372,1160688,learnblock1,640.7999999523163,img/planet15_left.png,15,Community 2,NA,TRUE,f,f,NA,NA,NA,1,7,"2,5,4,7,14,15,10,9,1,8,12,6,13,3,11"
14968,commdev-image-keyboard-response,373,1161940,learnblock1,666.2999999523163,img/planet1_left.png,1,Community 2,NA,TRUE,f,f,NA,NA,NA,1,7,"2,5,4,7,14,15,10,9,1,8,12,6,13,3,11"
14968,commdev-image-keyboard-response,374,1163192,learnblock1,469.39999997615814,img/planet10_left.png,10,Community 2,NA,FALSE,j,f,NA,NA,NA,1,7,"2,5,4,7,14,15,10,9,1,8,12,6,13,3,11"
14968,commdev-image-keyboard-response,375,1164443,learnblock1,673.1999999880791,img/planet1_right.png,1,Community 2,NA,TRUE,j,j,NA,NA,NA,1,7,"2,5,4,7,14,15,10,9,1,8,12,6,13,3,11"
14968,commdev-image-keyboard-response,376,1165695,learnblock1,1021.8999999761581,img/planet9_right.png,9,Community 2,NA,TRUE,j,j,NA,NA,NA,1,7,"2,5,4,7,14,15,10,9,1,8,12,6,13,3,11"
14968,commdev-image-keyboard-response,377,1166946,learnblock1,850,img/planet1_right.png,1,Community 2,NA,TRUE,j,j,NA,NA,NA,1,7,"2,5,4,7,14,15,10,9,1,8,12,6,13,3,11"
14968,commdev-image-keyboard-response,378,1168197,learnblock1,841.9000000357628,img/planet8_left.png,8,Community 2,NA,TRUE,f,f,NA,NA,NA,1,7,"2,5,4,7,14,15,10,9,1,8,12,6,13,3,11"
14968,commdev-image-keyboard-response,379,1169458,learnblock1,691.6000000238419,img/planet1_right.png,1,Community 2,NA,TRUE,j,j,NA,NA,NA,1,7,"2,5,4,7,14,15,10,9,1,8,12,6,13,3,11"
14968,commdev-image-keyboard-response,380,1170710,learnblock1,779.2999999523163,img/planet15_right.png,15,Community 2,NA,TRUE,j,j,NA,NA,NA,1,7,"2,5,4,7,14,15,10,9,1,8,12,6,13,3,11"
14968,commdev-image-keyboard-response,381,1171967,learnblock1,697.1000000238419,img/planet1_left.png,1,Community 2,NA,TRUE,f,f,NA,NA,NA,1,7,"2,5,4,7,14,15,10,9,1,8,12,6,13,3,11"
14968,commdev-image-keyboard-response,382,1173219,learnblock1,849.8000000119209,img/planet10_left.png,10,Community 2,NA,TRUE,f,f,NA,NA,NA,1,7,"2,5,4,7,14,15,10,9,1,8,12,6,13,3,11"
14968,commdev-image-keyboard-response,383,1174470,learnblock1,700.0999999642372,img/planet15_right.png,15,Community 2,NA,TRUE,j,j,NA,NA,NA,1,7,"2,5,4,7,14,15,10,9,1,8,12,6,13,3,11"
14968,commdev-image-keyboard-response,384,1175722,learnblock1,786.9000000357628,img/planet1_left.png,1,Community 2,NA,FALSE,j,f,NA,NA,NA,1,7,"2,5,4,7,14,15,10,9,1,8,12,6,13,3,11"
14968,commdev-image-keyboard-response,385,1176973,learnblock1,561.5999999642372,img/planet10_right.png,10,Community 2,NA,TRUE,j,j,NA,NA,NA,1,7,"2,5,4,7,14,15,10,9,1,8,12,6,13,3,11"
14968,commdev-image-keyboard-response,386,1178225,learnblock1,569.3000000119209,img/planet8_left.png,8,Community 2,NA,TRUE,f,f,NA,NA,NA,1,7,"2,5,4,7,14,15,10,9,1,8,12,6,13,3,11"
14968,commdev-image-keyboard-response,387,1179477,learnblock1,667.4000000357628,img/planet10_right.png,10,Community 2,NA,TRUE,j,j,NA,NA,NA,1,7,"2,5,4,7,14,15,10,9,1,8,12,6,13,3,11"
14968,commdev-image-keyboard-response,388,1180730,learnblock1,690.1999999880791,img/planet1_right.png,1,Community 2,NA,TRUE,j,j,NA,NA,NA,1,7,"2,5,4,7,14,15,10,9,1,8,12,6,13,3,11"
14968,commdev-image-keyboard-response,389,1181982,learnblock1,715.6999999880791,img/planet15_left.png,15,Community 2,NA,TRUE,f,f,NA,NA,NA,1,7,"2,5,4,7,14,15,10,9,1,8,12,6,13,3,11"
14968,commdev-image-keyboard-response,390,1183234,learnblock1,833.3999999761581,img/planet7_left.png,7,Community 1,NA,TRUE,f,f,NA,NA,NA,1,7,"2,5,4,7,14,15,10,9,1,8,12,6,13,3,11"
14968,commdev-image-keyboard-response,391,1184486,learnblock1,744.6000000238419,img/planet4_left.png,4,Community 1,NA,TRUE,f,f,NA,NA,NA,1,7,"2,5,4,7,14,15,10,9,1,8,12,6,13,3,11"
14968,commdev-image-keyboard-response,392,1185737,learnblock1,713.3999999761581,img/planet7_left.png,7,Community 1,NA,TRUE,f,f,NA,NA,NA,1,7,"2,5,4,7,14,15,10,9,1,8,12,6,13,3,11"
14968,commdev-image-keyboard-response,393,1186989,learnblock1,631.2000000476837,img/planet15_left.png,15,Community 2,NA,TRUE,f,f,NA,NA,NA,1,7,"2,5,4,7,14,15,10,9,1,8,12,6,13,3,11"
14968,commdev-image-keyboard-response,394,1188241,learnblock1,721.9000000357628,img/planet8_left.png,8,Community 2,NA,TRUE,f,f,NA,NA,NA,1,7,"2,5,4,7,14,15,10,9,1,8,12,6,13,3,11"
14968,commdev-image-keyboard-response,395,1189492,learnblock1,787.9000000357628,img/planet10_right.png,10,Community 2,NA,TRUE,j,j,NA,NA,NA,1,7,"2,5,4,7,14,15,10,9,1,8,12,6,13,3,11"
14968,commdev-image-keyboard-response,396,1190744,learnblock1,914.1000000238419,img/planet1_left.png,1,Community 2,NA,TRUE,f,f,NA,NA,NA,1,7,"2,5,4,7,14,15,10,9,1,8,12,6,13,3,11"
14968,commdev-image-keyboard-response,397,1191996,learnblock1,809.6000000238419,img/planet10_right.png,10,Community 2,NA,TRUE,j,j,NA,NA,NA,1,7,"2,5,4,7,14,15,10,9,1,8,12,6,13,3,11"
14968,commdev-image-keyboard-response,398,1193248,learnblock1,1089.699999988079,img/planet15_right.png,15,Community 2,NA,TRUE,j,j,NA,NA,NA,1,7,"2,5,4,7,14,15,10,9,1,8,12,6,13,3,11"
14968,commdev-image-keyboard-response,399,1194499,learnblock1,null,img/planet7_right.png,7,Community 1,NA,FALSE,null,j,NA,NA,NA,1,7,"2,5,4,7,14,15,10,9,1,8,12,6,13,3,11"
14968,commdev-image-keyboard-response,400,1195751,learnblock1,195.10000002384186,img/planet2_left.png,2,Community 1,NA,FALSE,j,f,NA,NA,NA,1,7,"2,5,4,7,14,15,10,9,1,8,12,6,13,3,11"
14968,commdev-image-keyboard-response,401,1197003,learnblock1,1039,img/planet14_left.png,14,Community 1,NA,TRUE,f,f,NA,NA,NA,1,7,"2,5,4,7,14,15,10,9,1,8,12,6,13,3,11"
14968,commdev-image-keyboard-response,402,1198254,learnblock1,867.0999999642372,img/planet5_left.png,5,Community 1,NA,TRUE,f,f,NA,NA,NA,1,7,"2,5,4,7,14,15,10,9,1,8,12,6,13,3,11"
14968,commdev-image-keyboard-response,403,1199505,learnblock1,656.7000000476837,img/planet2_left.png,2,Community 1,NA,TRUE,f,f,NA,NA,NA,1,7,"2,5,4,7,14,15,10,9,1,8,12,6,13,3,11"
14968,commdev-image-keyboard-response,404,1200757,learnblock1,959.2000000476837,img/planet14_right.png,14,Community 1,NA,TRUE,j,j,NA,NA,NA,1,7,"2,5,4,7,14,15,10,9,1,8,12,6,13,3,11"
14968,commdev-image-keyboard-response,405,1202009,learnblock1,767.3000000119209,img/planet2_left.png,2,Community 1,NA,TRUE,f,f,NA,NA,NA,1,7,"2,5,4,7,14,15,10,9,1,8,12,6,13,3,11"
14968,commdev-image-keyboard-response,406,1203261,learnblock1,929.5,img/planet14_left.png,14,Community 1,NA,TRUE,f,f,NA,NA,NA,1,7,"2,5,4,7,14,15,10,9,1,8,12,6,13,3,11"
14968,commdev-image-keyboard-response,407,1204513,learnblock1,615.5,img/planet2_left.png,2,Community 1,NA,TRUE,f,f,NA,NA,NA,1,7,"2,5,4,7,14,15,10,9,1,8,12,6,13,3,11"
14968,commdev-image-keyboard-response,408,1205764,learnblock1,785.5,img/planet7_left.png,7,Community 1,NA,TRUE,f,f,NA,NA,NA,1,7,"2,5,4,7,14,15,10,9,1,8,12,6,13,3,11"
14968,commdev-image-keyboard-response,409,1207016,learnblock1,655.4000000357628,img/planet2_left.png,2,Community 1,NA,TRUE,f,f,NA,NA,NA,1,7,"2,5,4,7,14,15,10,9,1,8,12,6,13,3,11"
14968,commdev-image-keyboard-response,410,1208268,learnblock1,484.80000001192093,img/planet7_right.png,7,Community 1,NA,FALSE,f,j,NA,NA,NA,1,7,"2,5,4,7,14,15,10,9,1,8,12,6,13,3,11"
14968,commdev-image-keyboard-response,411,1209519,learnblock1,793.1000000238419,img/planet15_right.png,15,Community 2,NA,TRUE,j,j,NA,NA,NA,1,7,"2,5,4,7,14,15,10,9,1,8,12,6,13,3,11"
14968,commdev-image-keyboard-response,412,1210770,learnblock1,688.6999999880791,img/planet1_left.png,1,Community 2,NA,TRUE,f,f,NA,NA,NA,1,7,"2,5,4,7,14,15,10,9,1,8,12,6,13,3,11"
14968,commdev-image-keyboard-response,413,1212022,learnblock1,575.3000000119209,img/planet15_right.png,15,Community 2,NA,TRUE,j,j,NA,NA,NA,1,7,"2,5,4,7,14,15,10,9,1,8,12,6,13,3,11"
14968,commdev-image-keyboard-response,414,1213273,learnblock1,784.3000000119209,img/planet1_left.png,1,Community 2,NA,TRUE,f,f,NA,NA,NA,1,7,"2,5,4,7,14,15,10,9,1,8,12,6,13,3,11"
14968,commdev-image-keyboard-response,415,1214525,learnblock1,623.4000000357628,img/planet15_right.png,15,Community 2,NA,TRUE,j,j,NA,NA,NA,1,7,"2,5,4,7,14,15,10,9,1,8,12,6,13,3,11"
14968,commdev-image-keyboard-response,416,1215777,learnblock1,593.8999999761581,img/planet10_left.png,10,Community 2,NA,TRUE,f,f,NA,NA,NA,1,7,"2,5,4,7,14,15,10,9,1,8,12,6,13,3,11"
14968,commdev-image-keyboard-response,417,1217030,learnblock1,624,img/planet8_right.png,8,Community 2,NA,TRUE,j,j,NA,NA,NA,1,7,"2,5,4,7,14,15,10,9,1,8,12,6,13,3,11"
14968,commdev-image-keyboard-response,418,1218282,learnblock1,617.8000000119209,img/planet10_left.png,10,Community 2,NA,TRUE,f,f,NA,NA,NA,1,7,"2,5,4,7,14,15,10,9,1,8,12,6,13,3,11"
14968,commdev-image-keyboard-response,419,1219533,learnblock1,552.1999999880791,img/planet8_right.png,8,Community 2,NA,TRUE,j,j,NA,NA,NA,1,7,"2,5,4,7,14,15,10,9,1,8,12,6,13,3,11"
14968,commdev-image-keyboard-response,420,1220785,learnblock1,719.8000000119209,img/planet9_left.png,9,Community 2,NA,TRUE,f,f,NA,NA,NA,1,7,"2,5,4,7,14,15,10,9,1,8,12,6,13,3,11"
14968,commdev-image-keyboard-response,421,1222037,learnblock1,729.7999999523163,img/planet8_left.png,8,Community 2,NA,TRUE,f,f,NA,NA,NA,1,7,"2,5,4,7,14,15,10,9,1,8,12,6,13,3,11"
14968,commdev-image-keyboard-response,425,1727983,learnblock2,624.3000000119209,img/planet8_left.png,8,Community 2,NA,TRUE,f,f,NA,NA,NA,1,7,"2,5,4,7,14,15,10,9,1,8,12,6,13,3,11"
14968,commdev-image-keyboard-response,426,1729245,learnblock2,617.8999999761581,img/planet15_right.png,15,Community 2,NA,TRUE,j,j,NA,NA,NA,1,7,"2,5,4,7,14,15,10,9,1,8,12,6,13,3,11"
14968,commdev-image-keyboard-response,427,1730497,learnblock2,554.6000000238419,img/planet8_left.png,8,Community 2,NA,TRUE,f,f,NA,NA,NA,1,7,"2,5,4,7,14,15,10,9,1,8,12,6,13,3,11"
14968,commdev-image-keyboard-response,428,1731748,learnblock2,548.6999999880791,img/planet10_left.png,10,Community 2,NA,TRUE,f,f,NA,NA,NA,1,7,"2,5,4,7,14,15,10,9,1,8,12,6,13,3,11"
14968,commdev-image-keyboard-response,429,1733000,learnblock2,622.1999999880791,img/planet1_left.png,1,Community 2,NA,TRUE,f,f,NA,NA,NA,1,7,"2,5,4,7,14,15,10,9,1,8,12,6,13,3,11"
14968,commdev-image-keyboard-response,430,1734252,learnblock2,528.5,img/planet9_right.png,9,Community 2,NA,TRUE,j,j,NA,NA,NA,1,7,"2,5,4,7,14,15,10,9,1,8,12,6,13,3,11"
14968,commdev-image-keyboard-response,431,1735504,learnblock2,591.8999999761581,img/planet6_right.png,6,Community 3,NA,TRUE,j,j,NA,NA,NA,1,7,"2,5,4,7,14,15,10,9,1,8,12,6,13,3,11"
14968,commdev-image-keyboard-response,432,1736756,learnblock2,697.3999999761581,img/planet3_right.png,3,Community 3,NA,TRUE,j,j,NA,NA,NA,1,7,"2,5,4,7,14,15,10,9,1,8,12,6,13,3,11"
14968,commdev-image-keyboard-response,433,1738007,learnblock2,795.1999999880791,img/planet12_right.png,12,Community 3,NA,TRUE,j,j,NA,NA,NA,1,7,"2,5,4,7,14,15,10,9,1,8,12,6,13,3,11"
14968,commdev-image-keyboard-response,434,1739259,learnblock2,579.5,img/planet3_left.png,3,Community 3,NA,TRUE,f,f,NA,NA,NA,1,7,"2,5,4,7,14,15,10,9,1,8,12,6,13,3,11"
14968,commdev-image-keyboard-response,435,1740510,learnblock2,556.5,img/planet6_right.png,6,Community 3,NA,TRUE,j,j,NA,NA,NA,1,7,"2,5,4,7,14,15,10,9,1,8,12,6,13,3,11"
14968,commdev-image-keyboard-response,436,1741761,learnblock2,551.1999999880791,img/planet9_right.png,9,Community 2,NA,TRUE,j,j,NA,NA,NA,1,7,"2,5,4,7,14,15,10,9,1,8,12,6,13,3,11"
14968,commdev-image-keyboard-response,437,1743013,learnblock2,632.8000000119209,img/planet10_left.png,10,Community 2,NA,TRUE,f,f,NA,NA,NA,1,7,"2,5,4,7,14,15,10,9,1,8,12,6,13,3,11"
14968,commdev-image-keyboard-response,438,1744265,learnblock2,611.5,img/planet1_left.png,1,Community 2,NA,TRUE,f,f,NA,NA,NA,1,7,"2,5,4,7,14,15,10,9,1,8,12,6,13,3,11"
14968,commdev-image-keyboard-response,439,1745517,learnblock2,678.9000000357628,img/planet9_left.png,9,Community 2,NA,TRUE,f,f,NA,NA,NA,1,7,"2,5,4,7,14,15,10,9,1,8,12,6,13,3,11"
14968,commdev-image-keyboard-response,440,1746769,learnblock2,668.5,img/planet1_right.png,1,Community 2,NA,TRUE,j,j,NA,NA,NA,1,7,"2,5,4,7,14,15,10,9,1,8,12,6,13,3,11"
14968,commdev-image-keyboard-response,441,1748020,learnblock2,576.3000000119209,img/planet15_left.png,15,Community 2,NA,TRUE,f,f,NA,NA,NA,1,7,"2,5,4,7,14,15,10,9,1,8,12,6,13,3,11"
14968,commdev-image-keyboard-response,442,1749272,learnblock2,663.1000000238419,img/planet7_left.png,7,Community 1,NA,TRUE,f,f,NA,NA,NA,1,7,"2,5,4,7,14,15,10,9,1,8,12,6,13,3,11"
14968,commdev-image-keyboard-response,443,1750523,learnblock2,576.6999999880791,img/planet4_right.png,4,Community 1,NA,TRUE,j,j,NA,NA,NA,1,7,"2,5,4,7,14,15,10,9,1,8,12,6,13,3,11"
14968,commdev-image-keyboard-response,444,1751774,learnblock2,538.1999999880791,img/planet2_left.png,2,Community 1,NA,TRUE,f,f,NA,NA,NA,1,7,"2,5,4,7,14,15,10,9,1,8,12,6,13,3,11"
14968,commdev-image-keyboard-response,445,1753026,learnblock2,487.7999999523163,img/planet4_left.png,4,Community 1,NA,TRUE,f,f,NA,NA,NA,1,7,"2,5,4,7,14,15,10,9,1,8,12,6,13,3,11"
14968,commdev-image-keyboard-response,446,1754291,learnblock2,702.5999999642372,img/planet14_right.png,14,Community 1,NA,TRUE,j,j,NA,NA,NA,1,7,"2,5,4,7,14,15,10,9,1,8,12,6,13,3,11"
14968,commdev-image-keyboard-response,447,1755543,learnblock2,684,img/planet12_right.png,12,Community 3,NA,TRUE,j,j,NA,NA,NA,1,7,"2,5,4,7,14,15,10,9,1,8,12,6,13,3,11"
14968,commdev-image-keyboard-response,448,1756795,learnblock2,691.8999999761581,img/planet3_right.png,3,Community 3,NA,TRUE,j,j,NA,NA,NA,1,7,"2,5,4,7,14,15,10,9,1,8,12,6,13,3,11"
14968,commdev-image-keyboard-response,449,1758046,learnblock2,656.8000000119209,img/planet12_left.png,12,Community 3,NA,TRUE,f,f,NA,NA,NA,1,7,"2,5,4,7,14,15,10,9,1,8,12,6,13,3,11"
14968,commdev-image-keyboard-response,450,1759298,learnblock2,1004.8999999761581,img/planet3_left.png,3,Community 3,NA,TRUE,f,f,NA,NA,NA,1,7,"2,5,4,7,14,15,10,9,1,8,12,6,13,3,11"
14968,commdev-image-keyboard-response,451,1760549,learnblock2,617.5,img/planet12_right.png,12,Community 3,NA,TRUE,j,j,NA,NA,NA,1,7,"2,5,4,7,14,15,10,9,1,8,12,6,13,3,11"
14968,commdev-image-keyboard-response,452,1761800,learnblock2,765.3999999761581,img/planet13_right.png,13,Community 3,NA,TRUE,j,j,NA,NA,NA,1,7,"2,5,4,7,14,15,10,9,1,8,12,6,13,3,11"
14968,commdev-image-keyboard-response,453,1763052,learnblock2,716.1999999880791,img/planet3_left.png,3,Community 3,NA,TRUE,f,f,NA,NA,NA,1,7,"2,5,4,7,14,15,10,9,1,8,12,6,13,3,11"
14968,commdev-image-keyboard-response,454,1764304,learnblock2,780.3000000119209,img/planet12_right.png,12,Community 3,NA,TRUE,j,j,NA,NA,NA,1,7,"2,5,4,7,14,15,10,9,1,8,12,6,13,3,11"
14968,commdev-image-keyboard-response,455,1765556,learnblock2,719.5,img/planet3_right.png,3,Community 3,NA,TRUE,j,j,NA,NA,NA,1,7,"2,5,4,7,14,15,10,9,1,8,12,6,13,3,11"
14968,commdev-image-keyboard-response,456,1766807,learnblock2,666.1999999880791,img/planet11_left.png,11,Community 3,NA,TRUE,f,f,NA,NA,NA,1,7,"2,5,4,7,14,15,10,9,1,8,12,6,13,3,11"
14968,commdev-image-keyboard-response,457,1768059,learnblock2,715.7999999523163,img/planet6_left.png,6,Community 3,NA,TRUE,f,f,NA,NA,NA,1,7,"2,5,4,7,14,15,10,9,1,8,12,6,13,3,11"
14968,commdev-image-keyboard-response,458,1769310,learnblock2,729.7999999523163,img/planet3_left.png,3,Community 3,NA,TRUE,f,f,NA,NA,NA,1,7,"2,5,4,7,14,15,10,9,1,8,12,6,13,3,11"
14968,commdev-image-keyboard-response,459,1770562,learnblock2,662.3999999761581,img/planet13_right.png,13,Community 3,NA,TRUE,j,j,NA,NA,NA,1,7,"2,5,4,7,14,15,10,9,1,8,12,6,13,3,11"
14968,commdev-image-keyboard-response,460,1771814,learnblock2,604.3999999761581,img/planet3_left.png,3,Community 3,NA,TRUE,f,f,NA,NA,NA,1,7,"2,5,4,7,14,15,10,9,1,8,12,6,13,3,11"
14968,commdev-image-keyboard-response,461,1773066,learnblock2,1101.6000000238419,img/planet12_left.png,12,Community 3,NA,TRUE,f,f,NA,NA,NA,1,7,"2,5,4,7,14,15,10,9,1,8,12,6,13,3,11"
14968,commdev-image-keyboard-response,462,1774317,learnblock2,1065.6000000238419,img/planet3_right.png,3,Community 3,NA,TRUE,j,j,NA,NA,NA,1,7,"2,5,4,7,14,15,10,9,1,8,12,6,13,3,11"
14968,commdev-image-keyboard-response,463,1775568,learnblock2,854.5,img/planet12_right.png,12,Community 3,NA,TRUE,j,j,NA,NA,NA,1,7,"2,5,4,7,14,15,10,9,1,8,12,6,13,3,11"
14968,commdev-image-keyboard-response,464,1776819,learnblock2,666.8999999761581,img/planet13_left.png,13,Community 3,NA,TRUE,f,f,NA,NA,NA,1,7,"2,5,4,7,14,15,10,9,1,8,12,6,13,3,11"
14968,commdev-image-keyboard-response,465,1778071,learnblock2,610.3999999761581,img/planet11_right.png,11,Community 3,NA,TRUE,j,j,NA,NA,NA,1,7,"2,5,4,7,14,15,10,9,1,8,12,6,13,3,11"
14968,commdev-image-keyboard-response,466,1779323,learnblock2,634.5999999642372,img/planet13_left.png,13,Community 3,NA,TRUE,f,f,NA,NA,NA,1,7,"2,5,4,7,14,15,10,9,1,8,12,6,13,3,11"
14968,commdev-image-keyboard-response,467,1780574,learnblock2,689.4000000357628,img/planet6_left.png,6,Community 3,NA,TRUE,f,f,NA,NA,NA,1,7,"2,5,4,7,14,15,10,9,1,8,12,6,13,3,11"
14968,commdev-image-keyboard-response,468,1781826,learnblock2,547.6999999880791,img/planet3_right.png,3,Community 3,NA,TRUE,j,j,NA,NA,NA,1,7,"2,5,4,7,14,15,10,9,1,8,12,6,13,3,11"
14968,commdev-image-keyboard-response,469,1783078,learnblock2,697.6000000238419,img/planet12_right.png,12,Community 3,NA,TRUE,j,j,NA,NA,NA,1,7,"2,5,4,7,14,15,10,9,1,8,12,6,13,3,11"
14968,commdev-image-keyboard-response,470,1784329,learnblock2,639.1999999880791,img/planet13_left.png,13,Community 3,NA,TRUE,f,f,NA,NA,NA,1,7,"2,5,4,7,14,15,10,9,1,8,12,6,13,3,11"
14968,commdev-image-keyboard-response,471,1785582,learnblock2,586.6999999880791,img/planet3_left.png,3,Community 3,NA,TRUE,f,f,NA,NA,NA,1,7,"2,5,4,7,14,15,10,9,1,8,12,6,13,3,11"
14968,commdev-image-keyboard-response,472,1786834,learnblock2,617.2999999523163,img/planet6_left.png,6,Community 3,NA,TRUE,f,f,NA,NA,NA,1,7,"2,5,4,7,14,15,10,9,1,8,12,6,13,3,11"
14968,commdev-image-keyboard-response,473,1788085,learnblock2,596.9000000357628,img/planet11_left.png,11,Community 3,NA,FALSE,j,f,NA,NA,NA,1,7,"2,5,4,7,14,15,10,9,1,8,12,6,13,3,11"
14968,commdev-image-keyboard-response,474,1789337,learnblock2,673.4000000357628,img/planet13_right.png,13,Community 3,NA,TRUE,j,j,NA,NA,NA,1,7,"2,5,4,7,14,15,10,9,1,8,12,6,13,3,11"
14968,commdev-image-keyboard-response,475,1790588,learnblock2,582.7000000476837,img/planet11_right.png,11,Community 3,NA,TRUE,j,j,NA,NA,NA,1,7,"2,5,4,7,14,15,10,9,1,8,12,6,13,3,11"
14968,commdev-image-keyboard-response,476,1791840,learnblock2,576.5,img/planet12_left.png,12,Community 3,NA,TRUE,f,f,NA,NA,NA,1,7,"2,5,4,7,14,15,10,9,1,8,12,6,13,3,11"
14968,commdev-image-keyboard-response,477,1793091,learnblock2,895.6000000238419,img/planet3_left.png,3,Community 3,NA,TRUE,f,f,NA,NA,NA,1,7,"2,5,4,7,14,15,10,9,1,8,12,6,13,3,11"
14968,commdev-image-keyboard-response,478,1794342,learnblock2,814.9000000357628,img/planet11_left.png,11,Community 3,NA,TRUE,f,f,NA,NA,NA,1,7,"2,5,4,7,14,15,10,9,1,8,12,6,13,3,11"
14968,commdev-image-keyboard-response,479,1795594,learnblock2,737.3999999761581,img/planet13_left.png,13,Community 3,NA,TRUE,f,f,NA,NA,NA,1,7,"2,5,4,7,14,15,10,9,1,8,12,6,13,3,11"
14968,commdev-image-keyboard-response,480,1796845,learnblock2,845.6999999880791,img/planet3_right.png,3,Community 3,NA,TRUE,j,j,NA,NA,NA,1,7,"2,5,4,7,14,15,10,9,1,8,12,6,13,3,11"
14968,commdev-image-keyboard-response,481,1798097,learnblock2,733.1000000238419,img/planet11_right.png,11,Community 3,NA,TRUE,j,j,NA,NA,NA,1,7,"2,5,4,7,14,15,10,9,1,8,12,6,13,3,11"
14968,commdev-image-keyboard-response,482,1799348,learnblock2,715.3000000119209,img/planet6_left.png,6,Community 3,NA,TRUE,f,f,NA,NA,NA,1,7,"2,5,4,7,14,15,10,9,1,8,12,6,13,3,11"
14968,commdev-image-keyboard-response,483,1800600,learnblock2,590.6000000238419,img/planet13_right.png,13,Community 3,NA,TRUE,j,j,NA,NA,NA,1,7,"2,5,4,7,14,15,10,9,1,8,12,6,13,3,11"
14968,commdev-image-keyboard-response,484,1801851,learnblock2,590.3000000119209,img/planet6_left.png,6,Community 3,NA,TRUE,f,f,NA,NA,NA,1,7,"2,5,4,7,14,15,10,9,1,8,12,6,13,3,11"
14968,commdev-image-keyboard-response,485,1803104,learnblock2,662.7000000476837,img/planet11_left.png,11,Community 3,NA,TRUE,f,f,NA,NA,NA,1,7,"2,5,4,7,14,15,10,9,1,8,12,6,13,3,11"
14968,commdev-image-keyboard-response,486,1804355,learnblock2,593.4000000357628,img/planet13_right.png,13,Community 3,NA,TRUE,j,j,NA,NA,NA,1,7,"2,5,4,7,14,15,10,9,1,8,12,6,13,3,11"
14968,commdev-image-keyboard-response,487,1805613,learnblock2,608.3000000119209,img/planet6_right.png,6,Community 3,NA,TRUE,j,j,NA,NA,NA,1,7,"2,5,4,7,14,15,10,9,1,8,12,6,13,3,11"
14968,commdev-image-keyboard-response,488,1806864,learnblock2,576.6999999880791,img/planet3_left.png,3,Community 3,NA,TRUE,f,f,NA,NA,NA,1,7,"2,5,4,7,14,15,10,9,1,8,12,6,13,3,11"
14968,commdev-image-keyboard-response,489,1808116,learnblock2,611.3999999761581,img/planet12_right.png,12,Community 3,NA,TRUE,j,j,NA,NA,NA,1,7,"2,5,4,7,14,15,10,9,1,8,12,6,13,3,11"
14968,commdev-image-keyboard-response,490,1809368,learnblock2,502.80000001192093,img/planet3_right.png,3,Community 3,NA,FALSE,f,j,NA,NA,NA,1,7,"2,5,4,7,14,15,10,9,1,8,12,6,13,3,11"
14968,commdev-image-keyboard-response,491,1810625,learnblock2,586.6000000238419,img/planet12_left.png,12,Community 3,NA,TRUE,f,f,NA,NA,NA,1,7,"2,5,4,7,14,15,10,9,1,8,12,6,13,3,11"
14968,commdev-image-keyboard-response,492,1811877,learnblock2,595.5,img/planet11_right.png,11,Community 3,NA,TRUE,j,j,NA,NA,NA,1,7,"2,5,4,7,14,15,10,9,1,8,12,6,13,3,11"
14968,commdev-image-keyboard-response,493,1813129,learnblock2,642.5999999642372,img/planet12_left.png,12,Community 3,NA,TRUE,f,f,NA,NA,NA,1,7,"2,5,4,7,14,15,10,9,1,8,12,6,13,3,11"
14968,commdev-image-keyboard-response,494,1814381,learnblock2,696,img/planet3_left.png,3,Community 3,NA,TRUE,f,f,NA,NA,NA,1,7,"2,5,4,7,14,15,10,9,1,8,12,6,13,3,11"
14968,commdev-image-keyboard-response,495,1815632,learnblock2,676.8999999761581,img/planet12_left.png,12,Community 3,NA,TRUE,f,f,NA,NA,NA,1,7,"2,5,4,7,14,15,10,9,1,8,12,6,13,3,11"
14968,commdev-image-keyboard-response,496,1816883,learnblock2,765.8999999761581,img/planet13_right.png,13,Community 3,NA,TRUE,j,j,NA,NA,NA,1,7,"2,5,4,7,14,15,10,9,1,8,12,6,13,3,11"
14968,commdev-image-keyboard-response,497,1818135,learnblock2,840.4000000357628,img/planet12_left.png,12,Community 3,NA,TRUE,f,f,NA,NA,NA,1,7,"2,5,4,7,14,15,10,9,1,8,12,6,13,3,11"
14968,commdev-image-keyboard-response,498,1819387,learnblock2,752.1999999880791,img/planet13_right.png,13,Community 3,NA,TRUE,j,j,NA,NA,NA,1,7,"2,5,4,7,14,15,10,9,1,8,12,6,13,3,11"
14968,commdev-image-keyboard-response,499,1820638,learnblock2,1147.4000000357628,img/planet3_right.png,3,Community 3,NA,TRUE,j,j,NA,NA,NA,1,7,"2,5,4,7,14,15,10,9,1,8,12,6,13,3,11"
14968,commdev-image-keyboard-response,500,1821889,learnblock2,981.3999999761581,img/planet11_left.png,11,Community 3,NA,TRUE,f,f,NA,NA,NA,1,7,"2,5,4,7,14,15,10,9,1,8,12,6,13,3,11"
14968,commdev-image-keyboard-response,501,1823141,learnblock2,null,img/planet6_left.png,6,Community 3,NA,FALSE,null,f,NA,NA,NA,1,7,"2,5,4,7,14,15,10,9,1,8,12,6,13,3,11"
14968,commdev-image-keyboard-response,502,1824393,learnblock2,816.1999999880791,img/planet13_right.png,13,Community 3,NA,TRUE,j,j,NA,NA,NA,1,7,"2,5,4,7,14,15,10,9,1,8,12,6,13,3,11"
14968,commdev-image-keyboard-response,503,1825644,learnblock2,638.3999999761581,img/planet11_right.png,11,Community 3,NA,TRUE,j,j,NA,NA,NA,1,7,"2,5,4,7,14,15,10,9,1,8,12,6,13,3,11"
14968,commdev-image-keyboard-response,504,1826896,learnblock2,619.8000000119209,img/planet6_left.png,6,Community 3,NA,TRUE,f,f,NA,NA,NA,1,7,"2,5,4,7,14,15,10,9,1,8,12,6,13,3,11"
14968,commdev-image-keyboard-response,505,1828148,learnblock2,487.10000002384186,img/planet13_right.png,13,Community 3,NA,TRUE,j,j,NA,NA,NA,1,7,"2,5,4,7,14,15,10,9,1,8,12,6,13,3,11"
14968,commdev-image-keyboard-response,506,1829400,learnblock2,725.3000000119209,img/planet11_left.png,11,Community 3,NA,TRUE,f,f,NA,NA,NA,1,7,"2,5,4,7,14,15,10,9,1,8,12,6,13,3,11"
14968,commdev-image-keyboard-response,507,1830652,learnblock2,588.5,img/planet12_left.png,12,Community 3,NA,TRUE,f,f,NA,NA,NA,1,7,"2,5,4,7,14,15,10,9,1,8,12,6,13,3,11"
14968,commdev-image-keyboard-response,508,1831903,learnblock2,760.1999999880791,img/planet11_left.png,11,Community 3,NA,TRUE,f,f,NA,NA,NA,1,7,"2,5,4,7,14,15,10,9,1,8,12,6,13,3,11"
14968,commdev-image-keyboard-response,509,1833155,learnblock2,589.5,img/planet12_right.png,12,Community 3,NA,TRUE,j,j,NA,NA,NA,1,7,"2,5,4,7,14,15,10,9,1,8,12,6,13,3,11"
14968,commdev-image-keyboard-response,510,1834407,learnblock2,539.3000000119209,img/planet3_left.png,3,Community 3,NA,TRUE,f,f,NA,NA,NA,1,7,"2,5,4,7,14,15,10,9,1,8,12,6,13,3,11"
14968,commdev-image-keyboard-response,511,1835658,learnblock2,397.7000000476837,img/planet6_right.png,6,Community 3,NA,TRUE,j,j,NA,NA,NA,1,7,"2,5,4,7,14,15,10,9,1,8,12,6,13,3,11"
14968,commdev-image-keyboard-response,512,1836910,learnblock2,616.8999999761581,img/planet13_left.png,13,Community 3,NA,TRUE,f,f,NA,NA,NA,1,7,"2,5,4,7,14,15,10,9,1,8,12,6,13,3,11"
14968,commdev-image-keyboard-response,513,1838161,learnblock2,699.6000000238419,img/planet6_left.png,6,Community 3,NA,TRUE,f,f,NA,NA,NA,1,7,"2,5,4,7,14,15,10,9,1,8,12,6,13,3,11"
14968,commdev-image-keyboard-response,514,1839413,learnblock2,675.5,img/planet11_right.png,11,Community 3,NA,TRUE,j,j,NA,NA,NA,1,7,"2,5,4,7,14,15,10,9,1,8,12,6,13,3,11"
14968,commdev-image-keyboard-response,515,1840664,learnblock2,528.6000000238419,img/planet3_left.png,3,Community 3,NA,TRUE,f,f,NA,NA,NA,1,7,"2,5,4,7,14,15,10,9,1,8,12,6,13,3,11"
14968,commdev-image-keyboard-response,516,1841916,learnblock2,542.0999999642372,img/planet6_right.png,6,Community 3,NA,TRUE,j,j,NA,NA,NA,1,7,"2,5,4,7,14,15,10,9,1,8,12,6,13,3,11"
14968,commdev-image-keyboard-response,517,1843168,learnblock2,556.8000000119209,img/planet11_left.png,11,Community 3,NA,TRUE,f,f,NA,NA,NA,1,7,"2,5,4,7,14,15,10,9,1,8,12,6,13,3,11"
14968,commdev-image-keyboard-response,518,1844419,learnblock2,605.6000000238419,img/planet3_right.png,3,Community 3,NA,TRUE,j,j,NA,NA,NA,1,7,"2,5,4,7,14,15,10,9,1,8,12,6,13,3,11"
14968,commdev-image-keyboard-response,519,1845671,learnblock2,817.3999999761581,img/planet11_right.png,11,Community 3,NA,TRUE,j,j,NA,NA,NA,1,7,"2,5,4,7,14,15,10,9,1,8,12,6,13,3,11"
14968,commdev-image-keyboard-response,520,1846922,learnblock2,645.5999999642372,img/planet6_right.png,6,Community 3,NA,TRUE,j,j,NA,NA,NA,1,7,"2,5,4,7,14,15,10,9,1,8,12,6,13,3,11"
14968,commdev-image-keyboard-response,521,1848174,learnblock2,585.8000000119209,img/planet13_right.png,13,Community 3,NA,TRUE,j,j,NA,NA,NA,1,7,"2,5,4,7,14,15,10,9,1,8,12,6,13,3,11"
14968,commdev-image-keyboard-response,522,1849425,learnblock2,575.6999999880791,img/planet3_right.png,3,Community 3,NA,TRUE,j,j,NA,NA,NA,1,7,"2,5,4,7,14,15,10,9,1,8,12,6,13,3,11"
14968,commdev-image-keyboard-response,523,1850676,learnblock2,446.2999999523163,img/planet13_left.png,13,Community 3,NA,FALSE,j,f,NA,NA,NA,1,7,"2,5,4,7,14,15,10,9,1,8,12,6,13,3,11"
14968,commdev-image-keyboard-response,524,1851928,learnblock2,631.1000000238419,img/planet11_left.png,11,Community 3,NA,TRUE,f,f,NA,NA,NA,1,7,"2,5,4,7,14,15,10,9,1,8,12,6,13,3,11"
14968,commdev-image-keyboard-response,525,1853179,learnblock2,648.8000000119209,img/planet3_right.png,3,Community 3,NA,TRUE,j,j,NA,NA,NA,1,7,"2,5,4,7,14,15,10,9,1,8,12,6,13,3,11"
14968,commdev-image-keyboard-response,526,1854430,learnblock2,683,img/planet11_right.png,11,Community 3,NA,TRUE,j,j,NA,NA,NA,1,7,"2,5,4,7,14,15,10,9,1,8,12,6,13,3,11"
14968,commdev-image-keyboard-response,527,1855682,learnblock2,587,img/planet12_right.png,12,Community 3,NA,TRUE,j,j,NA,NA,NA,1,7,"2,5,4,7,14,15,10,9,1,8,12,6,13,3,11"
14968,commdev-image-keyboard-response,528,1856934,learnblock2,794.6000000238419,img/planet3_left.png,3,Community 3,NA,TRUE,f,f,NA,NA,NA,1,7,"2,5,4,7,14,15,10,9,1,8,12,6,13,3,11"
14968,commdev-image-keyboard-response,529,1858186,learnblock2,649.5,img/planet13_left.png,13,Community 3,NA,TRUE,f,f,NA,NA,NA,1,7,"2,5,4,7,14,15,10,9,1,8,12,6,13,3,11"
14968,commdev-image-keyboard-response,530,1859437,learnblock2,601.1000000238419,img/planet12_right.png,12,Community 3,NA,TRUE,j,j,NA,NA,NA,1,7,"2,5,4,7,14,15,10,9,1,8,12,6,13,3,11"
14968,commdev-image-keyboard-response,531,1860689,learnblock2,533.4000000357628,img/planet13_right.png,13,Community 3,NA,TRUE,j,j,NA,NA,NA,1,7,"2,5,4,7,14,15,10,9,1,8,12,6,13,3,11"
14968,commdev-image-keyboard-response,532,1861940,learnblock2,579.3000000119209,img/planet6_left.png,6,Community 3,NA,TRUE,f,f,NA,NA,NA,1,7,"2,5,4,7,14,15,10,9,1,8,12,6,13,3,11"
14968,commdev-image-keyboard-response,533,1863192,learnblock2,682.3000000119209,img/planet11_left.png,11,Community 3,NA,TRUE,f,f,NA,NA,NA,1,7,"2,5,4,7,14,15,10,9,1,8,12,6,13,3,11"
14968,commdev-image-keyboard-response,534,1864443,learnblock2,742.3000000119209,img/planet13_left.png,13,Community 3,NA,TRUE,f,f,NA,NA,NA,1,7,"2,5,4,7,14,15,10,9,1,8,12,6,13,3,11"
14968,commdev-image-keyboard-response,535,1865694,learnblock2,570.6000000238419,img/planet3_right.png,3,Community 3,NA,TRUE,j,j,NA,NA,NA,1,7,"2,5,4,7,14,15,10,9,1,8,12,6,13,3,11"
14968,commdev-image-keyboard-response,536,1866946,learnblock2,536,img/planet11_right.png,11,Community 3,NA,TRUE,j,j,NA,NA,NA,1,7,"2,5,4,7,14,15,10,9,1,8,12,6,13,3,11"
14968,commdev-image-keyboard-response,537,1868197,learnblock2,553.6999999880791,img/planet13_right.png,13,Community 3,NA,TRUE,j,j,NA,NA,NA,1,7,"2,5,4,7,14,15,10,9,1,8,12,6,13,3,11"
14968,commdev-image-keyboard-response,538,1869448,learnblock2,562,img/planet3_right.png,3,Community 3,NA,TRUE,j,j,NA,NA,NA,1,7,"2,5,4,7,14,15,10,9,1,8,12,6,13,3,11"
14968,commdev-image-keyboard-response,539,1870700,learnblock2,683.8999999761581,img/planet6_right.png,6,Community 3,NA,TRUE,j,j,NA,NA,NA,1,7,"2,5,4,7,14,15,10,9,1,8,12,6,13,3,11"
14968,commdev-image-keyboard-response,540,1871951,learnblock2,589.2000000476837,img/planet3_right.png,3,Community 3,NA,TRUE,j,j,NA,NA,NA,1,7,"2,5,4,7,14,15,10,9,1,8,12,6,13,3,11"
14968,commdev-image-keyboard-response,541,1873203,learnblock2,431.4000000357628,img/planet13_right.png,13,Community 3,NA,TRUE,j,j,NA,NA,NA,1,7,"2,5,4,7,14,15,10,9,1,8,12,6,13,3,11"
14968,commdev-image-keyboard-response,542,1874454,learnblock2,654.5999999642372,img/planet6_left.png,6,Community 3,NA,TRUE,f,f,NA,NA,NA,1,7,"2,5,4,7,14,15,10,9,1,8,12,6,13,3,11"
14968,commdev-image-keyboard-response,543,1875706,learnblock2,484.89999997615814,img/planet11_right.png,11,Community 3,NA,TRUE,j,j,NA,NA,NA,1,7,"2,5,4,7,14,15,10,9,1,8,12,6,13,3,11"
14968,commdev-image-keyboard-response,544,1876957,learnblock2,546.5,img/planet12_right.png,12,Community 3,NA,TRUE,j,j,NA,NA,NA,1,7,"2,5,4,7,14,15,10,9,1,8,12,6,13,3,11"
14968,commdev-image-keyboard-response,545,1878209,learnblock2,731.8000000119209,img/planet3_left.png,3,Community 3,NA,TRUE,f,f,NA,NA,NA,1,7,"2,5,4,7,14,15,10,9,1,8,12,6,13,3,11"
14968,commdev-image-keyboard-response,546,1879461,learnblock2,554.6999999880791,img/planet6_right.png,6,Community 3,NA,TRUE,j,j,NA,NA,NA,1,7,"2,5,4,7,14,15,10,9,1,8,12,6,13,3,11"
14968,commdev-image-keyboard-response,547,1880713,learnblock2,739.0999999642372,img/planet11_right.png,11,Community 3,NA,TRUE,j,j,NA,NA,NA,1,7,"2,5,4,7,14,15,10,9,1,8,12,6,13,3,11"
14968,commdev-image-keyboard-response,548,1881964,learnblock2,605.6999999880791,img/planet3_right.png,3,Community 3,NA,TRUE,j,j,NA,NA,NA,1,7,"2,5,4,7,14,15,10,9,1,8,12,6,13,3,11"
14968,commdev-image-keyboard-response,549,1883224,learnblock2,920.3000000119209,img/planet11_left.png,11,Community 3,NA,TRUE,f,f,NA,NA,NA,1,7,"2,5,4,7,14,15,10,9,1,8,12,6,13,3,11"
14968,commdev-image-keyboard-response,550,1884475,learnblock2,757.8000000119209,img/planet13_right.png,13,Community 3,NA,TRUE,j,j,NA,NA,NA,1,7,"2,5,4,7,14,15,10,9,1,8,12,6,13,3,11"
14968,commdev-image-keyboard-response,551,1885726,learnblock2,808.2000000476837,img/planet6_right.png,6,Community 3,NA,TRUE,j,j,NA,NA,NA,1,7,"2,5,4,7,14,15,10,9,1,8,12,6,13,3,11"
14968,commdev-image-keyboard-response,552,1886978,learnblock2,632.3999999761581,img/planet13_right.png,13,Community 3,NA,TRUE,j,j,NA,NA,NA,1,7,"2,5,4,7,14,15,10,9,1,8,12,6,13,3,11"
14968,commdev-image-keyboard-response,553,1888229,learnblock2,862.7000000476837,img/planet12_left.png,12,Community 3,NA,TRUE,f,f,NA,NA,NA,1,7,"2,5,4,7,14,15,10,9,1,8,12,6,13,3,11"
14968,commdev-image-keyboard-response,554,1889480,learnblock2,856.5,img/planet13_left.png,13,Community 3,NA,TRUE,f,f,NA,NA,NA,1,7,"2,5,4,7,14,15,10,9,1,8,12,6,13,3,11"
14968,commdev-image-keyboard-response,555,1890733,learnblock2,665.3000000119209,img/planet11_right.png,11,Community 3,NA,TRUE,j,j,NA,NA,NA,1,7,"2,5,4,7,14,15,10,9,1,8,12,6,13,3,11"
14968,commdev-image-keyboard-response,556,1891985,learnblock2,745.8000000119209,img/planet3_left.png,3,Community 3,NA,TRUE,f,f,NA,NA,NA,1,7,"2,5,4,7,14,15,10,9,1,8,12,6,13,3,11"
14968,commdev-image-keyboard-response,557,1893236,learnblock2,918.1000000238419,img/planet6_left.png,6,Community 3,NA,TRUE,f,f,NA,NA,NA,1,7,"2,5,4,7,14,15,10,9,1,8,12,6,13,3,11"
14968,commdev-image-keyboard-response,558,1894488,learnblock2,689,img/planet9_left.png,9,Community 2,NA,TRUE,f,f,NA,NA,NA,1,7,"2,5,4,7,14,15,10,9,1,8,12,6,13,3,11"
14968,commdev-image-keyboard-response,559,1895740,learnblock2,619.3000000119209,img/planet6_left.png,6,Community 3,NA,TRUE,f,f,NA,NA,NA,1,7,"2,5,4,7,14,15,10,9,1,8,12,6,13,3,11"
14968,commdev-image-keyboard-response,560,1896991,learnblock2,538.8000000119209,img/planet3_right.png,3,Community 3,NA,TRUE,j,j,NA,NA,NA,1,7,"2,5,4,7,14,15,10,9,1,8,12,6,13,3,11"
14968,commdev-image-keyboard-response,561,1898242,learnblock2,566.0999999642372,img/planet13_left.png,13,Community 3,NA,TRUE,f,f,NA,NA,NA,1,7,"2,5,4,7,14,15,10,9,1,8,12,6,13,3,11"
14968,commdev-image-keyboard-response,562,1899494,learnblock2,448.9000000357628,img/planet3_right.png,3,Community 3,NA,TRUE,j,j,NA,NA,NA,1,7,"2,5,4,7,14,15,10,9,1,8,12,6,13,3,11"
14968,commdev-image-keyboard-response,563,1900746,learnblock2,456.30000001192093,img/planet13_left.png,13,Community 3,NA,TRUE,f,f,NA,NA,NA,1,7,"2,5,4,7,14,15,10,9,1,8,12,6,13,3,11"
14968,commdev-image-keyboard-response,564,1901997,learnblock2,602.8000000119209,img/planet3_right.png,3,Community 3,NA,TRUE,j,j,NA,NA,NA,1,7,"2,5,4,7,14,15,10,9,1,8,12,6,13,3,11"
14968,commdev-image-keyboard-response,565,1903249,learnblock2,574.6999999880791,img/planet13_left.png,13,Community 3,NA,TRUE,f,f,NA,NA,NA,1,7,"2,5,4,7,14,15,10,9,1,8,12,6,13,3,11"
14968,commdev-image-keyboard-response,566,1904500,learnblock2,393,img/planet3_left.png,3,Community 3,NA,FALSE,j,f,NA,NA,NA,1,7,"2,5,4,7,14,15,10,9,1,8,12,6,13,3,11"
14968,commdev-image-keyboard-response,567,1905751,learnblock2,628.1999999880791,img/planet11_left.png,11,Community 3,NA,TRUE,f,f,NA,NA,NA,1,7,"2,5,4,7,14,15,10,9,1,8,12,6,13,3,11"
14968,commdev-image-keyboard-response,568,1907003,learnblock2,535.1999999880791,img/planet13_left.png,13,Community 3,NA,TRUE,f,f,NA,NA,NA,1,7,"2,5,4,7,14,15,10,9,1,8,12,6,13,3,11"
14968,commdev-image-keyboard-response,569,1908254,learnblock2,529.9000000357628,img/planet12_left.png,12,Community 3,NA,TRUE,f,f,NA,NA,NA,1,7,"2,5,4,7,14,15,10,9,1,8,12,6,13,3,11"
14968,commdev-image-keyboard-response,570,1909506,learnblock2,595.5999999642372,img/planet14_left.png,14,Community 1,NA,TRUE,f,f,NA,NA,NA,1,7,"2,5,4,7,14,15,10,9,1,8,12,6,13,3,11"
14968,commdev-image-keyboard-response,571,1910757,learnblock2,584.8000000119209,img/planet5_right.png,5,Community 1,NA,TRUE,j,j,NA,NA,NA,1,7,"2,5,4,7,14,15,10,9,1,8,12,6,13,3,11"
14968,commdev-image-keyboard-response,572,1912009,learnblock2,553.8999999761581,img/planet14_left.png,14,Community 1,NA,TRUE,f,f,NA,NA,NA,1,7,"2,5,4,7,14,15,10,9,1,8,12,6,13,3,11"
14968,commdev-image-keyboard-response,573,1913260,learnblock2,651.3000000119209,img/planet4_left.png,4,Community 1,NA,TRUE,f,f,NA,NA,NA,1,7,"2,5,4,7,14,15,10,9,1,8,12,6,13,3,11"
14968,commdev-image-keyboard-response,574,1914512,learnblock2,620.1000000238419,img/planet5_left.png,5,Community 1,NA,TRUE,f,f,NA,NA,NA,1,7,"2,5,4,7,14,15,10,9,1,8,12,6,13,3,11"
14968,commdev-image-keyboard-response,575,1915763,learnblock2,512.4000000357628,img/planet7_right.png,7,Community 1,NA,TRUE,j,j,NA,NA,NA,1,7,"2,5,4,7,14,15,10,9,1,8,12,6,13,3,11"
14968,commdev-image-keyboard-response,576,1917015,learnblock2,650,img/planet15_right.png,15,Community 2,NA,FALSE,f,j,NA,NA,NA,1,7,"2,5,4,7,14,15,10,9,1,8,12,6,13,3,11"
14968,commdev-image-keyboard-response,577,1918266,learnblock2,583.3000000119209,img/planet10_right.png,10,Community 2,NA,TRUE,j,j,NA,NA,NA,1,7,"2,5,4,7,14,15,10,9,1,8,12,6,13,3,11"
14968,commdev-image-keyboard-response,578,1919518,learnblock2,535,img/planet9_left.png,9,Community 2,NA,TRUE,f,f,NA,NA,NA,1,7,"2,5,4,7,14,15,10,9,1,8,12,6,13,3,11"
14968,commdev-image-keyboard-response,579,1920770,learnblock2,507.39999997615814,img/planet6_right.png,6,Community 3,NA,TRUE,j,j,NA,NA,NA,1,7,"2,5,4,7,14,15,10,9,1,8,12,6,13,3,11"
14968,commdev-image-keyboard-response,580,1922022,learnblock2,769.1999999880791,img/planet3_left.png,3,Community 3,NA,TRUE,f,f,NA,NA,NA,1,7,"2,5,4,7,14,15,10,9,1,8,12,6,13,3,11"
14968,commdev-image-keyboard-response,581,1923273,learnblock2,742,img/planet12_left.png,12,Community 3,NA,TRUE,f,f,NA,NA,NA,1,7,"2,5,4,7,14,15,10,9,1,8,12,6,13,3,11"
14968,commdev-image-keyboard-response,582,1924524,learnblock2,787.6999999880791,img/planet3_right.png,3,Community 3,NA,TRUE,j,j,NA,NA,NA,1,7,"2,5,4,7,14,15,10,9,1,8,12,6,13,3,11"
14968,commdev-image-keyboard-response,583,1925775,learnblock2,561.6000000238419,img/planet12_right.png,12,Community 3,NA,TRUE,j,j,NA,NA,NA,1,7,"2,5,4,7,14,15,10,9,1,8,12,6,13,3,11"
14968,commdev-image-keyboard-response,584,1927026,learnblock2,675.3000000119209,img/planet14_left.png,14,Community 1,NA,TRUE,f,f,NA,NA,NA,1,7,"2,5,4,7,14,15,10,9,1,8,12,6,13,3,11"
14968,commdev-image-keyboard-response,585,1928278,learnblock2,602.1999999880791,img/planet4_left.png,4,Community 1,NA,FALSE,j,f,NA,NA,NA,1,7,"2,5,4,7,14,15,10,9,1,8,12,6,13,3,11"
14968,commdev-image-keyboard-response,586,1929532,learnblock2,633.6999999880791,img/planet14_left.png,14,Community 1,NA,TRUE,f,f,NA,NA,NA,1,7,"2,5,4,7,14,15,10,9,1,8,12,6,13,3,11"
14968,commdev-image-keyboard-response,587,1930784,learnblock2,737.1999999880791,img/planet4_right.png,4,Community 1,NA,TRUE,j,j,NA,NA,NA,1,7,"2,5,4,7,14,15,10,9,1,8,12,6,13,3,11"
14968,commdev-image-keyboard-response,588,1932036,learnblock2,709.8000000119209,img/planet2_left.png,2,Community 1,NA,TRUE,f,f,NA,NA,NA,1,7,"2,5,4,7,14,15,10,9,1,8,12,6,13,3,11"
14968,commdev-image-keyboard-response,589,1933287,learnblock2,587.4000000357628,img/planet14_right.png,14,Community 1,NA,TRUE,j,j,NA,NA,NA,1,7,"2,5,4,7,14,15,10,9,1,8,12,6,13,3,11"
14968,commdev-image-keyboard-response,590,1934539,learnblock2,600.3999999761581,img/planet4_left.png,4,Community 1,NA,TRUE,f,f,NA,NA,NA,1,7,"2,5,4,7,14,15,10,9,1,8,12,6,13,3,11"
14968,commdev-image-keyboard-response,591,1935792,learnblock2,664.3999999761581,img/planet7_left.png,7,Community 1,NA,TRUE,f,f,NA,NA,NA,1,7,"2,5,4,7,14,15,10,9,1,8,12,6,13,3,11"
14968,commdev-image-keyboard-response,592,1937042,learnblock2,659.6999999880791,img/planet15_right.png,15,Community 2,NA,TRUE,j,j,NA,NA,NA,1,7,"2,5,4,7,14,15,10,9,1,8,12,6,13,3,11"
14968,commdev-image-keyboard-response,593,1938294,learnblock2,659.1000000238419,img/planet7_right.png,7,Community 1,NA,TRUE,j,j,NA,NA,NA,1,7,"2,5,4,7,14,15,10,9,1,8,12,6,13,3,11"
14968,commdev-image-keyboard-response,594,1939546,learnblock2,702.5,img/planet15_right.png,15,Community 2,NA,TRUE,j,j,NA,NA,NA,1,7,"2,5,4,7,14,15,10,9,1,8,12,6,13,3,11"
14968,commdev-image-keyboard-response,595,1940798,learnblock2,654.1999999880791,img/planet10_left.png,10,Community 2,NA,TRUE,f,f,NA,NA,NA,1,7,"2,5,4,7,14,15,10,9,1,8,12,6,13,3,11"
14968,commdev-image-keyboard-response,596,1942050,learnblock2,632.9000000357628,img/planet8_right.png,8,Community 2,NA,TRUE,j,j,NA,NA,NA,1,7,"2,5,4,7,14,15,10,9,1,8,12,6,13,3,11"
14968,commdev-image-keyboard-response,597,1943302,learnblock2,603.8000000119209,img/planet15_right.png,15,Community 2,NA,TRUE,j,j,NA,NA,NA,1,7,"2,5,4,7,14,15,10,9,1,8,12,6,13,3,11"
14968,commdev-image-keyboard-response,598,1944554,learnblock2,515.5,img/planet8_right.png,8,Community 2,NA,FALSE,f,j,NA,NA,NA,1,7,"2,5,4,7,14,15,10,9,1,8,12,6,13,3,11"
14968,commdev-image-keyboard-response,599,1945805,learnblock2,568,img/planet10_right.png,10,Community 2,NA,TRUE,j,j,NA,NA,NA,1,7,"2,5,4,7,14,15,10,9,1,8,12,6,13,3,11"
14968,commdev-image-keyboard-response,600,1947057,learnblock2,719.4000000357628,img/planet1_left.png,1,Community 2,NA,TRUE,f,f,NA,NA,NA,1,7,"2,5,4,7,14,15,10,9,1,8,12,6,13,3,11"
14968,commdev-image-keyboard-response,601,1948309,learnblock2,625.9000000357628,img/planet10_left.png,10,Community 2,NA,TRUE,f,f,NA,NA,NA,1,7,"2,5,4,7,14,15,10,9,1,8,12,6,13,3,11"
14968,commdev-image-keyboard-response,602,1949561,learnblock2,545.4000000357628,img/planet1_left.png,1,Community 2,NA,TRUE,f,f,NA,NA,NA,1,7,"2,5,4,7,14,15,10,9,1,8,12,6,13,3,11"
14968,commdev-image-keyboard-response,603,1950813,learnblock2,534.9000000357628,img/planet10_right.png,10,Community 2,NA,TRUE,j,j,NA,NA,NA,1,7,"2,5,4,7,14,15,10,9,1,8,12,6,13,3,11"
14968,commdev-image-keyboard-response,604,1952064,learnblock2,622.3999999761581,img/planet15_left.png,15,Community 2,NA,TRUE,f,f,NA,NA,NA,1,7,"2,5,4,7,14,15,10,9,1,8,12,6,13,3,11"
14968,commdev-image-keyboard-response,605,1953330,learnblock2,568.5,img/planet10_right.png,10,Community 2,NA,TRUE,j,j,NA,NA,NA,1,7,"2,5,4,7,14,15,10,9,1,8,12,6,13,3,11"
14968,commdev-image-keyboard-response,606,1954582,learnblock2,672.8000000119209,img/planet15_right.png,15,Community 2,NA,TRUE,j,j,NA,NA,NA,1,7,"2,5,4,7,14,15,10,9,1,8,12,6,13,3,11"
14968,commdev-image-keyboard-response,607,1955833,learnblock2,660.7999999523163,img/planet10_right.png,10,Community 2,NA,TRUE,j,j,NA,NA,NA,1,7,"2,5,4,7,14,15,10,9,1,8,12,6,13,3,11"
14968,commdev-image-keyboard-response,608,1957085,learnblock2,712.3999999761581,img/planet9_right.png,9,Community 2,NA,TRUE,j,j,NA,NA,NA,1,7,"2,5,4,7,14,15,10,9,1,8,12,6,13,3,11"
14968,commdev-image-keyboard-response,609,1958337,learnblock2,772.6000000238419,img/planet6_right.png,6,Community 3,NA,TRUE,j,j,NA,NA,NA,1,7,"2,5,4,7,14,15,10,9,1,8,12,6,13,3,11"
14968,commdev-image-keyboard-response,610,1959588,learnblock2,604,img/planet13_left.png,13,Community 3,NA,TRUE,f,f,NA,NA,NA,1,7,"2,5,4,7,14,15,10,9,1,8,12,6,13,3,11"
14968,commdev-image-keyboard-response,611,1960840,learnblock2,548.0999999642372,img/planet11_right.png,11,Community 3,NA,TRUE,j,j,NA,NA,NA,1,7,"2,5,4,7,14,15,10,9,1,8,12,6,13,3,11"
14968,commdev-image-keyboard-response,612,1962092,learnblock2,699.3999999761581,img/planet3_right.png,3,Community 3,NA,TRUE,j,j,NA,NA,NA,1,7,"2,5,4,7,14,15,10,9,1,8,12,6,13,3,11"
14968,commdev-image-keyboard-response,613,1963344,learnblock2,822.8000000119209,img/planet6_left.png,6,Community 3,NA,TRUE,f,f,NA,NA,NA,1,7,"2,5,4,7,14,15,10,9,1,8,12,6,13,3,11"
14968,commdev-image-keyboard-response,614,1964596,learnblock2,735.5,img/planet11_right.png,11,Community 3,NA,TRUE,j,j,NA,NA,NA,1,7,"2,5,4,7,14,15,10,9,1,8,12,6,13,3,11"
14968,commdev-image-keyboard-response,615,1965848,learnblock2,563.3000000119209,img/planet12_left.png,12,Community 3,NA,TRUE,f,f,NA,NA,NA,1,7,"2,5,4,7,14,15,10,9,1,8,12,6,13,3,11"
14968,commdev-image-keyboard-response,616,1967099,learnblock2,476.0999999642372,img/planet14_left.png,14,Community 1,NA,FALSE,j,f,NA,NA,NA,1,7,"2,5,4,7,14,15,10,9,1,8,12,6,13,3,11"
14968,commdev-image-keyboard-response,617,1968352,learnblock2,506.60000002384186,img/planet4_right.png,4,Community 1,NA,TRUE,j,j,NA,NA,NA,1,7,"2,5,4,7,14,15,10,9,1,8,12,6,13,3,11"
14968,commdev-image-keyboard-response,618,1969604,learnblock2,627.5,img/planet14_left.png,14,Community 1,NA,TRUE,f,f,NA,NA,NA,1,7,"2,5,4,7,14,15,10,9,1,8,12,6,13,3,11"
14968,commdev-image-keyboard-response,619,1970855,learnblock2,689.2999999523163,img/planet5_left.png,5,Community 1,NA,TRUE,f,f,NA,NA,NA,1,7,"2,5,4,7,14,15,10,9,1,8,12,6,13,3,11"
14968,commdev-image-keyboard-response,620,1972106,learnblock2,671.8000000119209,img/planet14_left.png,14,Community 1,NA,TRUE,f,f,NA,NA,NA,1,7,"2,5,4,7,14,15,10,9,1,8,12,6,13,3,11"
14968,commdev-image-keyboard-response,621,1973358,learnblock2,812.1000000238419,img/planet5_left.png,5,Community 1,NA,TRUE,f,f,NA,NA,NA,1,7,"2,5,4,7,14,15,10,9,1,8,12,6,13,3,11"
14968,commdev-image-keyboard-response,622,1974610,learnblock2,603.3999999761581,img/planet4_left.png,4,Community 1,NA,TRUE,f,f,NA,NA,NA,1,7,"2,5,4,7,14,15,10,9,1,8,12,6,13,3,11"
14968,commdev-image-keyboard-response,623,1975862,learnblock2,543.8000000119209,img/planet7_left.png,7,Community 1,NA,TRUE,f,f,NA,NA,NA,1,7,"2,5,4,7,14,15,10,9,1,8,12,6,13,3,11"
14968,commdev-image-keyboard-response,624,1977115,learnblock2,605.7000000476837,img/planet2_right.png,2,Community 1,NA,TRUE,j,j,NA,NA,NA,1,7,"2,5,4,7,14,15,10,9,1,8,12,6,13,3,11"
14968,commdev-image-keyboard-response,625,1978366,learnblock2,578.6000000238419,img/planet7_right.png,7,Community 1,NA,TRUE,j,j,NA,NA,NA,1,7,"2,5,4,7,14,15,10,9,1,8,12,6,13,3,11"
14968,commdev-image-keyboard-response,626,1979617,learnblock2,872,img/planet5_right.png,5,Community 1,NA,TRUE,j,j,NA,NA,NA,1,7,"2,5,4,7,14,15,10,9,1,8,12,6,13,3,11"
14968,commdev-image-keyboard-response,627,1980868,learnblock2,706.3000000119209,img/planet7_left.png,7,Community 1,NA,TRUE,f,f,NA,NA,NA,1,7,"2,5,4,7,14,15,10,9,1,8,12,6,13,3,11"
14968,commdev-image-keyboard-response,628,1982119,learnblock2,838.8000000119209,img/planet4_left.png,4,Community 1,NA,TRUE,f,f,NA,NA,NA,1,7,"2,5,4,7,14,15,10,9,1,8,12,6,13,3,11"
14968,commdev-image-keyboard-response,629,1983371,learnblock2,970.6000000238419,img/planet2_right.png,2,Community 1,NA,TRUE,j,j,NA,NA,NA,1,7,"2,5,4,7,14,15,10,9,1,8,12,6,13,3,11"
14968,commdev-image-keyboard-response,630,1984624,learnblock2,795.8999999761581,img/planet14_right.png,14,Community 1,NA,TRUE,j,j,NA,NA,NA,1,7,"2,5,4,7,14,15,10,9,1,8,12,6,13,3,11"
14968,commdev-image-keyboard-response,631,1985875,learnblock2,828.0999999642372,img/planet5_left.png,5,Community 1,NA,TRUE,f,f,NA,NA,NA,1,7,"2,5,4,7,14,15,10,9,1,8,12,6,13,3,11"
14968,commdev-image-keyboard-response,632,1987126,learnblock2,709,img/planet14_left.png,14,Community 1,NA,FALSE,j,f,NA,NA,NA,1,7,"2,5,4,7,14,15,10,9,1,8,12,6,13,3,11"
14968,commdev-image-keyboard-response,633,1988379,learnblock2,692.6999999880791,img/planet5_right.png,5,Community 1,NA,TRUE,j,j,NA,NA,NA,1,7,"2,5,4,7,14,15,10,9,1,8,12,6,13,3,11"
14968,commdev-image-keyboard-response,634,1989631,learnblock2,612.5,img/planet2_right.png,2,Community 1,NA,FALSE,f,j,NA,NA,NA,1,7,"2,5,4,7,14,15,10,9,1,8,12,6,13,3,11"
14968,commdev-image-keyboard-response,635,1990883,learnblock2,733.3000000119209,img/planet5_right.png,5,Community 1,NA,TRUE,j,j,NA,NA,NA,1,7,"2,5,4,7,14,15,10,9,1,8,12,6,13,3,11"
14968,commdev-image-keyboard-response,636,1992135,learnblock2,768.2000000476837,img/planet7_left.png,7,Community 1,NA,TRUE,f,f,NA,NA,NA,1,7,"2,5,4,7,14,15,10,9,1,8,12,6,13,3,11"
14968,commdev-image-keyboard-response,637,1993387,learnblock2,1052,img/planet2_left.png,2,Community 1,NA,TRUE,f,f,NA,NA,NA,1,7,"2,5,4,7,14,15,10,9,1,8,12,6,13,3,11"
14968,commdev-image-keyboard-response,638,1994638,learnblock2,1012.3999999761581,img/planet14_right.png,14,Community 1,NA,TRUE,j,j,NA,NA,NA,1,7,"2,5,4,7,14,15,10,9,1,8,12,6,13,3,11"
14968,commdev-image-keyboard-response,639,1995890,learnblock2,997.3999999761581,img/planet12_right.png,12,Community 3,NA,TRUE,j,j,NA,NA,NA,1,7,"2,5,4,7,14,15,10,9,1,8,12,6,13,3,11"
14968,commdev-image-keyboard-response,640,1997141,learnblock2,915.9000000357628,img/planet13_left.png,13,Community 3,NA,TRUE,f,f,NA,NA,NA,1,7,"2,5,4,7,14,15,10,9,1,8,12,6,13,3,11"
14968,commdev-image-keyboard-response,641,1998392,learnblock2,822.1999999880791,img/planet6_right.png,6,Community 3,NA,TRUE,j,j,NA,NA,NA,1,7,"2,5,4,7,14,15,10,9,1,8,12,6,13,3,11"
14968,commdev-image-keyboard-response,642,1999643,learnblock2,621.8000000119209,img/planet13_left.png,13,Community 3,NA,TRUE,f,f,NA,NA,NA,1,7,"2,5,4,7,14,15,10,9,1,8,12,6,13,3,11"
14968,commdev-image-keyboard-response,643,2000895,learnblock2,739.4000000357628,img/planet3_left.png,3,Community 3,NA,TRUE,f,f,NA,NA,NA,1,7,"2,5,4,7,14,15,10,9,1,8,12,6,13,3,11"
14968,commdev-image-keyboard-response,644,2002147,learnblock2,728.6000000238419,img/planet12_right.png,12,Community 3,NA,TRUE,j,j,NA,NA,NA,1,7,"2,5,4,7,14,15,10,9,1,8,12,6,13,3,11"
14968,commdev-image-keyboard-response,645,2003398,learnblock2,845.3999999761581,img/planet14_left.png,14,Community 1,NA,TRUE,f,f,NA,NA,NA,1,7,"2,5,4,7,14,15,10,9,1,8,12,6,13,3,11"
14968,commdev-image-keyboard-response,646,2004662,learnblock2,911.0999999642372,img/planet4_left.png,4,Community 1,NA,TRUE,f,f,NA,NA,NA,1,7,"2,5,4,7,14,15,10,9,1,8,12,6,13,3,11"
14968,commdev-image-keyboard-response,647,2005913,learnblock2,797.6000000238419,img/planet2_right.png,2,Community 1,NA,TRUE,j,j,NA,NA,NA,1,7,"2,5,4,7,14,15,10,9,1,8,12,6,13,3,11"
14968,commdev-image-keyboard-response,648,2007165,learnblock2,871,img/planet7_left.png,7,Community 1,NA,TRUE,f,f,NA,NA,NA,1,7,"2,5,4,7,14,15,10,9,1,8,12,6,13,3,11"
