subject_id,trial_type,trial_index,time_elapsed,block,rt,stimulus,planet,community,response,correct,key_press,learning_correct_response,parse,init_locations,final_locations,browser_interactions,num_comp,planet_map
14676,commdev-instructions,7,41047,NA,2011.8000001907349,"<p>In this game, you are a scientist on board a space shuttle. </p><p> On each mission, you will visit planets all across the universe.</p><img src=""img/controlroom.jpg"" width=300vw>",NA,NA,NA,NA,NA,NA,NA,NA,NA,2,6,"5,10,9,8,6,7,4,11,12,2,3,1,15,14,13"
14676,commdev-instructions,8,43862,NA,730.5999999046326,"<p>Here are a few planets you might see:</p><img src=""img/practice1.png"" width=200vw><img src=""img/practice2.png"" width=200vw><img src=""img/practice3.png"" width=200vw>",NA,NA,NA,NA,NA,NA,NA,NA,NA,2,6,"5,10,9,8,6,7,4,11,12,2,3,1,15,14,13"
14676,commdev-instructions,9,52062,NA,792.3999998569489,"<p>Your job as a scientist is to record which direction the winds are moving on each planet.</p><p>There are two types of wind directions:</p><img src=""img/practice1_left.png"" width=200vw><img src=""img/practice1_right.png"" width=200vw>",NA,NA,NA,NA,NA,NA,NA,NA,NA,2,6,"5,10,9,8,6,7,4,11,12,2,3,1,15,14,13"
14676,commdev-instructions,10,58911,NA,1966.3999998569489,"<p>If the winds are moving this way, press the letter <strong>F</strong> on the keyboard as fast as you can.</p><img src=""img/leftwind.png"" width=250vw>",NA,NA,NA,NA,NA,NA,NA,NA,NA,2,6,"5,10,9,8,6,7,4,11,12,2,3,1,15,14,13"
14676,commdev-instructions,11,65078,NA,1670,"<p>If the winds are moving this way, press the letter <strong>J</strong> on the keyboard as fast as you can.</p><img src=""img/rightwind.png"" width=350vw>",NA,NA,NA,NA,NA,NA,NA,NA,NA,2,6,"5,10,9,8,6,7,4,11,12,2,3,1,15,14,13"
14676,commdev-instructions,12,75022,NA,5512.700000047684,<p>You will have 1 second to respond. Try to respond before the time runs out!,NA,NA,NA,NA,NA,NA,NA,NA,NA,2,6,"5,10,9,8,6,7,4,11,12,2,3,1,15,14,13"
14676,commdev-instructions,13,81214,NA,750,<p>The planets you will visit will look different from each other.</p><p>You should respond <strong>only</strong> based on wind direction.,NA,NA,NA,NA,NA,NA,NA,NA,NA,2,6,"5,10,9,8,6,7,4,11,12,2,3,1,15,14,13"
14676,commdev-instructions,14,88062,NA,1666.7999999523163,"<p> Ready to start the practice round? </p><p> Remember, press <strong>F</strong> or <strong>J</strong> depending on the wind direction.<br><img src=""img/categorize_planet_example.png""",NA,NA,NA,NA,NA,NA,NA,NA,NA,2,6,"5,10,9,8,6,7,4,11,12,2,3,1,15,14,13"
14676,commdev-instructions,26,139870,NA,1099.0999999046326,"<p>Great, now try a short practice mission. </p><p> This time, you will have 1 second to respond and you won't know whether you pressed the right or wrong key for each planet.</p>",NA,NA,NA,NA,NA,NA,NA,NA,NA,2,6,"5,10,9,8,6,7,4,11,12,2,3,1,15,14,13"
14676,commdev-image-keyboard-response,27,141245,practice,861.2000000476837,img/practice3_left.png,NA,Number not found in mappings,NA,TRUE,f,f,NA,NA,NA,2,6,"5,10,9,8,6,7,4,11,12,2,3,1,15,14,13"
14676,commdev-image-keyboard-response,28,142511,practice,726.8000001907349,img/practice2_right.png,NA,Number not found in mappings,NA,TRUE,j,j,NA,NA,NA,2,6,"5,10,9,8,6,7,4,11,12,2,3,1,15,14,13"
14676,commdev-image-keyboard-response,29,143772,practice,659.3999998569489,img/practice1_right.png,NA,Number not found in mappings,NA,FALSE,f,j,NA,NA,NA,2,6,"5,10,9,8,6,7,4,11,12,2,3,1,15,14,13"
14676,commdev-image-keyboard-response,30,145032,practice,794.4000000953674,img/practice2_right.png,NA,Number not found in mappings,NA,TRUE,j,j,NA,NA,NA,2,6,"5,10,9,8,6,7,4,11,12,2,3,1,15,14,13"
14676,commdev-image-keyboard-response,31,146289,practice,670.5,img/practice3_right.png,NA,Number not found in mappings,NA,TRUE,j,j,NA,NA,NA,2,6,"5,10,9,8,6,7,4,11,12,2,3,1,15,14,13"
14676,commdev-image-keyboard-response,32,147548,practice,618.4000000953674,img/practice2_left.png,NA,Number not found in mappings,NA,FALSE,j,f,NA,NA,NA,2,6,"5,10,9,8,6,7,4,11,12,2,3,1,15,14,13"
14676,commdev-image-keyboard-response,33,148818,practice,674.9000000953674,img/practice3_left.png,NA,Number not found in mappings,NA,TRUE,f,f,NA,NA,NA,2,6,"5,10,9,8,6,7,4,11,12,2,3,1,15,14,13"
14676,commdev-image-keyboard-response,34,150077,practice,null,img/practice2_left.png,NA,Number not found in mappings,NA,FALSE,null,f,NA,NA,NA,2,6,"5,10,9,8,6,7,4,11,12,2,3,1,15,14,13"
14676,commdev-instructions,35,160358,NA,723.4000000953674,"<p>Great job with the practice round.</p><p>During real missions, you won't know whether you pressed the right or wrong key for each planet.</p><p>But between missions, we will tell you how you did overall.</p>",NA,NA,NA,NA,NA,NA,NA,NA,NA,2,6,"5,10,9,8,6,7,4,11,12,2,3,1,15,14,13"
14676,commdev-instructions,36,169494,NA,887.5999999046326,<p>Try your best! You will be paid a bonus based on how many correct responses you make!</p><p>Responses that are too slow will not count toward your bonus.</p>,NA,NA,NA,NA,NA,NA,NA,NA,NA,2,6,"5,10,9,8,6,7,4,11,12,2,3,1,15,14,13"
14676,commdev-instructions,37,177550,NA,1851.5,"<p>You are almost ready to start the real game.</p><p> First, we are going to ask you some questions about how the game works.</p>",NA,NA,NA,NA,NA,NA,NA,NA,NA,2,6,"5,10,9,8,6,7,4,11,12,2,3,1,15,14,13"
14676,commdev-instructions,46,258990,NA,3558,"<p> Nice work! It is now time to start the real game.<p></p>You will go on two missions to record wind directions of different planets.<p></p>Each one will take about 5 minutes. You will get to take a break between missions.<p><p> Remember, press <strong>F</strong> or <strong>J</strong> depending on the wind direction. Good luck!<br><img src=""img/categorize_planet_example.png""",NA,NA,NA,NA,NA,NA,NA,NA,NA,2,6,"5,10,9,8,6,7,4,11,12,2,3,1,15,14,13"
14676,commdev-image-keyboard-response,48,265201,learnblock1,933.5999999046326,img/planet6_left.png,6,Community 1,NA,TRUE,f,f,NA,NA,NA,2,6,"5,10,9,8,6,7,4,11,12,2,3,1,15,14,13"
14676,commdev-image-keyboard-response,49,266461,learnblock1,649.5999999046326,img/planet9_left.png,9,Community 1,NA,TRUE,f,f,NA,NA,NA,2,6,"5,10,9,8,6,7,4,11,12,2,3,1,15,14,13"
14676,commdev-image-keyboard-response,50,267717,learnblock1,1048.2999999523163,img/planet8_left.png,8,Community 1,NA,TRUE,f,f,NA,NA,NA,2,6,"5,10,9,8,6,7,4,11,12,2,3,1,15,14,13"
14676,commdev-image-keyboard-response,51,268988,learnblock1,761.2999999523163,img/planet5_left.png,5,Community 1,NA,TRUE,f,f,NA,NA,NA,2,6,"5,10,9,8,6,7,4,11,12,2,3,1,15,14,13"
14676,commdev-image-keyboard-response,52,270247,learnblock1,621,img/planet10_left.png,10,Community 1,NA,TRUE,f,f,NA,NA,NA,2,6,"5,10,9,8,6,7,4,11,12,2,3,1,15,14,13"
14676,commdev-image-keyboard-response,53,271507,learnblock1,641.7999999523163,img/planet5_right.png,5,Community 1,NA,TRUE,j,j,NA,NA,NA,2,6,"5,10,9,8,6,7,4,11,12,2,3,1,15,14,13"
14676,commdev-image-keyboard-response,54,272765,learnblock1,915.8999998569489,img/planet8_right.png,8,Community 1,NA,TRUE,j,j,NA,NA,NA,2,6,"5,10,9,8,6,7,4,11,12,2,3,1,15,14,13"
14676,commdev-image-keyboard-response,55,274034,learnblock1,640.1000001430511,img/planet5_right.png,5,Community 1,NA,TRUE,j,j,NA,NA,NA,2,6,"5,10,9,8,6,7,4,11,12,2,3,1,15,14,13"
14676,commdev-image-keyboard-response,56,275292,learnblock1,611.5,img/planet8_right.png,8,Community 1,NA,TRUE,j,j,NA,NA,NA,2,6,"5,10,9,8,6,7,4,11,12,2,3,1,15,14,13"
14676,commdev-image-keyboard-response,57,276545,learnblock1,587.2999999523163,img/planet7_right.png,7,Community 2,NA,TRUE,j,j,NA,NA,NA,2,6,"5,10,9,8,6,7,4,11,12,2,3,1,15,14,13"
14676,commdev-image-keyboard-response,58,277809,learnblock1,582.8999998569489,img/planet12_right.png,12,Community 2,NA,TRUE,j,j,NA,NA,NA,2,6,"5,10,9,8,6,7,4,11,12,2,3,1,15,14,13"
14676,commdev-image-keyboard-response,59,279073,learnblock1,666.2000000476837,img/planet2_right.png,2,Community 2,NA,TRUE,j,j,NA,NA,NA,2,6,"5,10,9,8,6,7,4,11,12,2,3,1,15,14,13"
14676,commdev-image-keyboard-response,60,280327,learnblock1,616.9000000953674,img/planet12_left.png,12,Community 2,NA,TRUE,f,f,NA,NA,NA,2,6,"5,10,9,8,6,7,4,11,12,2,3,1,15,14,13"
14676,commdev-image-keyboard-response,61,281596,learnblock1,1128.2000000476837,img/planet11_left.png,11,Community 2,NA,TRUE,f,f,NA,NA,NA,2,6,"5,10,9,8,6,7,4,11,12,2,3,1,15,14,13"
14676,commdev-image-keyboard-response,62,282862,learnblock1,741.0999999046326,img/planet1_right.png,1,Community 3,NA,TRUE,j,j,NA,NA,NA,2,6,"5,10,9,8,6,7,4,11,12,2,3,1,15,14,13"
14676,commdev-image-keyboard-response,63,284113,learnblock1,831.3999998569489,img/planet11_right.png,11,Community 2,NA,TRUE,j,j,NA,NA,NA,2,6,"5,10,9,8,6,7,4,11,12,2,3,1,15,14,13"
14676,commdev-image-keyboard-response,64,285383,learnblock1,601.8999998569489,img/planet1_left.png,1,Community 3,NA,TRUE,f,f,NA,NA,NA,2,6,"5,10,9,8,6,7,4,11,12,2,3,1,15,14,13"
14676,commdev-image-keyboard-response,65,286635,learnblock1,690.3999998569489,img/planet13_left.png,13,Community 3,NA,TRUE,f,f,NA,NA,NA,2,6,"5,10,9,8,6,7,4,11,12,2,3,1,15,14,13"
14676,commdev-image-keyboard-response,66,287887,learnblock1,807.3000001907349,img/planet14_left.png,14,Community 3,NA,TRUE,f,f,NA,NA,NA,2,6,"5,10,9,8,6,7,4,11,12,2,3,1,15,14,13"
14676,commdev-image-keyboard-response,67,289139,learnblock1,680.3999998569489,img/planet13_left.png,13,Community 3,NA,TRUE,f,f,NA,NA,NA,2,6,"5,10,9,8,6,7,4,11,12,2,3,1,15,14,13"
14676,commdev-image-keyboard-response,68,290391,learnblock1,599.4000000953674,img/planet14_right.png,14,Community 3,NA,TRUE,j,j,NA,NA,NA,2,6,"5,10,9,8,6,7,4,11,12,2,3,1,15,14,13"
14676,commdev-image-keyboard-response,69,291643,learnblock1,579.7999999523163,img/planet1_left.png,1,Community 3,NA,TRUE,f,f,NA,NA,NA,2,6,"5,10,9,8,6,7,4,11,12,2,3,1,15,14,13"
14676,commdev-image-keyboard-response,70,292895,learnblock1,615.5,img/planet15_left.png,15,Community 3,NA,TRUE,f,f,NA,NA,NA,2,6,"5,10,9,8,6,7,4,11,12,2,3,1,15,14,13"
14676,commdev-image-keyboard-response,71,294148,learnblock1,826.2000000476837,img/planet1_left.png,1,Community 3,NA,TRUE,f,f,NA,NA,NA,2,6,"5,10,9,8,6,7,4,11,12,2,3,1,15,14,13"
14676,commdev-image-keyboard-response,72,295400,learnblock1,609,img/planet11_right.png,11,Community 2,NA,TRUE,j,j,NA,NA,NA,2,6,"5,10,9,8,6,7,4,11,12,2,3,1,15,14,13"
14676,commdev-image-keyboard-response,73,296651,learnblock1,536.2999999523163,img/planet12_left.png,12,Community 2,NA,TRUE,f,f,NA,NA,NA,2,6,"5,10,9,8,6,7,4,11,12,2,3,1,15,14,13"
14676,commdev-image-keyboard-response,74,297903,learnblock1,444.40000009536743,img/planet7_left.png,7,Community 2,NA,FALSE,j,f,NA,NA,NA,2,6,"5,10,9,8,6,7,4,11,12,2,3,1,15,14,13"
14676,commdev-image-keyboard-response,75,299154,learnblock1,1047.5,img/planet8_left.png,8,Community 1,NA,TRUE,f,f,NA,NA,NA,2,6,"5,10,9,8,6,7,4,11,12,2,3,1,15,14,13"
14676,commdev-image-keyboard-response,76,300406,learnblock1,1108.2000000476837,img/planet7_left.png,7,Community 2,NA,TRUE,f,f,NA,NA,NA,2,6,"5,10,9,8,6,7,4,11,12,2,3,1,15,14,13"
14676,commdev-image-keyboard-response,77,301657,learnblock1,712.2999999523163,img/planet12_right.png,12,Community 2,NA,TRUE,j,j,NA,NA,NA,2,6,"5,10,9,8,6,7,4,11,12,2,3,1,15,14,13"
14676,commdev-image-keyboard-response,78,302908,learnblock1,655.7999999523163,img/planet11_right.png,11,Community 2,NA,TRUE,j,j,NA,NA,NA,2,6,"5,10,9,8,6,7,4,11,12,2,3,1,15,14,13"
14676,commdev-image-keyboard-response,79,304160,learnblock1,545.3999998569489,img/planet1_left.png,1,Community 3,NA,TRUE,f,f,NA,NA,NA,2,6,"5,10,9,8,6,7,4,11,12,2,3,1,15,14,13"
14676,commdev-image-keyboard-response,80,305411,learnblock1,570.0999999046326,img/planet14_left.png,14,Community 3,NA,TRUE,f,f,NA,NA,NA,2,6,"5,10,9,8,6,7,4,11,12,2,3,1,15,14,13"
14676,commdev-image-keyboard-response,81,306661,learnblock1,631.2999999523163,img/planet15_left.png,15,Community 3,NA,TRUE,f,f,NA,NA,NA,2,6,"5,10,9,8,6,7,4,11,12,2,3,1,15,14,13"
14676,commdev-image-keyboard-response,82,307913,learnblock1,722.2000000476837,img/planet3_left.png,3,Community 3,NA,TRUE,f,f,NA,NA,NA,2,6,"5,10,9,8,6,7,4,11,12,2,3,1,15,14,13"
14676,commdev-image-keyboard-response,83,309165,learnblock1,657.6000001430511,img/planet6_left.png,6,Community 1,NA,TRUE,f,f,NA,NA,NA,2,6,"5,10,9,8,6,7,4,11,12,2,3,1,15,14,13"
14676,commdev-image-keyboard-response,84,310416,learnblock1,631.3999998569489,img/planet10_right.png,10,Community 1,NA,TRUE,j,j,NA,NA,NA,2,6,"5,10,9,8,6,7,4,11,12,2,3,1,15,14,13"
14676,commdev-image-keyboard-response,85,311668,learnblock1,575.5999999046326,img/planet6_right.png,6,Community 1,NA,TRUE,j,j,NA,NA,NA,2,6,"5,10,9,8,6,7,4,11,12,2,3,1,15,14,13"
14676,commdev-image-keyboard-response,86,312919,learnblock1,509,img/planet5_right.png,5,Community 1,NA,TRUE,j,j,NA,NA,NA,2,6,"5,10,9,8,6,7,4,11,12,2,3,1,15,14,13"
14676,commdev-image-keyboard-response,87,314172,learnblock1,539.2999999523163,img/planet8_left.png,8,Community 1,NA,TRUE,f,f,NA,NA,NA,2,6,"5,10,9,8,6,7,4,11,12,2,3,1,15,14,13"
14676,commdev-image-keyboard-response,88,315424,learnblock1,428.80000019073486,img/planet10_left.png,10,Community 1,NA,TRUE,f,f,NA,NA,NA,2,6,"5,10,9,8,6,7,4,11,12,2,3,1,15,14,13"
14676,commdev-image-keyboard-response,89,316675,learnblock1,570.2999999523163,img/planet8_left.png,8,Community 1,NA,TRUE,f,f,NA,NA,NA,2,6,"5,10,9,8,6,7,4,11,12,2,3,1,15,14,13"
14676,commdev-image-keyboard-response,90,317926,learnblock1,664.7000000476837,img/planet10_right.png,10,Community 1,NA,TRUE,j,j,NA,NA,NA,2,6,"5,10,9,8,6,7,4,11,12,2,3,1,15,14,13"
14676,commdev-image-keyboard-response,91,319178,learnblock1,540.2999999523163,img/planet9_right.png,9,Community 1,NA,TRUE,j,j,NA,NA,NA,2,6,"5,10,9,8,6,7,4,11,12,2,3,1,15,14,13"
14676,commdev-image-keyboard-response,92,320430,learnblock1,524.9000000953674,img/planet6_left.png,6,Community 1,NA,FALSE,j,f,NA,NA,NA,2,6,"5,10,9,8,6,7,4,11,12,2,3,1,15,14,13"
14676,commdev-image-keyboard-response,93,321681,learnblock1,76.09999990463257,img/planet9_right.png,9,Community 1,NA,FALSE,f,j,NA,NA,NA,2,6,"5,10,9,8,6,7,4,11,12,2,3,1,15,14,13"
14676,commdev-image-keyboard-response,94,322932,learnblock1,590,img/planet5_left.png,5,Community 1,NA,TRUE,f,f,NA,NA,NA,2,6,"5,10,9,8,6,7,4,11,12,2,3,1,15,14,13"
14676,commdev-image-keyboard-response,95,324184,learnblock1,715.2999999523163,img/planet6_left.png,6,Community 1,NA,TRUE,f,f,NA,NA,NA,2,6,"5,10,9,8,6,7,4,11,12,2,3,1,15,14,13"
14676,commdev-image-keyboard-response,96,325437,learnblock1,585,img/planet9_right.png,9,Community 1,NA,TRUE,j,j,NA,NA,NA,2,6,"5,10,9,8,6,7,4,11,12,2,3,1,15,14,13"
14676,commdev-image-keyboard-response,97,326688,learnblock1,558.6000001430511,img/planet10_right.png,10,Community 1,NA,TRUE,j,j,NA,NA,NA,2,6,"5,10,9,8,6,7,4,11,12,2,3,1,15,14,13"
14676,commdev-image-keyboard-response,98,327955,learnblock1,658.5,img/planet6_right.png,6,Community 1,NA,TRUE,j,j,NA,NA,NA,2,6,"5,10,9,8,6,7,4,11,12,2,3,1,15,14,13"
14676,commdev-image-keyboard-response,99,329206,learnblock1,529,img/planet10_right.png,10,Community 1,NA,TRUE,j,j,NA,NA,NA,2,6,"5,10,9,8,6,7,4,11,12,2,3,1,15,14,13"
14676,commdev-image-keyboard-response,100,330457,learnblock1,499.90000009536743,img/planet8_left.png,8,Community 1,NA,TRUE,f,f,NA,NA,NA,2,6,"5,10,9,8,6,7,4,11,12,2,3,1,15,14,13"
14676,commdev-image-keyboard-response,101,331718,learnblock1,505.39999985694885,img/planet9_left.png,9,Community 1,NA,TRUE,f,f,NA,NA,NA,2,6,"5,10,9,8,6,7,4,11,12,2,3,1,15,14,13"
14676,commdev-image-keyboard-response,102,332970,learnblock1,659.5999999046326,img/planet5_left.png,5,Community 1,NA,TRUE,f,f,NA,NA,NA,2,6,"5,10,9,8,6,7,4,11,12,2,3,1,15,14,13"
14676,commdev-image-keyboard-response,103,334221,learnblock1,789,img/planet6_left.png,6,Community 1,NA,TRUE,f,f,NA,NA,NA,2,6,"5,10,9,8,6,7,4,11,12,2,3,1,15,14,13"
14676,commdev-image-keyboard-response,104,335473,learnblock1,596.2000000476837,img/planet5_left.png,5,Community 1,NA,TRUE,f,f,NA,NA,NA,2,6,"5,10,9,8,6,7,4,11,12,2,3,1,15,14,13"
14676,commdev-image-keyboard-response,105,336725,learnblock1,567.2000000476837,img/planet6_right.png,6,Community 1,NA,FALSE,f,j,NA,NA,NA,2,6,"5,10,9,8,6,7,4,11,12,2,3,1,15,14,13"
14676,commdev-image-keyboard-response,106,337976,learnblock1,218.70000004768372,img/planet9_left.png,9,Community 1,NA,FALSE,j,f,NA,NA,NA,2,6,"5,10,9,8,6,7,4,11,12,2,3,1,15,14,13"
14676,commdev-image-keyboard-response,107,339228,learnblock1,769.1000001430511,img/planet5_left.png,5,Community 1,NA,TRUE,f,f,NA,NA,NA,2,6,"5,10,9,8,6,7,4,11,12,2,3,1,15,14,13"
14676,commdev-image-keyboard-response,108,340480,learnblock1,688.3000001907349,img/planet6_left.png,6,Community 1,NA,FALSE,j,f,NA,NA,NA,2,6,"5,10,9,8,6,7,4,11,12,2,3,1,15,14,13"
14676,commdev-image-keyboard-response,109,341731,learnblock1,969.5999999046326,img/planet9_left.png,9,Community 1,NA,TRUE,f,f,NA,NA,NA,2,6,"5,10,9,8,6,7,4,11,12,2,3,1,15,14,13"
14676,commdev-image-keyboard-response,110,342983,learnblock1,623.7000000476837,img/planet10_left.png,10,Community 1,NA,TRUE,f,f,NA,NA,NA,2,6,"5,10,9,8,6,7,4,11,12,2,3,1,15,14,13"
14676,commdev-image-keyboard-response,111,344235,learnblock1,587.5,img/planet5_right.png,5,Community 1,NA,TRUE,j,j,NA,NA,NA,2,6,"5,10,9,8,6,7,4,11,12,2,3,1,15,14,13"
14676,commdev-image-keyboard-response,112,345487,learnblock1,585.2000000476837,img/planet6_right.png,6,Community 1,NA,TRUE,j,j,NA,NA,NA,2,6,"5,10,9,8,6,7,4,11,12,2,3,1,15,14,13"
14676,commdev-image-keyboard-response,113,346738,learnblock1,617.9000000953674,img/planet9_right.png,9,Community 1,NA,TRUE,j,j,NA,NA,NA,2,6,"5,10,9,8,6,7,4,11,12,2,3,1,15,14,13"
14676,commdev-image-keyboard-response,114,347989,learnblock1,534.7000000476837,img/planet10_left.png,10,Community 1,NA,TRUE,f,f,NA,NA,NA,2,6,"5,10,9,8,6,7,4,11,12,2,3,1,15,14,13"
14676,commdev-image-keyboard-response,115,349241,learnblock1,725.7999999523163,img/planet9_left.png,9,Community 1,NA,TRUE,f,f,NA,NA,NA,2,6,"5,10,9,8,6,7,4,11,12,2,3,1,15,14,13"
14676,commdev-image-keyboard-response,116,350492,learnblock1,679.2999999523163,img/planet5_right.png,5,Community 1,NA,TRUE,j,j,NA,NA,NA,2,6,"5,10,9,8,6,7,4,11,12,2,3,1,15,14,13"
14676,commdev-image-keyboard-response,117,351744,learnblock1,622.1000001430511,img/planet10_left.png,10,Community 1,NA,TRUE,f,f,NA,NA,NA,2,6,"5,10,9,8,6,7,4,11,12,2,3,1,15,14,13"
14676,commdev-image-keyboard-response,118,352995,learnblock1,680.2000000476837,img/planet6_left.png,6,Community 1,NA,FALSE,j,f,NA,NA,NA,2,6,"5,10,9,8,6,7,4,11,12,2,3,1,15,14,13"
14676,commdev-image-keyboard-response,119,354248,learnblock1,191.79999995231628,img/planet5_right.png,5,Community 1,NA,FALSE,f,j,NA,NA,NA,2,6,"5,10,9,8,6,7,4,11,12,2,3,1,15,14,13"
14676,commdev-image-keyboard-response,120,355509,learnblock1,725.1000001430511,img/planet6_left.png,6,Community 1,NA,TRUE,f,f,NA,NA,NA,2,6,"5,10,9,8,6,7,4,11,12,2,3,1,15,14,13"
14676,commdev-image-keyboard-response,121,356760,learnblock1,657.7000000476837,img/planet9_left.png,9,Community 1,NA,TRUE,f,f,NA,NA,NA,2,6,"5,10,9,8,6,7,4,11,12,2,3,1,15,14,13"
14676,commdev-image-keyboard-response,122,358011,learnblock1,612.2999999523163,img/planet6_right.png,6,Community 1,NA,TRUE,j,j,NA,NA,NA,2,6,"5,10,9,8,6,7,4,11,12,2,3,1,15,14,13"
14676,commdev-image-keyboard-response,123,359263,learnblock1,654.5999999046326,img/planet9_left.png,9,Community 1,NA,TRUE,f,f,NA,NA,NA,2,6,"5,10,9,8,6,7,4,11,12,2,3,1,15,14,13"
14676,commdev-image-keyboard-response,124,360515,learnblock1,628.4000000953674,img/planet6_right.png,6,Community 1,NA,TRUE,j,j,NA,NA,NA,2,6,"5,10,9,8,6,7,4,11,12,2,3,1,15,14,13"
14676,commdev-image-keyboard-response,125,361766,learnblock1,584.2000000476837,img/planet10_left.png,10,Community 1,NA,TRUE,f,f,NA,NA,NA,2,6,"5,10,9,8,6,7,4,11,12,2,3,1,15,14,13"
14676,commdev-image-keyboard-response,126,363018,learnblock1,606.8999998569489,img/planet9_left.png,9,Community 1,NA,TRUE,f,f,NA,NA,NA,2,6,"5,10,9,8,6,7,4,11,12,2,3,1,15,14,13"
14676,commdev-image-keyboard-response,127,364273,learnblock1,540.8000001907349,img/planet6_right.png,6,Community 1,NA,TRUE,j,j,NA,NA,NA,2,6,"5,10,9,8,6,7,4,11,12,2,3,1,15,14,13"
14676,commdev-image-keyboard-response,128,365525,learnblock1,633.7000000476837,img/planet9_right.png,9,Community 1,NA,TRUE,j,j,NA,NA,NA,2,6,"5,10,9,8,6,7,4,11,12,2,3,1,15,14,13"
14676,commdev-image-keyboard-response,129,366777,learnblock1,652.0999999046326,img/planet6_left.png,6,Community 1,NA,TRUE,f,f,NA,NA,NA,2,6,"5,10,9,8,6,7,4,11,12,2,3,1,15,14,13"
14676,commdev-image-keyboard-response,130,368028,learnblock1,618.7000000476837,img/planet10_right.png,10,Community 1,NA,TRUE,j,j,NA,NA,NA,2,6,"5,10,9,8,6,7,4,11,12,2,3,1,15,14,13"
14676,commdev-image-keyboard-response,131,369280,learnblock1,573.2999999523163,img/planet9_left.png,9,Community 1,NA,TRUE,f,f,NA,NA,NA,2,6,"5,10,9,8,6,7,4,11,12,2,3,1,15,14,13"
14676,commdev-image-keyboard-response,132,370531,learnblock1,605.7999999523163,img/planet10_left.png,10,Community 1,NA,TRUE,f,f,NA,NA,NA,2,6,"5,10,9,8,6,7,4,11,12,2,3,1,15,14,13"
14676,commdev-image-keyboard-response,133,371783,learnblock1,615.4000000953674,img/planet6_right.png,6,Community 1,NA,TRUE,j,j,NA,NA,NA,2,6,"5,10,9,8,6,7,4,11,12,2,3,1,15,14,13"
14676,commdev-image-keyboard-response,134,373037,learnblock1,690.7000000476837,img/planet9_right.png,9,Community 1,NA,TRUE,j,j,NA,NA,NA,2,6,"5,10,9,8,6,7,4,11,12,2,3,1,15,14,13"
14676,commdev-image-keyboard-response,135,374289,learnblock1,641.2999999523163,img/planet5_right.png,5,Community 1,NA,TRUE,j,j,NA,NA,NA,2,6,"5,10,9,8,6,7,4,11,12,2,3,1,15,14,13"
14676,commdev-image-keyboard-response,136,375540,learnblock1,633.9000000953674,img/planet9_left.png,9,Community 1,NA,TRUE,f,f,NA,NA,NA,2,6,"5,10,9,8,6,7,4,11,12,2,3,1,15,14,13"
14676,commdev-image-keyboard-response,137,376792,learnblock1,645.3999998569489,img/planet10_left.png,10,Community 1,NA,TRUE,f,f,NA,NA,NA,2,6,"5,10,9,8,6,7,4,11,12,2,3,1,15,14,13"
14676,commdev-image-keyboard-response,138,378043,learnblock1,628,img/planet9_left.png,9,Community 1,NA,TRUE,f,f,NA,NA,NA,2,6,"5,10,9,8,6,7,4,11,12,2,3,1,15,14,13"
14676,commdev-image-keyboard-response,139,379295,learnblock1,716.9000000953674,img/planet8_right.png,8,Community 1,NA,TRUE,j,j,NA,NA,NA,2,6,"5,10,9,8,6,7,4,11,12,2,3,1,15,14,13"
14676,commdev-image-keyboard-response,140,380546,learnblock1,732.3000001907349,img/planet7_right.png,7,Community 2,NA,TRUE,j,j,NA,NA,NA,2,6,"5,10,9,8,6,7,4,11,12,2,3,1,15,14,13"
14676,commdev-image-keyboard-response,141,381797,learnblock1,604.5999999046326,img/planet2_left.png,2,Community 2,NA,TRUE,f,f,NA,NA,NA,2,6,"5,10,9,8,6,7,4,11,12,2,3,1,15,14,13"
14676,commdev-image-keyboard-response,142,383049,learnblock1,863.2999999523163,img/planet4_left.png,4,Community 2,NA,TRUE,f,f,NA,NA,NA,2,6,"5,10,9,8,6,7,4,11,12,2,3,1,15,14,13"
14676,commdev-image-keyboard-response,143,384301,learnblock1,881.2000000476837,img/planet12_left.png,12,Community 2,NA,TRUE,f,f,NA,NA,NA,2,6,"5,10,9,8,6,7,4,11,12,2,3,1,15,14,13"
14676,commdev-image-keyboard-response,144,385552,learnblock1,838.9000000953674,img/planet7_left.png,7,Community 2,NA,TRUE,f,f,NA,NA,NA,2,6,"5,10,9,8,6,7,4,11,12,2,3,1,15,14,13"
14676,commdev-image-keyboard-response,145,386804,learnblock1,691.6000001430511,img/planet2_right.png,2,Community 2,NA,TRUE,j,j,NA,NA,NA,2,6,"5,10,9,8,6,7,4,11,12,2,3,1,15,14,13"
14676,commdev-image-keyboard-response,146,388055,learnblock1,711,img/planet4_left.png,4,Community 2,NA,TRUE,f,f,NA,NA,NA,2,6,"5,10,9,8,6,7,4,11,12,2,3,1,15,14,13"
14676,commdev-image-keyboard-response,147,389317,learnblock1,623.7000000476837,img/planet12_right.png,12,Community 2,NA,TRUE,j,j,NA,NA,NA,2,6,"5,10,9,8,6,7,4,11,12,2,3,1,15,14,13"
14676,commdev-image-keyboard-response,148,390575,learnblock1,694.7000000476837,img/planet2_right.png,2,Community 2,NA,TRUE,j,j,NA,NA,NA,2,6,"5,10,9,8,6,7,4,11,12,2,3,1,15,14,13"
14676,commdev-image-keyboard-response,149,391828,learnblock1,695.4000000953674,img/planet12_left.png,12,Community 2,NA,TRUE,f,f,NA,NA,NA,2,6,"5,10,9,8,6,7,4,11,12,2,3,1,15,14,13"
14676,commdev-image-keyboard-response,150,393079,learnblock1,656,img/planet7_left.png,7,Community 2,NA,TRUE,f,f,NA,NA,NA,2,6,"5,10,9,8,6,7,4,11,12,2,3,1,15,14,13"
14676,commdev-image-keyboard-response,151,394330,learnblock1,559.1000001430511,img/planet12_left.png,12,Community 2,NA,TRUE,f,f,NA,NA,NA,2,6,"5,10,9,8,6,7,4,11,12,2,3,1,15,14,13"
14676,commdev-image-keyboard-response,152,395583,learnblock1,878.1000001430511,img/planet7_left.png,7,Community 2,NA,TRUE,f,f,NA,NA,NA,2,6,"5,10,9,8,6,7,4,11,12,2,3,1,15,14,13"
14676,commdev-image-keyboard-response,153,396837,learnblock1,818.9000000953674,img/planet2_left.png,2,Community 2,NA,TRUE,f,f,NA,NA,NA,2,6,"5,10,9,8,6,7,4,11,12,2,3,1,15,14,13"
14676,commdev-image-keyboard-response,154,398089,learnblock1,836.1000001430511,img/planet7_left.png,7,Community 2,NA,TRUE,f,f,NA,NA,NA,2,6,"5,10,9,8,6,7,4,11,12,2,3,1,15,14,13"
14676,commdev-image-keyboard-response,155,399340,learnblock1,712,img/planet2_left.png,2,Community 2,NA,TRUE,f,f,NA,NA,NA,2,6,"5,10,9,8,6,7,4,11,12,2,3,1,15,14,13"
14676,commdev-image-keyboard-response,156,400592,learnblock1,1009.7000000476837,img/planet12_right.png,12,Community 2,NA,TRUE,j,j,NA,NA,NA,2,6,"5,10,9,8,6,7,4,11,12,2,3,1,15,14,13"
14676,commdev-image-keyboard-response,157,401844,learnblock1,855.0999999046326,img/planet7_left.png,7,Community 2,NA,TRUE,f,f,NA,NA,NA,2,6,"5,10,9,8,6,7,4,11,12,2,3,1,15,14,13"
14676,commdev-image-keyboard-response,158,403096,learnblock1,889.7999999523163,img/planet8_left.png,8,Community 1,NA,TRUE,f,f,NA,NA,NA,2,6,"5,10,9,8,6,7,4,11,12,2,3,1,15,14,13"
14676,commdev-image-keyboard-response,159,404348,learnblock1,762.5999999046326,img/planet10_left.png,10,Community 1,NA,TRUE,f,f,NA,NA,NA,2,6,"5,10,9,8,6,7,4,11,12,2,3,1,15,14,13"
14676,commdev-image-keyboard-response,160,405600,learnblock1,628.5,img/planet8_right.png,8,Community 1,NA,TRUE,j,j,NA,NA,NA,2,6,"5,10,9,8,6,7,4,11,12,2,3,1,15,14,13"
14676,commdev-image-keyboard-response,161,406851,learnblock1,605.7000000476837,img/planet7_right.png,7,Community 2,NA,TRUE,j,j,NA,NA,NA,2,6,"5,10,9,8,6,7,4,11,12,2,3,1,15,14,13"
14676,commdev-image-keyboard-response,162,408103,learnblock1,584.0999999046326,img/planet4_right.png,4,Community 2,NA,TRUE,j,j,NA,NA,NA,2,6,"5,10,9,8,6,7,4,11,12,2,3,1,15,14,13"
14676,commdev-image-keyboard-response,163,409355,learnblock1,553.6000001430511,img/planet2_left.png,2,Community 2,NA,TRUE,f,f,NA,NA,NA,2,6,"5,10,9,8,6,7,4,11,12,2,3,1,15,14,13"
14676,commdev-image-keyboard-response,164,410606,learnblock1,1122.8999998569489,img/planet11_left.png,11,Community 2,NA,TRUE,f,f,NA,NA,NA,2,6,"5,10,9,8,6,7,4,11,12,2,3,1,15,14,13"
14676,commdev-image-keyboard-response,165,411858,learnblock1,627,img/planet4_right.png,4,Community 2,NA,TRUE,j,j,NA,NA,NA,2,6,"5,10,9,8,6,7,4,11,12,2,3,1,15,14,13"
14676,commdev-image-keyboard-response,166,413110,learnblock1,736.0999999046326,img/planet12_right.png,12,Community 2,NA,TRUE,j,j,NA,NA,NA,2,6,"5,10,9,8,6,7,4,11,12,2,3,1,15,14,13"
14676,commdev-image-keyboard-response,167,414362,learnblock1,864.4000000953674,img/planet2_right.png,2,Community 2,NA,TRUE,j,j,NA,NA,NA,2,6,"5,10,9,8,6,7,4,11,12,2,3,1,15,14,13"
14676,commdev-image-keyboard-response,168,415613,learnblock1,803.5,img/planet12_right.png,12,Community 2,NA,TRUE,j,j,NA,NA,NA,2,6,"5,10,9,8,6,7,4,11,12,2,3,1,15,14,13"
14676,commdev-image-keyboard-response,169,416865,learnblock1,704.4000000953674,img/planet11_right.png,11,Community 2,NA,TRUE,j,j,NA,NA,NA,2,6,"5,10,9,8,6,7,4,11,12,2,3,1,15,14,13"
14676,commdev-image-keyboard-response,170,418117,learnblock1,712.2000000476837,img/planet4_left.png,4,Community 2,NA,TRUE,f,f,NA,NA,NA,2,6,"5,10,9,8,6,7,4,11,12,2,3,1,15,14,13"
14676,commdev-image-keyboard-response,171,419369,learnblock1,681.7000000476837,img/planet7_right.png,7,Community 2,NA,TRUE,j,j,NA,NA,NA,2,6,"5,10,9,8,6,7,4,11,12,2,3,1,15,14,13"
14676,commdev-image-keyboard-response,172,420620,learnblock1,985.3000001907349,img/planet8_right.png,8,Community 1,NA,TRUE,j,j,NA,NA,NA,2,6,"5,10,9,8,6,7,4,11,12,2,3,1,15,14,13"
14676,commdev-image-keyboard-response,173,421871,learnblock1,623.7000000476837,img/planet9_left.png,9,Community 1,NA,TRUE,f,f,NA,NA,NA,2,6,"5,10,9,8,6,7,4,11,12,2,3,1,15,14,13"
14676,commdev-image-keyboard-response,174,423131,learnblock1,611.5,img/planet5_right.png,5,Community 1,NA,TRUE,j,j,NA,NA,NA,2,6,"5,10,9,8,6,7,4,11,12,2,3,1,15,14,13"
14676,commdev-image-keyboard-response,175,424383,learnblock1,568.7000000476837,img/planet6_right.png,6,Community 1,NA,TRUE,j,j,NA,NA,NA,2,6,"5,10,9,8,6,7,4,11,12,2,3,1,15,14,13"
14676,commdev-image-keyboard-response,176,425635,learnblock1,556,img/planet9_right.png,9,Community 1,NA,TRUE,j,j,NA,NA,NA,2,6,"5,10,9,8,6,7,4,11,12,2,3,1,15,14,13"
14676,commdev-image-keyboard-response,177,426887,learnblock1,592.4000000953674,img/planet8_left.png,8,Community 1,NA,TRUE,f,f,NA,NA,NA,2,6,"5,10,9,8,6,7,4,11,12,2,3,1,15,14,13"
14676,commdev-image-keyboard-response,178,428139,learnblock1,754.5999999046326,img/planet10_left.png,10,Community 1,NA,TRUE,f,f,NA,NA,NA,2,6,"5,10,9,8,6,7,4,11,12,2,3,1,15,14,13"
14676,commdev-image-keyboard-response,179,429390,learnblock1,547.8999998569489,img/planet6_right.png,6,Community 1,NA,TRUE,j,j,NA,NA,NA,2,6,"5,10,9,8,6,7,4,11,12,2,3,1,15,14,13"
14676,commdev-image-keyboard-response,180,430643,learnblock1,661.7000000476837,img/planet3_left.png,3,Community 3,NA,TRUE,f,f,NA,NA,NA,2,6,"5,10,9,8,6,7,4,11,12,2,3,1,15,14,13"
14676,commdev-image-keyboard-response,181,431894,learnblock1,459.7000000476837,img/planet15_right.png,15,Community 3,NA,TRUE,j,j,NA,NA,NA,2,6,"5,10,9,8,6,7,4,11,12,2,3,1,15,14,13"
14676,commdev-image-keyboard-response,182,433148,learnblock1,583.0999999046326,img/planet14_right.png,14,Community 3,NA,TRUE,j,j,NA,NA,NA,2,6,"5,10,9,8,6,7,4,11,12,2,3,1,15,14,13"
14676,commdev-image-keyboard-response,183,434399,learnblock1,611.5999999046326,img/planet15_left.png,15,Community 3,NA,TRUE,f,f,NA,NA,NA,2,6,"5,10,9,8,6,7,4,11,12,2,3,1,15,14,13"
14676,commdev-image-keyboard-response,184,435651,learnblock1,577.7999999523163,img/planet13_right.png,13,Community 3,NA,TRUE,j,j,NA,NA,NA,2,6,"5,10,9,8,6,7,4,11,12,2,3,1,15,14,13"
14676,commdev-image-keyboard-response,185,436903,learnblock1,715.7000000476837,img/planet3_left.png,3,Community 3,NA,TRUE,f,f,NA,NA,NA,2,6,"5,10,9,8,6,7,4,11,12,2,3,1,15,14,13"
14676,commdev-image-keyboard-response,186,438155,learnblock1,713.6000001430511,img/planet14_left.png,14,Community 3,NA,TRUE,f,f,NA,NA,NA,2,6,"5,10,9,8,6,7,4,11,12,2,3,1,15,14,13"
14676,commdev-image-keyboard-response,187,439407,learnblock1,633,img/planet1_right.png,1,Community 3,NA,TRUE,j,j,NA,NA,NA,2,6,"5,10,9,8,6,7,4,11,12,2,3,1,15,14,13"
14676,commdev-image-keyboard-response,188,440659,learnblock1,727.2000000476837,img/planet13_right.png,13,Community 3,NA,TRUE,j,j,NA,NA,NA,2,6,"5,10,9,8,6,7,4,11,12,2,3,1,15,14,13"
14676,commdev-image-keyboard-response,189,441910,learnblock1,593.0999999046326,img/planet3_right.png,3,Community 3,NA,TRUE,j,j,NA,NA,NA,2,6,"5,10,9,8,6,7,4,11,12,2,3,1,15,14,13"
14676,commdev-image-keyboard-response,190,443163,learnblock1,622.9000000953674,img/planet13_left.png,13,Community 3,NA,TRUE,f,f,NA,NA,NA,2,6,"5,10,9,8,6,7,4,11,12,2,3,1,15,14,13"
14676,commdev-image-keyboard-response,191,444414,learnblock1,805.9000000953674,img/planet1_left.png,1,Community 3,NA,TRUE,f,f,NA,NA,NA,2,6,"5,10,9,8,6,7,4,11,12,2,3,1,15,14,13"
14676,commdev-image-keyboard-response,192,445680,learnblock1,724.3999998569489,img/planet15_right.png,15,Community 3,NA,TRUE,j,j,NA,NA,NA,2,6,"5,10,9,8,6,7,4,11,12,2,3,1,15,14,13"
14676,commdev-image-keyboard-response,193,446932,learnblock1,648.6000001430511,img/planet1_left.png,1,Community 3,NA,TRUE,f,f,NA,NA,NA,2,6,"5,10,9,8,6,7,4,11,12,2,3,1,15,14,13"
14676,commdev-image-keyboard-response,194,448184,learnblock1,540.3999998569489,img/planet15_right.png,15,Community 3,NA,TRUE,j,j,NA,NA,NA,2,6,"5,10,9,8,6,7,4,11,12,2,3,1,15,14,13"
14676,commdev-image-keyboard-response,195,449436,learnblock1,804.5999999046326,img/planet14_left.png,14,Community 3,NA,TRUE,f,f,NA,NA,NA,2,6,"5,10,9,8,6,7,4,11,12,2,3,1,15,14,13"
14676,commdev-image-keyboard-response,196,450687,learnblock1,712.9000000953674,img/planet15_left.png,15,Community 3,NA,TRUE,f,f,NA,NA,NA,2,6,"5,10,9,8,6,7,4,11,12,2,3,1,15,14,13"
14676,commdev-image-keyboard-response,197,451939,learnblock1,727.4000000953674,img/planet13_right.png,13,Community 3,NA,TRUE,j,j,NA,NA,NA,2,6,"5,10,9,8,6,7,4,11,12,2,3,1,15,14,13"
14676,commdev-image-keyboard-response,198,453191,learnblock1,694.2999999523163,img/planet3_left.png,3,Community 3,NA,TRUE,f,f,NA,NA,NA,2,6,"5,10,9,8,6,7,4,11,12,2,3,1,15,14,13"
14676,commdev-image-keyboard-response,199,454443,learnblock1,943.7999999523163,img/planet14_left.png,14,Community 3,NA,FALSE,j,f,NA,NA,NA,2,6,"5,10,9,8,6,7,4,11,12,2,3,1,15,14,13"
14676,commdev-image-keyboard-response,200,455694,learnblock1,940.7000000476837,img/planet3_right.png,3,Community 3,NA,TRUE,j,j,NA,NA,NA,2,6,"5,10,9,8,6,7,4,11,12,2,3,1,15,14,13"
14676,commdev-image-keyboard-response,201,456945,learnblock1,911,img/planet6_right.png,6,Community 1,NA,TRUE,j,j,NA,NA,NA,2,6,"5,10,9,8,6,7,4,11,12,2,3,1,15,14,13"
14676,commdev-image-keyboard-response,202,458196,learnblock1,610.7000000476837,img/planet5_right.png,5,Community 1,NA,TRUE,j,j,NA,NA,NA,2,6,"5,10,9,8,6,7,4,11,12,2,3,1,15,14,13"
14676,commdev-image-keyboard-response,203,459448,learnblock1,542.2999999523163,img/planet10_right.png,10,Community 1,NA,TRUE,j,j,NA,NA,NA,2,6,"5,10,9,8,6,7,4,11,12,2,3,1,15,14,13"
14676,commdev-image-keyboard-response,204,460700,learnblock1,663.4000000953674,img/planet5_left.png,5,Community 1,NA,FALSE,j,f,NA,NA,NA,2,6,"5,10,9,8,6,7,4,11,12,2,3,1,15,14,13"
14676,commdev-image-keyboard-response,205,461952,learnblock1,786.8999998569489,img/planet8_right.png,8,Community 1,NA,TRUE,j,j,NA,NA,NA,2,6,"5,10,9,8,6,7,4,11,12,2,3,1,15,14,13"
14676,commdev-image-keyboard-response,206,463204,learnblock1,726.7999999523163,img/planet10_left.png,10,Community 1,NA,TRUE,f,f,NA,NA,NA,2,6,"5,10,9,8,6,7,4,11,12,2,3,1,15,14,13"
14676,commdev-image-keyboard-response,207,464456,learnblock1,682.5,img/planet9_left.png,9,Community 1,NA,TRUE,f,f,NA,NA,NA,2,6,"5,10,9,8,6,7,4,11,12,2,3,1,15,14,13"
14676,commdev-image-keyboard-response,208,465707,learnblock1,962,img/planet6_left.png,6,Community 1,NA,TRUE,f,f,NA,NA,NA,2,6,"5,10,9,8,6,7,4,11,12,2,3,1,15,14,13"
14676,commdev-image-keyboard-response,209,466959,learnblock1,712.7000000476837,img/planet5_right.png,5,Community 1,NA,TRUE,j,j,NA,NA,NA,2,6,"5,10,9,8,6,7,4,11,12,2,3,1,15,14,13"
14676,commdev-image-keyboard-response,210,468212,learnblock1,875.5999999046326,img/planet8_left.png,8,Community 1,NA,TRUE,f,f,NA,NA,NA,2,6,"5,10,9,8,6,7,4,11,12,2,3,1,15,14,13"
14676,commdev-image-keyboard-response,211,469464,learnblock1,640.8999998569489,img/planet5_right.png,5,Community 1,NA,TRUE,j,j,NA,NA,NA,2,6,"5,10,9,8,6,7,4,11,12,2,3,1,15,14,13"
14676,commdev-image-keyboard-response,212,470716,learnblock1,552.2000000476837,img/planet6_right.png,6,Community 1,NA,TRUE,j,j,NA,NA,NA,2,6,"5,10,9,8,6,7,4,11,12,2,3,1,15,14,13"
14676,commdev-image-keyboard-response,213,471968,learnblock1,637.2999999523163,img/planet10_left.png,10,Community 1,NA,TRUE,f,f,NA,NA,NA,2,6,"5,10,9,8,6,7,4,11,12,2,3,1,15,14,13"
14676,commdev-image-keyboard-response,214,473220,learnblock1,637,img/planet9_right.png,9,Community 1,NA,TRUE,j,j,NA,NA,NA,2,6,"5,10,9,8,6,7,4,11,12,2,3,1,15,14,13"
14676,commdev-image-keyboard-response,215,474471,learnblock1,707.5,img/planet5_left.png,5,Community 1,NA,TRUE,f,f,NA,NA,NA,2,6,"5,10,9,8,6,7,4,11,12,2,3,1,15,14,13"
14676,commdev-image-keyboard-response,216,475722,learnblock1,605.0999999046326,img/planet10_right.png,10,Community 1,NA,TRUE,j,j,NA,NA,NA,2,6,"5,10,9,8,6,7,4,11,12,2,3,1,15,14,13"
14676,commdev-image-keyboard-response,217,476974,learnblock1,749.7999999523163,img/planet8_right.png,8,Community 1,NA,TRUE,j,j,NA,NA,NA,2,6,"5,10,9,8,6,7,4,11,12,2,3,1,15,14,13"
14676,commdev-image-keyboard-response,218,478226,learnblock1,574.9000000953674,img/planet10_right.png,10,Community 1,NA,TRUE,j,j,NA,NA,NA,2,6,"5,10,9,8,6,7,4,11,12,2,3,1,15,14,13"
14676,commdev-image-keyboard-response,219,479478,learnblock1,675,img/planet6_left.png,6,Community 1,NA,TRUE,f,f,NA,NA,NA,2,6,"5,10,9,8,6,7,4,11,12,2,3,1,15,14,13"
14676,commdev-image-keyboard-response,220,480730,learnblock1,568.0999999046326,img/planet9_right.png,9,Community 1,NA,TRUE,j,j,NA,NA,NA,2,6,"5,10,9,8,6,7,4,11,12,2,3,1,15,14,13"
14676,commdev-image-keyboard-response,221,481982,learnblock1,523.0999999046326,img/planet10_right.png,10,Community 1,NA,TRUE,j,j,NA,NA,NA,2,6,"5,10,9,8,6,7,4,11,12,2,3,1,15,14,13"
14676,commdev-image-keyboard-response,222,483234,learnblock1,571.0999999046326,img/planet8_left.png,8,Community 1,NA,TRUE,f,f,NA,NA,NA,2,6,"5,10,9,8,6,7,4,11,12,2,3,1,15,14,13"
14676,commdev-image-keyboard-response,223,484493,learnblock1,558.5999999046326,img/planet9_left.png,9,Community 1,NA,TRUE,f,f,NA,NA,NA,2,6,"5,10,9,8,6,7,4,11,12,2,3,1,15,14,13"
14676,commdev-image-keyboard-response,224,485745,learnblock1,688.5999999046326,img/planet5_left.png,5,Community 1,NA,TRUE,f,f,NA,NA,NA,2,6,"5,10,9,8,6,7,4,11,12,2,3,1,15,14,13"
14676,commdev-image-keyboard-response,225,486996,learnblock1,767.2000000476837,img/planet6_left.png,6,Community 1,NA,TRUE,f,f,NA,NA,NA,2,6,"5,10,9,8,6,7,4,11,12,2,3,1,15,14,13"
14676,commdev-image-keyboard-response,226,488248,learnblock1,706,img/planet5_right.png,5,Community 1,NA,TRUE,j,j,NA,NA,NA,2,6,"5,10,9,8,6,7,4,11,12,2,3,1,15,14,13"
14676,commdev-image-keyboard-response,227,489500,learnblock1,577.0999999046326,img/planet10_right.png,10,Community 1,NA,TRUE,j,j,NA,NA,NA,2,6,"5,10,9,8,6,7,4,11,12,2,3,1,15,14,13"
14676,commdev-image-keyboard-response,228,490752,learnblock1,541.7999999523163,img/planet5_right.png,5,Community 1,NA,TRUE,j,j,NA,NA,NA,2,6,"5,10,9,8,6,7,4,11,12,2,3,1,15,14,13"
14676,commdev-image-keyboard-response,229,492003,learnblock1,575.4000000953674,img/planet6_left.png,6,Community 1,NA,TRUE,f,f,NA,NA,NA,2,6,"5,10,9,8,6,7,4,11,12,2,3,1,15,14,13"
14676,commdev-image-keyboard-response,230,493256,learnblock1,675.3999998569489,img/planet9_right.png,9,Community 1,NA,TRUE,j,j,NA,NA,NA,2,6,"5,10,9,8,6,7,4,11,12,2,3,1,15,14,13"
14676,commdev-image-keyboard-response,231,494507,learnblock1,655.5,img/planet10_left.png,10,Community 1,NA,TRUE,f,f,NA,NA,NA,2,6,"5,10,9,8,6,7,4,11,12,2,3,1,15,14,13"
14676,commdev-image-keyboard-response,232,495759,learnblock1,582.7000000476837,img/planet5_right.png,5,Community 1,NA,TRUE,j,j,NA,NA,NA,2,6,"5,10,9,8,6,7,4,11,12,2,3,1,15,14,13"
14676,commdev-image-keyboard-response,233,497011,learnblock1,841.0999999046326,img/planet10_right.png,10,Community 1,NA,TRUE,j,j,NA,NA,NA,2,6,"5,10,9,8,6,7,4,11,12,2,3,1,15,14,13"
14676,commdev-image-keyboard-response,234,498262,learnblock1,693.9000000953674,img/planet6_left.png,6,Community 1,NA,TRUE,f,f,NA,NA,NA,2,6,"5,10,9,8,6,7,4,11,12,2,3,1,15,14,13"
14676,commdev-image-keyboard-response,235,499514,learnblock1,622.7999999523163,img/planet9_left.png,9,Community 1,NA,FALSE,j,f,NA,NA,NA,2,6,"5,10,9,8,6,7,4,11,12,2,3,1,15,14,13"
14676,commdev-image-keyboard-response,236,500768,learnblock1,914.6999998092651,img/planet8_right.png,8,Community 1,NA,TRUE,j,j,NA,NA,NA,2,6,"5,10,9,8,6,7,4,11,12,2,3,1,15,14,13"
14676,commdev-image-keyboard-response,237,502019,learnblock1,741.7999999523163,img/planet10_left.png,10,Community 1,NA,TRUE,f,f,NA,NA,NA,2,6,"5,10,9,8,6,7,4,11,12,2,3,1,15,14,13"
14676,commdev-image-keyboard-response,238,503270,learnblock1,799.0999999046326,img/planet5_left.png,5,Community 1,NA,TRUE,f,f,NA,NA,NA,2,6,"5,10,9,8,6,7,4,11,12,2,3,1,15,14,13"
14676,commdev-image-keyboard-response,239,504522,learnblock1,636,img/planet10_left.png,10,Community 1,NA,TRUE,f,f,NA,NA,NA,2,6,"5,10,9,8,6,7,4,11,12,2,3,1,15,14,13"
14676,commdev-image-keyboard-response,240,505773,learnblock1,729.7000000476837,img/planet5_right.png,5,Community 1,NA,TRUE,j,j,NA,NA,NA,2,6,"5,10,9,8,6,7,4,11,12,2,3,1,15,14,13"
14676,commdev-image-keyboard-response,241,507024,learnblock1,791.0999999046326,img/planet9_left.png,9,Community 1,NA,TRUE,f,f,NA,NA,NA,2,6,"5,10,9,8,6,7,4,11,12,2,3,1,15,14,13"
14676,commdev-image-keyboard-response,242,508276,learnblock1,718.0999999046326,img/planet10_left.png,10,Community 1,NA,TRUE,f,f,NA,NA,NA,2,6,"5,10,9,8,6,7,4,11,12,2,3,1,15,14,13"
14676,commdev-image-keyboard-response,243,509527,learnblock1,687,img/planet9_left.png,9,Community 1,NA,TRUE,f,f,NA,NA,NA,2,6,"5,10,9,8,6,7,4,11,12,2,3,1,15,14,13"
14676,commdev-image-keyboard-response,244,510779,learnblock1,847.2000000476837,img/planet6_left.png,6,Community 1,NA,TRUE,f,f,NA,NA,NA,2,6,"5,10,9,8,6,7,4,11,12,2,3,1,15,14,13"
14676,commdev-image-keyboard-response,245,512031,learnblock1,874.0999999046326,img/planet9_right.png,9,Community 1,NA,TRUE,j,j,NA,NA,NA,2,6,"5,10,9,8,6,7,4,11,12,2,3,1,15,14,13"
14676,commdev-image-keyboard-response,246,513283,learnblock1,661.0999999046326,img/planet10_right.png,10,Community 1,NA,TRUE,j,j,NA,NA,NA,2,6,"5,10,9,8,6,7,4,11,12,2,3,1,15,14,13"
14676,commdev-image-keyboard-response,247,514534,learnblock1,589.9000000953674,img/planet9_left.png,9,Community 1,NA,TRUE,f,f,NA,NA,NA,2,6,"5,10,9,8,6,7,4,11,12,2,3,1,15,14,13"
14676,commdev-image-keyboard-response,248,515785,learnblock1,481.60000014305115,img/planet10_right.png,10,Community 1,NA,TRUE,j,j,NA,NA,NA,2,6,"5,10,9,8,6,7,4,11,12,2,3,1,15,14,13"
14676,commdev-image-keyboard-response,249,517037,learnblock1,628.8999998569489,img/planet9_right.png,9,Community 1,NA,TRUE,j,j,NA,NA,NA,2,6,"5,10,9,8,6,7,4,11,12,2,3,1,15,14,13"
14676,commdev-image-keyboard-response,250,518289,learnblock1,660.5999999046326,img/planet5_right.png,5,Community 1,NA,TRUE,j,j,NA,NA,NA,2,6,"5,10,9,8,6,7,4,11,12,2,3,1,15,14,13"
14676,commdev-image-keyboard-response,251,519541,learnblock1,672.3000001907349,img/planet10_left.png,10,Community 1,NA,TRUE,f,f,NA,NA,NA,2,6,"5,10,9,8,6,7,4,11,12,2,3,1,15,14,13"
14676,commdev-image-keyboard-response,252,520793,learnblock1,989.5,img/planet9_right.png,9,Community 1,NA,TRUE,j,j,NA,NA,NA,2,6,"5,10,9,8,6,7,4,11,12,2,3,1,15,14,13"
14676,commdev-image-keyboard-response,253,522044,learnblock1,815.1000001430511,img/planet6_left.png,6,Community 1,NA,TRUE,f,f,NA,NA,NA,2,6,"5,10,9,8,6,7,4,11,12,2,3,1,15,14,13"
14676,commdev-image-keyboard-response,254,523305,learnblock1,683.5999999046326,img/planet3_right.png,3,Community 3,NA,TRUE,j,j,NA,NA,NA,2,6,"5,10,9,8,6,7,4,11,12,2,3,1,15,14,13"
14676,commdev-image-keyboard-response,255,524561,learnblock1,628.2999999523163,img/planet15_right.png,15,Community 3,NA,TRUE,j,j,NA,NA,NA,2,6,"5,10,9,8,6,7,4,11,12,2,3,1,15,14,13"
14676,commdev-image-keyboard-response,256,525813,learnblock1,745.5999999046326,img/planet14_left.png,14,Community 3,NA,TRUE,f,f,NA,NA,NA,2,6,"5,10,9,8,6,7,4,11,12,2,3,1,15,14,13"
14676,commdev-image-keyboard-response,257,527065,learnblock1,726.6000001430511,img/planet1_right.png,1,Community 3,NA,TRUE,j,j,NA,NA,NA,2,6,"5,10,9,8,6,7,4,11,12,2,3,1,15,14,13"
14676,commdev-image-keyboard-response,258,528317,learnblock1,637.5,img/planet14_left.png,14,Community 3,NA,TRUE,f,f,NA,NA,NA,2,6,"5,10,9,8,6,7,4,11,12,2,3,1,15,14,13"
14676,commdev-image-keyboard-response,259,529568,learnblock1,516.7999999523163,img/planet3_right.png,3,Community 3,NA,TRUE,j,j,NA,NA,NA,2,6,"5,10,9,8,6,7,4,11,12,2,3,1,15,14,13"
14676,commdev-image-keyboard-response,260,530821,learnblock1,593.7000000476837,img/planet15_left.png,15,Community 3,NA,TRUE,f,f,NA,NA,NA,2,6,"5,10,9,8,6,7,4,11,12,2,3,1,15,14,13"
14676,commdev-image-keyboard-response,261,532073,learnblock1,636.9000000953674,img/planet3_left.png,3,Community 3,NA,TRUE,f,f,NA,NA,NA,2,6,"5,10,9,8,6,7,4,11,12,2,3,1,15,14,13"
14676,commdev-image-keyboard-response,262,533325,learnblock1,562.4000000953674,img/planet13_right.png,13,Community 3,NA,TRUE,j,j,NA,NA,NA,2,6,"5,10,9,8,6,7,4,11,12,2,3,1,15,14,13"
14676,commdev-image-keyboard-response,263,534576,learnblock1,549.0999999046326,img/planet15_right.png,15,Community 3,NA,TRUE,j,j,NA,NA,NA,2,6,"5,10,9,8,6,7,4,11,12,2,3,1,15,14,13"
14676,commdev-image-keyboard-response,264,535828,learnblock1,707.5,img/planet14_left.png,14,Community 3,NA,TRUE,f,f,NA,NA,NA,2,6,"5,10,9,8,6,7,4,11,12,2,3,1,15,14,13"
14676,commdev-image-keyboard-response,265,537080,learnblock1,695.4000000953674,img/planet15_left.png,15,Community 3,NA,TRUE,f,f,NA,NA,NA,2,6,"5,10,9,8,6,7,4,11,12,2,3,1,15,14,13"
14676,commdev-image-keyboard-response,266,538333,learnblock1,651.2000000476837,img/planet1_left.png,1,Community 3,NA,TRUE,f,f,NA,NA,NA,2,6,"5,10,9,8,6,7,4,11,12,2,3,1,15,14,13"
14676,commdev-image-keyboard-response,267,539585,learnblock1,759.8999998569489,img/planet15_right.png,15,Community 3,NA,TRUE,j,j,NA,NA,NA,2,6,"5,10,9,8,6,7,4,11,12,2,3,1,15,14,13"
14676,commdev-image-keyboard-response,268,540837,learnblock1,764.6000001430511,img/planet1_left.png,1,Community 3,NA,TRUE,f,f,NA,NA,NA,2,6,"5,10,9,8,6,7,4,11,12,2,3,1,15,14,13"
14676,commdev-image-keyboard-response,269,542097,learnblock1,436.80000019073486,img/planet14_right.png,14,Community 3,NA,TRUE,j,j,NA,NA,NA,2,6,"5,10,9,8,6,7,4,11,12,2,3,1,15,14,13"
14676,commdev-image-keyboard-response,270,543349,learnblock1,559.8999998569489,img/planet13_right.png,13,Community 3,NA,TRUE,j,j,NA,NA,NA,2,6,"5,10,9,8,6,7,4,11,12,2,3,1,15,14,13"
14676,commdev-image-keyboard-response,271,544615,learnblock1,719,img/planet15_left.png,15,Community 3,NA,TRUE,f,f,NA,NA,NA,2,6,"5,10,9,8,6,7,4,11,12,2,3,1,15,14,13"
14676,commdev-image-keyboard-response,272,545867,learnblock1,732.5999999046326,img/planet13_right.png,13,Community 3,NA,TRUE,j,j,NA,NA,NA,2,6,"5,10,9,8,6,7,4,11,12,2,3,1,15,14,13"
14676,commdev-image-keyboard-response,273,547119,learnblock1,665.3999998569489,img/planet14_right.png,14,Community 3,NA,TRUE,j,j,NA,NA,NA,2,6,"5,10,9,8,6,7,4,11,12,2,3,1,15,14,13"
14676,commdev-image-keyboard-response,274,548371,learnblock1,604.4000000953674,img/planet15_left.png,15,Community 3,NA,TRUE,f,f,NA,NA,NA,2,6,"5,10,9,8,6,7,4,11,12,2,3,1,15,14,13"
14676,commdev-image-keyboard-response,275,549622,learnblock1,433.59999990463257,img/planet14_right.png,14,Community 3,NA,TRUE,j,j,NA,NA,NA,2,6,"5,10,9,8,6,7,4,11,12,2,3,1,15,14,13"
14676,commdev-image-keyboard-response,276,550874,learnblock1,532.5999999046326,img/planet13_right.png,13,Community 3,NA,TRUE,j,j,NA,NA,NA,2,6,"5,10,9,8,6,7,4,11,12,2,3,1,15,14,13"
14676,commdev-image-keyboard-response,277,552129,learnblock1,578.1999998092651,img/planet15_right.png,15,Community 3,NA,TRUE,j,j,NA,NA,NA,2,6,"5,10,9,8,6,7,4,11,12,2,3,1,15,14,13"
14676,commdev-image-keyboard-response,278,553381,learnblock1,526,img/planet1_left.png,1,Community 3,NA,TRUE,f,f,NA,NA,NA,2,6,"5,10,9,8,6,7,4,11,12,2,3,1,15,14,13"
14676,commdev-image-keyboard-response,279,554633,learnblock1,859.5,img/planet14_left.png,14,Community 3,NA,TRUE,f,f,NA,NA,NA,2,6,"5,10,9,8,6,7,4,11,12,2,3,1,15,14,13"
14676,commdev-image-keyboard-response,280,555885,learnblock1,842.5,img/planet1_right.png,1,Community 3,NA,TRUE,j,j,NA,NA,NA,2,6,"5,10,9,8,6,7,4,11,12,2,3,1,15,14,13"
14676,commdev-image-keyboard-response,281,557136,learnblock1,780.4000000953674,img/planet15_left.png,15,Community 3,NA,TRUE,f,f,NA,NA,NA,2,6,"5,10,9,8,6,7,4,11,12,2,3,1,15,14,13"
14676,commdev-image-keyboard-response,282,558388,learnblock1,624.1000001430511,img/planet1_right.png,1,Community 3,NA,TRUE,j,j,NA,NA,NA,2,6,"5,10,9,8,6,7,4,11,12,2,3,1,15,14,13"
14676,commdev-image-keyboard-response,283,559640,learnblock1,523.7000000476837,img/planet11_right.png,11,Community 2,NA,TRUE,j,j,NA,NA,NA,2,6,"5,10,9,8,6,7,4,11,12,2,3,1,15,14,13"
14676,commdev-image-keyboard-response,284,560893,learnblock1,479.60000014305115,img/planet2_right.png,2,Community 2,NA,TRUE,j,j,NA,NA,NA,2,6,"5,10,9,8,6,7,4,11,12,2,3,1,15,14,13"
14676,commdev-image-keyboard-response,285,562144,learnblock1,780.0999999046326,img/planet4_left.png,4,Community 2,NA,TRUE,f,f,NA,NA,NA,2,6,"5,10,9,8,6,7,4,11,12,2,3,1,15,14,13"
14676,commdev-image-keyboard-response,286,563396,learnblock1,814.7999999523163,img/planet11_left.png,11,Community 2,NA,TRUE,f,f,NA,NA,NA,2,6,"5,10,9,8,6,7,4,11,12,2,3,1,15,14,13"
14676,commdev-image-keyboard-response,287,564648,learnblock1,801.1999998092651,img/planet4_left.png,4,Community 2,NA,TRUE,f,f,NA,NA,NA,2,6,"5,10,9,8,6,7,4,11,12,2,3,1,15,14,13"
14676,commdev-image-keyboard-response,288,565900,learnblock1,612,img/planet2_left.png,2,Community 2,NA,TRUE,f,f,NA,NA,NA,2,6,"5,10,9,8,6,7,4,11,12,2,3,1,15,14,13"
14676,commdev-image-keyboard-response,289,567152,learnblock1,588.2000000476837,img/planet4_right.png,4,Community 2,NA,TRUE,j,j,NA,NA,NA,2,6,"5,10,9,8,6,7,4,11,12,2,3,1,15,14,13"
14676,commdev-image-keyboard-response,290,568405,learnblock1,462.7999999523163,img/planet2_right.png,2,Community 2,NA,TRUE,j,j,NA,NA,NA,2,6,"5,10,9,8,6,7,4,11,12,2,3,1,15,14,13"
14676,commdev-image-keyboard-response,291,569657,learnblock1,593.0999999046326,img/planet4_right.png,4,Community 2,NA,TRUE,j,j,NA,NA,NA,2,6,"5,10,9,8,6,7,4,11,12,2,3,1,15,14,13"
14676,commdev-image-keyboard-response,292,570909,learnblock1,587.6000001430511,img/planet2_left.png,2,Community 2,NA,TRUE,f,f,NA,NA,NA,2,6,"5,10,9,8,6,7,4,11,12,2,3,1,15,14,13"
14676,commdev-image-keyboard-response,293,572161,learnblock1,951.8000001907349,img/planet4_left.png,4,Community 2,NA,TRUE,f,f,NA,NA,NA,2,6,"5,10,9,8,6,7,4,11,12,2,3,1,15,14,13"
14676,commdev-image-keyboard-response,294,573412,learnblock1,1022.9000000953674,img/planet12_left.png,12,Community 2,NA,TRUE,f,f,NA,NA,NA,2,6,"5,10,9,8,6,7,4,11,12,2,3,1,15,14,13"
14676,commdev-image-keyboard-response,295,574665,learnblock1,754.9000000953674,img/planet2_right.png,2,Community 2,NA,TRUE,j,j,NA,NA,NA,2,6,"5,10,9,8,6,7,4,11,12,2,3,1,15,14,13"
14676,commdev-image-keyboard-response,296,575917,learnblock1,769.5999999046326,img/planet4_left.png,4,Community 2,NA,FALSE,j,f,NA,NA,NA,2,6,"5,10,9,8,6,7,4,11,12,2,3,1,15,14,13"
14676,commdev-image-keyboard-response,297,577168,learnblock1,655.7999999523163,img/planet2_right.png,2,Community 2,NA,FALSE,f,j,NA,NA,NA,2,6,"5,10,9,8,6,7,4,11,12,2,3,1,15,14,13"
14676,commdev-image-keyboard-response,298,578420,learnblock1,847.1000001430511,img/planet4_left.png,4,Community 2,NA,TRUE,f,f,NA,NA,NA,2,6,"5,10,9,8,6,7,4,11,12,2,3,1,15,14,13"
14676,commdev-image-keyboard-response,299,579671,learnblock1,671.1000001430511,img/planet7_right.png,7,Community 2,NA,TRUE,j,j,NA,NA,NA,2,6,"5,10,9,8,6,7,4,11,12,2,3,1,15,14,13"
14676,commdev-image-keyboard-response,300,580923,learnblock1,867.4000000953674,img/planet12_left.png,12,Community 2,NA,TRUE,f,f,NA,NA,NA,2,6,"5,10,9,8,6,7,4,11,12,2,3,1,15,14,13"
14676,commdev-image-keyboard-response,301,582175,learnblock1,883.7000000476837,img/planet11_right.png,11,Community 2,NA,TRUE,j,j,NA,NA,NA,2,6,"5,10,9,8,6,7,4,11,12,2,3,1,15,14,13"
14676,commdev-image-keyboard-response,302,583427,learnblock1,730.3000001907349,img/planet4_right.png,4,Community 2,NA,TRUE,j,j,NA,NA,NA,2,6,"5,10,9,8,6,7,4,11,12,2,3,1,15,14,13"
14676,commdev-image-keyboard-response,303,584693,learnblock1,672.2000000476837,img/planet7_right.png,7,Community 2,NA,TRUE,j,j,NA,NA,NA,2,6,"5,10,9,8,6,7,4,11,12,2,3,1,15,14,13"
14676,commdev-image-keyboard-response,304,585944,learnblock1,623.6000001430511,img/planet8_left.png,8,Community 1,NA,TRUE,f,f,NA,NA,NA,2,6,"5,10,9,8,6,7,4,11,12,2,3,1,15,14,13"
14676,commdev-image-keyboard-response,305,587196,learnblock1,627,img/planet10_left.png,10,Community 1,NA,TRUE,f,f,NA,NA,NA,2,6,"5,10,9,8,6,7,4,11,12,2,3,1,15,14,13"
14676,commdev-image-keyboard-response,306,588449,learnblock1,501.80000019073486,img/planet5_left.png,5,Community 1,NA,TRUE,f,f,NA,NA,NA,2,6,"5,10,9,8,6,7,4,11,12,2,3,1,15,14,13"
14676,commdev-image-keyboard-response,307,589700,learnblock1,782.7999999523163,img/planet9_left.png,9,Community 1,NA,TRUE,f,f,NA,NA,NA,2,6,"5,10,9,8,6,7,4,11,12,2,3,1,15,14,13"
14676,commdev-image-keyboard-response,308,590952,learnblock1,710.3999998569489,img/planet8_right.png,8,Community 1,NA,TRUE,j,j,NA,NA,NA,2,6,"5,10,9,8,6,7,4,11,12,2,3,1,15,14,13"
14676,commdev-image-keyboard-response,309,592204,learnblock1,546.2000000476837,img/planet10_left.png,10,Community 1,NA,TRUE,f,f,NA,NA,NA,2,6,"5,10,9,8,6,7,4,11,12,2,3,1,15,14,13"
14676,commdev-image-keyboard-response,310,593456,learnblock1,624.7999999523163,img/planet8_left.png,8,Community 1,NA,TRUE,f,f,NA,NA,NA,2,6,"5,10,9,8,6,7,4,11,12,2,3,1,15,14,13"
14676,commdev-image-keyboard-response,311,594708,learnblock1,473.2000000476837,img/planet7_right.png,7,Community 2,NA,FALSE,f,j,NA,NA,NA,2,6,"5,10,9,8,6,7,4,11,12,2,3,1,15,14,13"
14676,commdev-image-keyboard-response,312,595960,learnblock1,693.9000000953674,img/planet12_left.png,12,Community 2,NA,TRUE,f,f,NA,NA,NA,2,6,"5,10,9,8,6,7,4,11,12,2,3,1,15,14,13"
14676,commdev-image-keyboard-response,313,597211,learnblock1,965.5,img/planet11_left.png,11,Community 2,NA,TRUE,f,f,NA,NA,NA,2,6,"5,10,9,8,6,7,4,11,12,2,3,1,15,14,13"
14676,commdev-image-keyboard-response,314,598463,learnblock1,null,img/planet1_left.png,1,Community 3,NA,FALSE,null,f,NA,NA,NA,2,6,"5,10,9,8,6,7,4,11,12,2,3,1,15,14,13"
14676,commdev-image-keyboard-response,315,599714,learnblock1,196.40000009536743,img/planet14_right.png,14,Community 3,NA,FALSE,f,j,NA,NA,NA,2,6,"5,10,9,8,6,7,4,11,12,2,3,1,15,14,13"
14676,commdev-image-keyboard-response,316,600966,learnblock1,644.7999999523163,img/planet15_left.png,15,Community 3,NA,TRUE,f,f,NA,NA,NA,2,6,"5,10,9,8,6,7,4,11,12,2,3,1,15,14,13"
14676,commdev-image-keyboard-response,317,602218,learnblock1,588.7999999523163,img/planet1_left.png,1,Community 3,NA,FALSE,j,f,NA,NA,NA,2,6,"5,10,9,8,6,7,4,11,12,2,3,1,15,14,13"
14676,commdev-image-keyboard-response,318,603470,learnblock1,652.7999999523163,img/planet14_left.png,14,Community 3,NA,TRUE,f,f,NA,NA,NA,2,6,"5,10,9,8,6,7,4,11,12,2,3,1,15,14,13"
14676,commdev-image-keyboard-response,319,604723,learnblock1,482.2000000476837,img/planet15_left.png,15,Community 3,NA,TRUE,f,f,NA,NA,NA,2,6,"5,10,9,8,6,7,4,11,12,2,3,1,15,14,13"
14676,commdev-image-keyboard-response,320,605974,learnblock1,503,img/planet13_right.png,13,Community 3,NA,TRUE,j,j,NA,NA,NA,2,6,"5,10,9,8,6,7,4,11,12,2,3,1,15,14,13"
14676,commdev-image-keyboard-response,321,607226,learnblock1,691.2999999523163,img/planet1_right.png,1,Community 3,NA,TRUE,j,j,NA,NA,NA,2,6,"5,10,9,8,6,7,4,11,12,2,3,1,15,14,13"
14676,commdev-image-keyboard-response,322,608479,learnblock1,759.9000000953674,img/planet15_right.png,15,Community 3,NA,TRUE,j,j,NA,NA,NA,2,6,"5,10,9,8,6,7,4,11,12,2,3,1,15,14,13"
14676,commdev-image-keyboard-response,323,609731,learnblock1,651.6000001430511,img/planet14_right.png,14,Community 3,NA,TRUE,j,j,NA,NA,NA,2,6,"5,10,9,8,6,7,4,11,12,2,3,1,15,14,13"
14676,commdev-image-keyboard-response,324,610984,learnblock1,616.2999999523163,img/planet15_left.png,15,Community 3,NA,TRUE,f,f,NA,NA,NA,2,6,"5,10,9,8,6,7,4,11,12,2,3,1,15,14,13"
14676,commdev-image-keyboard-response,325,612235,learnblock1,872.5999999046326,img/planet1_left.png,1,Community 3,NA,TRUE,f,f,NA,NA,NA,2,6,"5,10,9,8,6,7,4,11,12,2,3,1,15,14,13"
14676,commdev-image-keyboard-response,326,613487,learnblock1,1182.4000000953674,img/planet14_left.png,14,Community 3,NA,TRUE,f,f,NA,NA,NA,2,6,"5,10,9,8,6,7,4,11,12,2,3,1,15,14,13"
14676,commdev-image-keyboard-response,327,614739,learnblock1,681.2000000476837,img/planet1_left.png,1,Community 3,NA,TRUE,f,f,NA,NA,NA,2,6,"5,10,9,8,6,7,4,11,12,2,3,1,15,14,13"
14676,commdev-image-keyboard-response,328,615990,learnblock1,318.7999999523163,img/planet14_right.png,14,Community 3,NA,FALSE,f,j,NA,NA,NA,2,6,"5,10,9,8,6,7,4,11,12,2,3,1,15,14,13"
14676,commdev-image-keyboard-response,329,617241,learnblock1,627.0999999046326,img/planet13_right.png,13,Community 3,NA,TRUE,j,j,NA,NA,NA,2,6,"5,10,9,8,6,7,4,11,12,2,3,1,15,14,13"
14676,commdev-image-keyboard-response,330,618493,learnblock1,630.5,img/planet15_right.png,15,Community 3,NA,TRUE,j,j,NA,NA,NA,2,6,"5,10,9,8,6,7,4,11,12,2,3,1,15,14,13"
14676,commdev-image-keyboard-response,331,619745,learnblock1,582.7999999523163,img/planet1_left.png,1,Community 3,NA,FALSE,j,f,NA,NA,NA,2,6,"5,10,9,8,6,7,4,11,12,2,3,1,15,14,13"
14676,commdev-image-keyboard-response,332,620997,learnblock1,180.5,img/planet13_right.png,13,Community 3,NA,FALSE,f,j,NA,NA,NA,2,6,"5,10,9,8,6,7,4,11,12,2,3,1,15,14,13"
14676,commdev-image-keyboard-response,333,622248,learnblock1,614.5,img/planet1_right.png,1,Community 3,NA,TRUE,j,j,NA,NA,NA,2,6,"5,10,9,8,6,7,4,11,12,2,3,1,15,14,13"
14676,commdev-image-keyboard-response,334,623510,learnblock1,747,img/planet15_right.png,15,Community 3,NA,TRUE,j,j,NA,NA,NA,2,6,"5,10,9,8,6,7,4,11,12,2,3,1,15,14,13"
14676,commdev-image-keyboard-response,335,624761,learnblock1,810.3000001907349,img/planet13_left.png,13,Community 3,NA,TRUE,f,f,NA,NA,NA,2,6,"5,10,9,8,6,7,4,11,12,2,3,1,15,14,13"
14676,commdev-image-keyboard-response,336,626013,learnblock1,550.8999998569489,img/planet1_left.png,1,Community 3,NA,TRUE,f,f,NA,NA,NA,2,6,"5,10,9,8,6,7,4,11,12,2,3,1,15,14,13"
14676,commdev-image-keyboard-response,337,627264,learnblock1,519.5999999046326,img/planet11_right.png,11,Community 2,NA,TRUE,j,j,NA,NA,NA,2,6,"5,10,9,8,6,7,4,11,12,2,3,1,15,14,13"
14676,commdev-image-keyboard-response,338,628515,learnblock1,660.2000000476837,img/planet12_left.png,12,Community 2,NA,TRUE,f,f,NA,NA,NA,2,6,"5,10,9,8,6,7,4,11,12,2,3,1,15,14,13"
14676,commdev-image-keyboard-response,339,629767,learnblock1,610.7999999523163,img/planet2_right.png,2,Community 2,NA,TRUE,j,j,NA,NA,NA,2,6,"5,10,9,8,6,7,4,11,12,2,3,1,15,14,13"
14676,commdev-image-keyboard-response,340,631018,learnblock1,777.2999999523163,img/planet4_right.png,4,Community 2,NA,TRUE,j,j,NA,NA,NA,2,6,"5,10,9,8,6,7,4,11,12,2,3,1,15,14,13"
14676,commdev-image-keyboard-response,341,632270,learnblock1,674.6000001430511,img/planet2_left.png,2,Community 2,NA,FALSE,j,f,NA,NA,NA,2,6,"5,10,9,8,6,7,4,11,12,2,3,1,15,14,13"
14676,commdev-image-keyboard-response,342,633522,learnblock1,642.1000001430511,img/planet4_left.png,4,Community 2,NA,TRUE,f,f,NA,NA,NA,2,6,"5,10,9,8,6,7,4,11,12,2,3,1,15,14,13"
14676,commdev-image-keyboard-response,343,634773,learnblock1,753.7999999523163,img/planet12_right.png,12,Community 2,NA,TRUE,j,j,NA,NA,NA,2,6,"5,10,9,8,6,7,4,11,12,2,3,1,15,14,13"
14676,commdev-image-keyboard-response,344,636025,learnblock1,734.0999999046326,img/planet7_right.png,7,Community 2,NA,TRUE,j,j,NA,NA,NA,2,6,"5,10,9,8,6,7,4,11,12,2,3,1,15,14,13"
14676,commdev-image-keyboard-response,345,637276,learnblock1,856.6999998092651,img/planet2_left.png,2,Community 2,NA,TRUE,f,f,NA,NA,NA,2,6,"5,10,9,8,6,7,4,11,12,2,3,1,15,14,13"
14676,commdev-image-keyboard-response,346,638528,learnblock1,710.2999999523163,img/planet4_left.png,4,Community 2,NA,FALSE,j,f,NA,NA,NA,2,6,"5,10,9,8,6,7,4,11,12,2,3,1,15,14,13"
14676,commdev-image-keyboard-response,347,639779,learnblock1,674.6000001430511,img/planet11_left.png,11,Community 2,NA,TRUE,f,f,NA,NA,NA,2,6,"5,10,9,8,6,7,4,11,12,2,3,1,15,14,13"
14676,commdev-image-keyboard-response,351,671263,learnblock2,709.7999999523163,img/planet13_right.png,13,Community 3,NA,TRUE,j,j,NA,NA,NA,2,6,"5,10,9,8,6,7,4,11,12,2,3,1,15,14,13"
14676,commdev-image-keyboard-response,352,672515,learnblock2,587.0999999046326,img/planet14_left.png,14,Community 3,NA,TRUE,f,f,NA,NA,NA,2,6,"5,10,9,8,6,7,4,11,12,2,3,1,15,14,13"
14676,commdev-image-keyboard-response,353,673766,learnblock2,738.7999999523163,img/planet3_left.png,3,Community 3,NA,TRUE,f,f,NA,NA,NA,2,6,"5,10,9,8,6,7,4,11,12,2,3,1,15,14,13"
14676,commdev-image-keyboard-response,354,675018,learnblock2,656.2999999523163,img/planet15_right.png,15,Community 3,NA,TRUE,j,j,NA,NA,NA,2,6,"5,10,9,8,6,7,4,11,12,2,3,1,15,14,13"
14676,commdev-image-keyboard-response,355,676270,learnblock2,654.0999999046326,img/planet13_left.png,13,Community 3,NA,TRUE,f,f,NA,NA,NA,2,6,"5,10,9,8,6,7,4,11,12,2,3,1,15,14,13"
14676,commdev-image-keyboard-response,356,677522,learnblock2,580.7999999523163,img/planet14_left.png,14,Community 3,NA,TRUE,f,f,NA,NA,NA,2,6,"5,10,9,8,6,7,4,11,12,2,3,1,15,14,13"
14676,commdev-image-keyboard-response,357,678773,learnblock2,559,img/planet1_right.png,1,Community 3,NA,TRUE,j,j,NA,NA,NA,2,6,"5,10,9,8,6,7,4,11,12,2,3,1,15,14,13"
14676,commdev-image-keyboard-response,358,680024,learnblock2,529.4000000953674,img/planet15_left.png,15,Community 3,NA,TRUE,f,f,NA,NA,NA,2,6,"5,10,9,8,6,7,4,11,12,2,3,1,15,14,13"
14676,commdev-image-keyboard-response,359,681276,learnblock2,691.5,img/planet13_left.png,13,Community 3,NA,FALSE,j,f,NA,NA,NA,2,6,"5,10,9,8,6,7,4,11,12,2,3,1,15,14,13"
14676,commdev-image-keyboard-response,360,682528,learnblock2,652.5,img/planet1_right.png,1,Community 3,NA,TRUE,j,j,NA,NA,NA,2,6,"5,10,9,8,6,7,4,11,12,2,3,1,15,14,13"
14676,commdev-image-keyboard-response,361,683780,learnblock2,659.0999999046326,img/planet15_right.png,15,Community 3,NA,TRUE,j,j,NA,NA,NA,2,6,"5,10,9,8,6,7,4,11,12,2,3,1,15,14,13"
14676,commdev-image-keyboard-response,362,685032,learnblock2,631.9000000953674,img/planet13_right.png,13,Community 3,NA,TRUE,j,j,NA,NA,NA,2,6,"5,10,9,8,6,7,4,11,12,2,3,1,15,14,13"
14676,commdev-image-keyboard-response,363,686283,learnblock2,632.7000000476837,img/planet3_left.png,3,Community 3,NA,TRUE,f,f,NA,NA,NA,2,6,"5,10,9,8,6,7,4,11,12,2,3,1,15,14,13"
14676,commdev-image-keyboard-response,364,687536,learnblock2,642.5,img/planet14_left.png,14,Community 3,NA,TRUE,f,f,NA,NA,NA,2,6,"5,10,9,8,6,7,4,11,12,2,3,1,15,14,13"
14676,commdev-image-keyboard-response,365,688788,learnblock2,612.2999999523163,img/planet13_left.png,13,Community 3,NA,TRUE,f,f,NA,NA,NA,2,6,"5,10,9,8,6,7,4,11,12,2,3,1,15,14,13"
14676,commdev-image-keyboard-response,366,690039,learnblock2,580.7999999523163,img/planet15_right.png,15,Community 3,NA,TRUE,j,j,NA,NA,NA,2,6,"5,10,9,8,6,7,4,11,12,2,3,1,15,14,13"
14676,commdev-image-keyboard-response,367,691292,learnblock2,613.5999999046326,img/planet3_right.png,3,Community 3,NA,TRUE,j,j,NA,NA,NA,2,6,"5,10,9,8,6,7,4,11,12,2,3,1,15,14,13"
14676,commdev-image-keyboard-response,368,692545,learnblock2,608.2999999523163,img/planet13_left.png,13,Community 3,NA,TRUE,f,f,NA,NA,NA,2,6,"5,10,9,8,6,7,4,11,12,2,3,1,15,14,13"
14676,commdev-image-keyboard-response,369,693797,learnblock2,701.7000000476837,img/planet1_right.png,1,Community 3,NA,TRUE,j,j,NA,NA,NA,2,6,"5,10,9,8,6,7,4,11,12,2,3,1,15,14,13"
14676,commdev-image-keyboard-response,370,695049,learnblock2,535,img/planet15_left.png,15,Community 3,NA,FALSE,j,f,NA,NA,NA,2,6,"5,10,9,8,6,7,4,11,12,2,3,1,15,14,13"
14676,commdev-image-keyboard-response,371,696301,learnblock2,683.4000000953674,img/planet14_right.png,14,Community 3,NA,TRUE,j,j,NA,NA,NA,2,6,"5,10,9,8,6,7,4,11,12,2,3,1,15,14,13"
14676,commdev-image-keyboard-response,372,697552,learnblock2,764,img/planet1_right.png,1,Community 3,NA,TRUE,j,j,NA,NA,NA,2,6,"5,10,9,8,6,7,4,11,12,2,3,1,15,14,13"
14676,commdev-image-keyboard-response,373,698805,learnblock2,621.2000000476837,img/planet15_left.png,15,Community 3,NA,TRUE,f,f,NA,NA,NA,2,6,"5,10,9,8,6,7,4,11,12,2,3,1,15,14,13"
14676,commdev-image-keyboard-response,374,700056,learnblock2,629.7000000476837,img/planet1_right.png,1,Community 3,NA,TRUE,j,j,NA,NA,NA,2,6,"5,10,9,8,6,7,4,11,12,2,3,1,15,14,13"
14676,commdev-image-keyboard-response,375,701307,learnblock2,622.7000000476837,img/planet15_right.png,15,Community 3,NA,TRUE,j,j,NA,NA,NA,2,6,"5,10,9,8,6,7,4,11,12,2,3,1,15,14,13"
14676,commdev-image-keyboard-response,376,702559,learnblock2,630.2999999523163,img/planet3_left.png,3,Community 3,NA,TRUE,f,f,NA,NA,NA,2,6,"5,10,9,8,6,7,4,11,12,2,3,1,15,14,13"
14676,commdev-image-keyboard-response,377,703811,learnblock2,617.2999999523163,img/planet14_left.png,14,Community 3,NA,TRUE,f,f,NA,NA,NA,2,6,"5,10,9,8,6,7,4,11,12,2,3,1,15,14,13"
14676,commdev-image-keyboard-response,378,705062,learnblock2,539.2000000476837,img/planet13_left.png,13,Community 3,NA,TRUE,f,f,NA,NA,NA,2,6,"5,10,9,8,6,7,4,11,12,2,3,1,15,14,13"
14676,commdev-image-keyboard-response,379,706314,learnblock2,509.7000000476837,img/planet15_left.png,15,Community 3,NA,TRUE,f,f,NA,NA,NA,2,6,"5,10,9,8,6,7,4,11,12,2,3,1,15,14,13"
14676,commdev-image-keyboard-response,380,707573,learnblock2,787.5999999046326,img/planet1_right.png,1,Community 3,NA,TRUE,j,j,NA,NA,NA,2,6,"5,10,9,8,6,7,4,11,12,2,3,1,15,14,13"
14676,commdev-image-keyboard-response,381,708825,learnblock2,870.7000000476837,img/planet13_right.png,13,Community 3,NA,TRUE,j,j,NA,NA,NA,2,6,"5,10,9,8,6,7,4,11,12,2,3,1,15,14,13"
14676,commdev-image-keyboard-response,382,710088,learnblock2,605.2999999523163,img/planet1_right.png,1,Community 3,NA,TRUE,j,j,NA,NA,NA,2,6,"5,10,9,8,6,7,4,11,12,2,3,1,15,14,13"
14676,commdev-image-keyboard-response,383,711339,learnblock2,562.5,img/planet15_right.png,15,Community 3,NA,TRUE,j,j,NA,NA,NA,2,6,"5,10,9,8,6,7,4,11,12,2,3,1,15,14,13"
14676,commdev-image-keyboard-response,384,712591,learnblock2,600.0999999046326,img/planet1_right.png,1,Community 3,NA,TRUE,j,j,NA,NA,NA,2,6,"5,10,9,8,6,7,4,11,12,2,3,1,15,14,13"
14676,commdev-image-keyboard-response,385,713843,learnblock2,619.9000000953674,img/planet15_left.png,15,Community 3,NA,TRUE,f,f,NA,NA,NA,2,6,"5,10,9,8,6,7,4,11,12,2,3,1,15,14,13"
14676,commdev-image-keyboard-response,386,715094,learnblock2,599.7000000476837,img/planet14_left.png,14,Community 3,NA,TRUE,f,f,NA,NA,NA,2,6,"5,10,9,8,6,7,4,11,12,2,3,1,15,14,13"
14676,commdev-image-keyboard-response,387,716346,learnblock2,527.0999999046326,img/planet3_right.png,3,Community 3,NA,TRUE,j,j,NA,NA,NA,2,6,"5,10,9,8,6,7,4,11,12,2,3,1,15,14,13"
14676,commdev-image-keyboard-response,388,717597,learnblock2,650.7999999523163,img/planet13_left.png,13,Community 3,NA,TRUE,f,f,NA,NA,NA,2,6,"5,10,9,8,6,7,4,11,12,2,3,1,15,14,13"
14676,commdev-image-keyboard-response,389,718850,learnblock2,1025.2999999523163,img/planet3_left.png,3,Community 3,NA,TRUE,f,f,NA,NA,NA,2,6,"5,10,9,8,6,7,4,11,12,2,3,1,15,14,13"
14676,commdev-image-keyboard-response,390,720102,learnblock2,773.4000000953674,img/planet14_left.png,14,Community 3,NA,TRUE,f,f,NA,NA,NA,2,6,"5,10,9,8,6,7,4,11,12,2,3,1,15,14,13"
14676,commdev-image-keyboard-response,391,721353,learnblock2,646,img/planet15_left.png,15,Community 3,NA,TRUE,f,f,NA,NA,NA,2,6,"5,10,9,8,6,7,4,11,12,2,3,1,15,14,13"
14676,commdev-image-keyboard-response,392,722605,learnblock2,576.5,img/planet13_left.png,13,Community 3,NA,TRUE,f,f,NA,NA,NA,2,6,"5,10,9,8,6,7,4,11,12,2,3,1,15,14,13"
14676,commdev-image-keyboard-response,393,723856,learnblock2,472.7999999523163,img/planet14_left.png,14,Community 3,NA,TRUE,f,f,NA,NA,NA,2,6,"5,10,9,8,6,7,4,11,12,2,3,1,15,14,13"
14676,commdev-image-keyboard-response,394,725108,learnblock2,469,img/planet15_left.png,15,Community 3,NA,TRUE,f,f,NA,NA,NA,2,6,"5,10,9,8,6,7,4,11,12,2,3,1,15,14,13"
14676,commdev-image-keyboard-response,395,726359,learnblock2,589.9000000953674,img/planet3_right.png,3,Community 3,NA,TRUE,j,j,NA,NA,NA,2,6,"5,10,9,8,6,7,4,11,12,2,3,1,15,14,13"
14676,commdev-image-keyboard-response,396,727611,learnblock2,564.2999999523163,img/planet13_left.png,13,Community 3,NA,TRUE,f,f,NA,NA,NA,2,6,"5,10,9,8,6,7,4,11,12,2,3,1,15,14,13"
14676,commdev-image-keyboard-response,397,728863,learnblock2,498.7999999523163,img/planet15_right.png,15,Community 3,NA,TRUE,j,j,NA,NA,NA,2,6,"5,10,9,8,6,7,4,11,12,2,3,1,15,14,13"
14676,commdev-image-keyboard-response,398,730115,learnblock2,766.5999999046326,img/planet1_left.png,1,Community 3,NA,TRUE,f,f,NA,NA,NA,2,6,"5,10,9,8,6,7,4,11,12,2,3,1,15,14,13"
14676,commdev-image-keyboard-response,399,731366,learnblock2,711.5,img/planet14_left.png,14,Community 3,NA,TRUE,f,f,NA,NA,NA,2,6,"5,10,9,8,6,7,4,11,12,2,3,1,15,14,13"
14676,commdev-image-keyboard-response,400,732619,learnblock2,490.7999999523163,img/planet15_left.png,15,Community 3,NA,TRUE,f,f,NA,NA,NA,2,6,"5,10,9,8,6,7,4,11,12,2,3,1,15,14,13"
14676,commdev-image-keyboard-response,401,733871,learnblock2,594.6000001430511,img/planet3_right.png,3,Community 3,NA,TRUE,j,j,NA,NA,NA,2,6,"5,10,9,8,6,7,4,11,12,2,3,1,15,14,13"
14676,commdev-image-keyboard-response,402,735123,learnblock2,619.6999998092651,img/planet6_left.png,6,Community 1,NA,FALSE,j,f,NA,NA,NA,2,6,"5,10,9,8,6,7,4,11,12,2,3,1,15,14,13"
14676,commdev-image-keyboard-response,403,736374,learnblock2,877.2000000476837,img/planet3_left.png,3,Community 3,NA,TRUE,f,f,NA,NA,NA,2,6,"5,10,9,8,6,7,4,11,12,2,3,1,15,14,13"
14676,commdev-image-keyboard-response,404,737626,learnblock2,609.5,img/planet15_left.png,15,Community 3,NA,TRUE,f,f,NA,NA,NA,2,6,"5,10,9,8,6,7,4,11,12,2,3,1,15,14,13"
14676,commdev-image-keyboard-response,405,738878,learnblock2,714.7000000476837,img/planet14_left.png,14,Community 3,NA,TRUE,f,f,NA,NA,NA,2,6,"5,10,9,8,6,7,4,11,12,2,3,1,15,14,13"
14676,commdev-image-keyboard-response,406,740130,learnblock2,776.6000001430511,img/planet13_right.png,13,Community 3,NA,TRUE,j,j,NA,NA,NA,2,6,"5,10,9,8,6,7,4,11,12,2,3,1,15,14,13"
14676,commdev-image-keyboard-response,407,741381,learnblock2,732.5,img/planet3_left.png,3,Community 3,NA,TRUE,f,f,NA,NA,NA,2,6,"5,10,9,8,6,7,4,11,12,2,3,1,15,14,13"
14676,commdev-image-keyboard-response,408,742633,learnblock2,565.4000000953674,img/planet6_right.png,6,Community 1,NA,TRUE,j,j,NA,NA,NA,2,6,"5,10,9,8,6,7,4,11,12,2,3,1,15,14,13"
14676,commdev-image-keyboard-response,409,743884,learnblock2,442,img/planet10_left.png,10,Community 1,NA,TRUE,f,f,NA,NA,NA,2,6,"5,10,9,8,6,7,4,11,12,2,3,1,15,14,13"
14676,commdev-image-keyboard-response,410,745137,learnblock2,511.2999999523163,img/planet9_right.png,9,Community 1,NA,TRUE,j,j,NA,NA,NA,2,6,"5,10,9,8,6,7,4,11,12,2,3,1,15,14,13"
14676,commdev-image-keyboard-response,411,746388,learnblock2,694.2999999523163,img/planet10_left.png,10,Community 1,NA,TRUE,f,f,NA,NA,NA,2,6,"5,10,9,8,6,7,4,11,12,2,3,1,15,14,13"
14676,commdev-image-keyboard-response,412,747641,learnblock2,535.5999999046326,img/planet9_left.png,9,Community 1,NA,TRUE,f,f,NA,NA,NA,2,6,"5,10,9,8,6,7,4,11,12,2,3,1,15,14,13"
14676,commdev-image-keyboard-response,413,748893,learnblock2,474.7000000476837,img/planet10_left.png,10,Community 1,NA,TRUE,f,f,NA,NA,NA,2,6,"5,10,9,8,6,7,4,11,12,2,3,1,15,14,13"
14676,commdev-image-keyboard-response,414,750145,learnblock2,562.7000000476837,img/planet8_left.png,8,Community 1,NA,TRUE,f,f,NA,NA,NA,2,6,"5,10,9,8,6,7,4,11,12,2,3,1,15,14,13"
14676,commdev-image-keyboard-response,415,751396,learnblock2,480.60000014305115,img/planet10_left.png,10,Community 1,NA,TRUE,f,f,NA,NA,NA,2,6,"5,10,9,8,6,7,4,11,12,2,3,1,15,14,13"
14676,commdev-image-keyboard-response,416,752648,learnblock2,420.2000000476837,img/planet8_right.png,8,Community 1,NA,FALSE,f,j,NA,NA,NA,2,6,"5,10,9,8,6,7,4,11,12,2,3,1,15,14,13"
14676,commdev-image-keyboard-response,417,753900,learnblock2,1.8999998569488525,img/planet10_right.png,10,Community 1,NA,TRUE,j,j,NA,NA,NA,2,6,"5,10,9,8,6,7,4,11,12,2,3,1,15,14,13"
14676,commdev-image-keyboard-response,418,755151,learnblock2,943.7000000476837,img/planet9_left.png,9,Community 1,NA,TRUE,f,f,NA,NA,NA,2,6,"5,10,9,8,6,7,4,11,12,2,3,1,15,14,13"
14676,commdev-image-keyboard-response,419,756403,learnblock2,678,img/planet5_left.png,5,Community 1,NA,TRUE,f,f,NA,NA,NA,2,6,"5,10,9,8,6,7,4,11,12,2,3,1,15,14,13"
14676,commdev-image-keyboard-response,420,757655,learnblock2,630.1000001430511,img/planet8_left.png,8,Community 1,NA,TRUE,f,f,NA,NA,NA,2,6,"5,10,9,8,6,7,4,11,12,2,3,1,15,14,13"
14676,commdev-image-keyboard-response,421,758907,learnblock2,572.5,img/planet7_right.png,7,Community 2,NA,TRUE,j,j,NA,NA,NA,2,6,"5,10,9,8,6,7,4,11,12,2,3,1,15,14,13"
14676,commdev-image-keyboard-response,422,760160,learnblock2,650,img/planet4_left.png,4,Community 2,NA,TRUE,f,f,NA,NA,NA,2,6,"5,10,9,8,6,7,4,11,12,2,3,1,15,14,13"
14676,commdev-image-keyboard-response,423,761412,learnblock2,481.10000014305115,img/planet11_right.png,11,Community 2,NA,TRUE,j,j,NA,NA,NA,2,6,"5,10,9,8,6,7,4,11,12,2,3,1,15,14,13"
14676,commdev-image-keyboard-response,424,762663,learnblock2,694.3999998569489,img/planet1_right.png,1,Community 3,NA,FALSE,f,j,NA,NA,NA,2,6,"5,10,9,8,6,7,4,11,12,2,3,1,15,14,13"
14676,commdev-image-keyboard-response,425,763915,learnblock2,623.1000001430511,img/planet13_right.png,13,Community 3,NA,TRUE,j,j,NA,NA,NA,2,6,"5,10,9,8,6,7,4,11,12,2,3,1,15,14,13"
14676,commdev-image-keyboard-response,426,765167,learnblock2,455.09999990463257,img/planet1_right.png,1,Community 3,NA,TRUE,j,j,NA,NA,NA,2,6,"5,10,9,8,6,7,4,11,12,2,3,1,15,14,13"
14676,commdev-image-keyboard-response,427,766419,learnblock2,683.2999999523163,img/planet15_right.png,15,Community 3,NA,TRUE,j,j,NA,NA,NA,2,6,"5,10,9,8,6,7,4,11,12,2,3,1,15,14,13"
14676,commdev-image-keyboard-response,428,767671,learnblock2,699.2000000476837,img/planet14_left.png,14,Community 3,NA,TRUE,f,f,NA,NA,NA,2,6,"5,10,9,8,6,7,4,11,12,2,3,1,15,14,13"
14676,commdev-image-keyboard-response,429,768923,learnblock2,590.0999999046326,img/planet13_left.png,13,Community 3,NA,TRUE,f,f,NA,NA,NA,2,6,"5,10,9,8,6,7,4,11,12,2,3,1,15,14,13"
14676,commdev-image-keyboard-response,430,770174,learnblock2,558.9000000953674,img/planet3_left.png,3,Community 3,NA,TRUE,f,f,NA,NA,NA,2,6,"5,10,9,8,6,7,4,11,12,2,3,1,15,14,13"
14676,commdev-image-keyboard-response,431,771426,learnblock2,598.9000000953674,img/planet6_right.png,6,Community 1,NA,TRUE,j,j,NA,NA,NA,2,6,"5,10,9,8,6,7,4,11,12,2,3,1,15,14,13"
14676,commdev-image-keyboard-response,432,772679,learnblock2,573.6000001430511,img/planet5_right.png,5,Community 1,NA,TRUE,j,j,NA,NA,NA,2,6,"5,10,9,8,6,7,4,11,12,2,3,1,15,14,13"
14676,commdev-image-keyboard-response,433,773930,learnblock2,438,img/planet9_right.png,9,Community 1,NA,TRUE,j,j,NA,NA,NA,2,6,"5,10,9,8,6,7,4,11,12,2,3,1,15,14,13"
14676,commdev-image-keyboard-response,434,775182,learnblock2,447.39999985694885,img/planet10_right.png,10,Community 1,NA,TRUE,j,j,NA,NA,NA,2,6,"5,10,9,8,6,7,4,11,12,2,3,1,15,14,13"
14676,commdev-image-keyboard-response,435,776434,learnblock2,630,img/planet9_right.png,9,Community 1,NA,TRUE,j,j,NA,NA,NA,2,6,"5,10,9,8,6,7,4,11,12,2,3,1,15,14,13"
14676,commdev-image-keyboard-response,436,777691,learnblock2,609.2000000476837,img/planet10_left.png,10,Community 1,NA,TRUE,f,f,NA,NA,NA,2,6,"5,10,9,8,6,7,4,11,12,2,3,1,15,14,13"
14676,commdev-image-keyboard-response,437,778942,learnblock2,482.5,img/planet9_right.png,9,Community 1,NA,TRUE,j,j,NA,NA,NA,2,6,"5,10,9,8,6,7,4,11,12,2,3,1,15,14,13"
14676,commdev-image-keyboard-response,438,780195,learnblock2,556.1000001430511,img/planet6_right.png,6,Community 1,NA,TRUE,j,j,NA,NA,NA,2,6,"5,10,9,8,6,7,4,11,12,2,3,1,15,14,13"
14676,commdev-image-keyboard-response,439,781447,learnblock2,738.5,img/planet3_right.png,3,Community 3,NA,TRUE,j,j,NA,NA,NA,2,6,"5,10,9,8,6,7,4,11,12,2,3,1,15,14,13"
14676,commdev-image-keyboard-response,440,782699,learnblock2,579.7000000476837,img/planet13_right.png,13,Community 3,NA,TRUE,j,j,NA,NA,NA,2,6,"5,10,9,8,6,7,4,11,12,2,3,1,15,14,13"
14676,commdev-image-keyboard-response,441,783951,learnblock2,578.5,img/planet3_left.png,3,Community 3,NA,TRUE,f,f,NA,NA,NA,2,6,"5,10,9,8,6,7,4,11,12,2,3,1,15,14,13"
14676,commdev-image-keyboard-response,442,785204,learnblock2,581.2999999523163,img/planet15_right.png,15,Community 3,NA,TRUE,j,j,NA,NA,NA,2,6,"5,10,9,8,6,7,4,11,12,2,3,1,15,14,13"
14676,commdev-image-keyboard-response,443,786455,learnblock2,625.7000000476837,img/planet3_left.png,3,Community 3,NA,TRUE,f,f,NA,NA,NA,2,6,"5,10,9,8,6,7,4,11,12,2,3,1,15,14,13"
14676,commdev-image-keyboard-response,444,787707,learnblock2,495.5,img/planet14_right.png,14,Community 3,NA,TRUE,j,j,NA,NA,NA,2,6,"5,10,9,8,6,7,4,11,12,2,3,1,15,14,13"
14676,commdev-image-keyboard-response,445,788958,learnblock2,564.1000001430511,img/planet3_left.png,3,Community 3,NA,TRUE,f,f,NA,NA,NA,2,6,"5,10,9,8,6,7,4,11,12,2,3,1,15,14,13"
14676,commdev-image-keyboard-response,446,790209,learnblock2,666.2999999523163,img/planet13_left.png,13,Community 3,NA,TRUE,f,f,NA,NA,NA,2,6,"5,10,9,8,6,7,4,11,12,2,3,1,15,14,13"
14676,commdev-image-keyboard-response,447,791461,learnblock2,601.0999999046326,img/planet14_left.png,14,Community 3,NA,TRUE,f,f,NA,NA,NA,2,6,"5,10,9,8,6,7,4,11,12,2,3,1,15,14,13"
14676,commdev-image-keyboard-response,448,792714,learnblock2,548.3999998569489,img/planet3_left.png,3,Community 3,NA,TRUE,f,f,NA,NA,NA,2,6,"5,10,9,8,6,7,4,11,12,2,3,1,15,14,13"
14676,commdev-image-keyboard-response,449,793966,learnblock2,489.7000000476837,img/planet14_right.png,14,Community 3,NA,TRUE,j,j,NA,NA,NA,2,6,"5,10,9,8,6,7,4,11,12,2,3,1,15,14,13"
14676,commdev-image-keyboard-response,450,795218,learnblock2,508.7000000476837,img/planet13_left.png,13,Community 3,NA,TRUE,f,f,NA,NA,NA,2,6,"5,10,9,8,6,7,4,11,12,2,3,1,15,14,13"
14676,commdev-image-keyboard-response,451,796469,learnblock2,516.7000000476837,img/planet3_left.png,3,Community 3,NA,TRUE,f,f,NA,NA,NA,2,6,"5,10,9,8,6,7,4,11,12,2,3,1,15,14,13"
14676,commdev-image-keyboard-response,452,797721,learnblock2,565.2999999523163,img/planet15_left.png,15,Community 3,NA,TRUE,f,f,NA,NA,NA,2,6,"5,10,9,8,6,7,4,11,12,2,3,1,15,14,13"
14676,commdev-image-keyboard-response,453,798974,learnblock2,527.0999999046326,img/planet3_right.png,3,Community 3,NA,TRUE,j,j,NA,NA,NA,2,6,"5,10,9,8,6,7,4,11,12,2,3,1,15,14,13"
14676,commdev-image-keyboard-response,454,800225,learnblock2,627,img/planet6_right.png,6,Community 1,NA,TRUE,j,j,NA,NA,NA,2,6,"5,10,9,8,6,7,4,11,12,2,3,1,15,14,13"
14676,commdev-image-keyboard-response,455,801478,learnblock2,734.2999999523163,img/planet9_left.png,9,Community 1,NA,TRUE,f,f,NA,NA,NA,2,6,"5,10,9,8,6,7,4,11,12,2,3,1,15,14,13"
14676,commdev-image-keyboard-response,456,802730,learnblock2,636.4000000953674,img/planet10_right.png,10,Community 1,NA,TRUE,j,j,NA,NA,NA,2,6,"5,10,9,8,6,7,4,11,12,2,3,1,15,14,13"
14676,commdev-image-keyboard-response,457,803981,learnblock2,721.8000001907349,img/planet5_right.png,5,Community 1,NA,TRUE,j,j,NA,NA,NA,2,6,"5,10,9,8,6,7,4,11,12,2,3,1,15,14,13"
14676,commdev-image-keyboard-response,458,805232,learnblock2,545.8999998569489,img/planet10_left.png,10,Community 1,NA,TRUE,f,f,NA,NA,NA,2,6,"5,10,9,8,6,7,4,11,12,2,3,1,15,14,13"
14676,commdev-image-keyboard-response,459,806493,learnblock2,450.90000009536743,img/planet5_left.png,5,Community 1,NA,TRUE,f,f,NA,NA,NA,2,6,"5,10,9,8,6,7,4,11,12,2,3,1,15,14,13"
14676,commdev-image-keyboard-response,460,807745,learnblock2,552.8999998569489,img/planet9_left.png,9,Community 1,NA,TRUE,f,f,NA,NA,NA,2,6,"5,10,9,8,6,7,4,11,12,2,3,1,15,14,13"
14676,commdev-image-keyboard-response,461,808997,learnblock2,507.89999985694885,img/planet5_right.png,5,Community 1,NA,TRUE,j,j,NA,NA,NA,2,6,"5,10,9,8,6,7,4,11,12,2,3,1,15,14,13"
14676,commdev-image-keyboard-response,462,810248,learnblock2,595.2000000476837,img/planet8_right.png,8,Community 1,NA,FALSE,f,j,NA,NA,NA,2,6,"5,10,9,8,6,7,4,11,12,2,3,1,15,14,13"
14676,commdev-image-keyboard-response,463,811500,learnblock2,584.3000001907349,img/planet7_right.png,7,Community 2,NA,TRUE,j,j,NA,NA,NA,2,6,"5,10,9,8,6,7,4,11,12,2,3,1,15,14,13"
14676,commdev-image-keyboard-response,464,812753,learnblock2,586.6000001430511,img/planet12_right.png,12,Community 2,NA,TRUE,j,j,NA,NA,NA,2,6,"5,10,9,8,6,7,4,11,12,2,3,1,15,14,13"
14676,commdev-image-keyboard-response,465,814005,learnblock2,733.5,img/planet7_left.png,7,Community 2,NA,TRUE,f,f,NA,NA,NA,2,6,"5,10,9,8,6,7,4,11,12,2,3,1,15,14,13"
14676,commdev-image-keyboard-response,466,815256,learnblock2,719.2000000476837,img/planet4_left.png,4,Community 2,NA,TRUE,f,f,NA,NA,NA,2,6,"5,10,9,8,6,7,4,11,12,2,3,1,15,14,13"
14676,commdev-image-keyboard-response,467,816508,learnblock2,756.5,img/planet12_right.png,12,Community 2,NA,TRUE,j,j,NA,NA,NA,2,6,"5,10,9,8,6,7,4,11,12,2,3,1,15,14,13"
14676,commdev-image-keyboard-response,468,817759,learnblock2,601.4000000953674,img/planet7_right.png,7,Community 2,NA,TRUE,j,j,NA,NA,NA,2,6,"5,10,9,8,6,7,4,11,12,2,3,1,15,14,13"
14676,commdev-image-keyboard-response,469,819011,learnblock2,798.6999998092651,img/planet12_left.png,12,Community 2,NA,TRUE,f,f,NA,NA,NA,2,6,"5,10,9,8,6,7,4,11,12,2,3,1,15,14,13"
14676,commdev-image-keyboard-response,470,820263,learnblock2,668.7999999523163,img/planet11_right.png,11,Community 2,NA,TRUE,j,j,NA,NA,NA,2,6,"5,10,9,8,6,7,4,11,12,2,3,1,15,14,13"
14676,commdev-image-keyboard-response,471,821516,learnblock2,700.7999999523163,img/planet4_right.png,4,Community 2,NA,TRUE,j,j,NA,NA,NA,2,6,"5,10,9,8,6,7,4,11,12,2,3,1,15,14,13"
14676,commdev-image-keyboard-response,472,822767,learnblock2,745.9000000953674,img/planet2_left.png,2,Community 2,NA,TRUE,f,f,NA,NA,NA,2,6,"5,10,9,8,6,7,4,11,12,2,3,1,15,14,13"
14676,commdev-image-keyboard-response,473,824019,learnblock2,722.5999999046326,img/planet12_left.png,12,Community 2,NA,TRUE,f,f,NA,NA,NA,2,6,"5,10,9,8,6,7,4,11,12,2,3,1,15,14,13"
14676,commdev-image-keyboard-response,474,825271,learnblock2,825.6000001430511,img/planet4_left.png,4,Community 2,NA,TRUE,f,f,NA,NA,NA,2,6,"5,10,9,8,6,7,4,11,12,2,3,1,15,14,13"
14676,commdev-image-keyboard-response,475,826523,learnblock2,1009.5,img/planet11_left.png,11,Community 2,NA,TRUE,f,f,NA,NA,NA,2,6,"5,10,9,8,6,7,4,11,12,2,3,1,15,14,13"
14676,commdev-image-keyboard-response,476,827774,learnblock2,897.5,img/planet2_left.png,2,Community 2,NA,TRUE,f,f,NA,NA,NA,2,6,"5,10,9,8,6,7,4,11,12,2,3,1,15,14,13"
14676,commdev-image-keyboard-response,477,829026,learnblock2,503.59999990463257,img/planet11_right.png,11,Community 2,NA,FALSE,f,j,NA,NA,NA,2,6,"5,10,9,8,6,7,4,11,12,2,3,1,15,14,13"
14676,commdev-image-keyboard-response,478,830277,learnblock2,79.70000004768372,img/planet2_left.png,2,Community 2,NA,FALSE,j,f,NA,NA,NA,2,6,"5,10,9,8,6,7,4,11,12,2,3,1,15,14,13"
14676,commdev-image-keyboard-response,479,831528,learnblock2,532.2999999523163,img/planet7_right.png,7,Community 2,NA,TRUE,j,j,NA,NA,NA,2,6,"5,10,9,8,6,7,4,11,12,2,3,1,15,14,13"
14676,commdev-image-keyboard-response,480,832780,learnblock2,757.5,img/planet12_right.png,12,Community 2,NA,TRUE,j,j,NA,NA,NA,2,6,"5,10,9,8,6,7,4,11,12,2,3,1,15,14,13"
14676,commdev-image-keyboard-response,481,834031,learnblock2,622.8999998569489,img/planet2_right.png,2,Community 2,NA,TRUE,j,j,NA,NA,NA,2,6,"5,10,9,8,6,7,4,11,12,2,3,1,15,14,13"
14676,commdev-image-keyboard-response,482,835283,learnblock2,614.2000000476837,img/planet7_right.png,7,Community 2,NA,TRUE,j,j,NA,NA,NA,2,6,"5,10,9,8,6,7,4,11,12,2,3,1,15,14,13"
14676,commdev-image-keyboard-response,483,836536,learnblock2,754,img/planet4_left.png,4,Community 2,NA,TRUE,f,f,NA,NA,NA,2,6,"5,10,9,8,6,7,4,11,12,2,3,1,15,14,13"
14676,commdev-image-keyboard-response,484,837788,learnblock2,684.2000000476837,img/planet11_left.png,11,Community 2,NA,TRUE,f,f,NA,NA,NA,2,6,"5,10,9,8,6,7,4,11,12,2,3,1,15,14,13"
14676,commdev-image-keyboard-response,485,839041,learnblock2,603.7999999523163,img/planet12_left.png,12,Community 2,NA,TRUE,f,f,NA,NA,NA,2,6,"5,10,9,8,6,7,4,11,12,2,3,1,15,14,13"
14676,commdev-image-keyboard-response,486,840293,learnblock2,541.5,img/planet11_right.png,11,Community 2,NA,TRUE,j,j,NA,NA,NA,2,6,"5,10,9,8,6,7,4,11,12,2,3,1,15,14,13"
14676,commdev-image-keyboard-response,487,841555,learnblock2,589.9000000953674,img/planet1_left.png,1,Community 3,NA,TRUE,f,f,NA,NA,NA,2,6,"5,10,9,8,6,7,4,11,12,2,3,1,15,14,13"
14676,commdev-image-keyboard-response,488,842809,learnblock2,568.2999999523163,img/planet11_right.png,11,Community 2,NA,TRUE,j,j,NA,NA,NA,2,6,"5,10,9,8,6,7,4,11,12,2,3,1,15,14,13"
14676,commdev-image-keyboard-response,489,844060,learnblock2,596.2999999523163,img/planet1_right.png,1,Community 3,NA,TRUE,j,j,NA,NA,NA,2,6,"5,10,9,8,6,7,4,11,12,2,3,1,15,14,13"
14676,commdev-image-keyboard-response,490,845311,learnblock2,570.2000000476837,img/planet13_right.png,13,Community 3,NA,TRUE,j,j,NA,NA,NA,2,6,"5,10,9,8,6,7,4,11,12,2,3,1,15,14,13"
14676,commdev-image-keyboard-response,491,846564,learnblock2,628.2000000476837,img/planet1_left.png,1,Community 3,NA,TRUE,f,f,NA,NA,NA,2,6,"5,10,9,8,6,7,4,11,12,2,3,1,15,14,13"
14676,commdev-image-keyboard-response,492,847817,learnblock2,590,img/planet13_right.png,13,Community 3,NA,TRUE,j,j,NA,NA,NA,2,6,"5,10,9,8,6,7,4,11,12,2,3,1,15,14,13"
14676,commdev-image-keyboard-response,493,849069,learnblock2,620.7999999523163,img/planet14_left.png,14,Community 3,NA,TRUE,f,f,NA,NA,NA,2,6,"5,10,9,8,6,7,4,11,12,2,3,1,15,14,13"
14676,commdev-image-keyboard-response,494,850321,learnblock2,586.2999999523163,img/planet15_left.png,15,Community 3,NA,TRUE,f,f,NA,NA,NA,2,6,"5,10,9,8,6,7,4,11,12,2,3,1,15,14,13"
14676,commdev-image-keyboard-response,495,851572,learnblock2,550.7999999523163,img/planet1_right.png,1,Community 3,NA,TRUE,j,j,NA,NA,NA,2,6,"5,10,9,8,6,7,4,11,12,2,3,1,15,14,13"
14676,commdev-image-keyboard-response,496,852824,learnblock2,728.3999998569489,img/planet11_right.png,11,Community 2,NA,TRUE,j,j,NA,NA,NA,2,6,"5,10,9,8,6,7,4,11,12,2,3,1,15,14,13"
14676,commdev-image-keyboard-response,497,854079,learnblock2,687.2999999523163,img/planet4_left.png,4,Community 2,NA,TRUE,f,f,NA,NA,NA,2,6,"5,10,9,8,6,7,4,11,12,2,3,1,15,14,13"
14676,commdev-image-keyboard-response,498,855332,learnblock2,878.9000000953674,img/planet11_left.png,11,Community 2,NA,TRUE,f,f,NA,NA,NA,2,6,"5,10,9,8,6,7,4,11,12,2,3,1,15,14,13"
14676,commdev-image-keyboard-response,499,856583,learnblock2,818.0999999046326,img/planet12_left.png,12,Community 2,NA,TRUE,f,f,NA,NA,NA,2,6,"5,10,9,8,6,7,4,11,12,2,3,1,15,14,13"
14676,commdev-image-keyboard-response,500,857835,learnblock2,663.4000000953674,img/planet4_left.png,4,Community 2,NA,TRUE,f,f,NA,NA,NA,2,6,"5,10,9,8,6,7,4,11,12,2,3,1,15,14,13"
14676,commdev-image-keyboard-response,501,859088,learnblock2,663.6999998092651,img/planet12_left.png,12,Community 2,NA,TRUE,f,f,NA,NA,NA,2,6,"5,10,9,8,6,7,4,11,12,2,3,1,15,14,13"
14676,commdev-image-keyboard-response,502,860340,learnblock2,578.9000000953674,img/planet7_right.png,7,Community 2,NA,TRUE,j,j,NA,NA,NA,2,6,"5,10,9,8,6,7,4,11,12,2,3,1,15,14,13"
14676,commdev-image-keyboard-response,503,861591,learnblock2,918.7000000476837,img/planet8_right.png,8,Community 1,NA,TRUE,j,j,NA,NA,NA,2,6,"5,10,9,8,6,7,4,11,12,2,3,1,15,14,13"
14676,commdev-image-keyboard-response,504,862843,learnblock2,608.7000000476837,img/planet5_right.png,5,Community 1,NA,TRUE,j,j,NA,NA,NA,2,6,"5,10,9,8,6,7,4,11,12,2,3,1,15,14,13"
14676,commdev-image-keyboard-response,505,864095,learnblock2,701,img/planet9_left.png,9,Community 1,NA,TRUE,f,f,NA,NA,NA,2,6,"5,10,9,8,6,7,4,11,12,2,3,1,15,14,13"
14676,commdev-image-keyboard-response,506,865347,learnblock2,556.5999999046326,img/planet8_left.png,8,Community 1,NA,TRUE,f,f,NA,NA,NA,2,6,"5,10,9,8,6,7,4,11,12,2,3,1,15,14,13"
14676,commdev-image-keyboard-response,507,866600,learnblock2,579.9000000953674,img/planet9_right.png,9,Community 1,NA,TRUE,j,j,NA,NA,NA,2,6,"5,10,9,8,6,7,4,11,12,2,3,1,15,14,13"
14676,commdev-image-keyboard-response,508,867851,learnblock2,558.7999999523163,img/planet10_right.png,10,Community 1,NA,TRUE,j,j,NA,NA,NA,2,6,"5,10,9,8,6,7,4,11,12,2,3,1,15,14,13"
14676,commdev-image-keyboard-response,509,869103,learnblock2,553.5999999046326,img/planet9_left.png,9,Community 1,NA,TRUE,f,f,NA,NA,NA,2,6,"5,10,9,8,6,7,4,11,12,2,3,1,15,14,13"
14676,commdev-image-keyboard-response,510,870356,learnblock2,627,img/planet6_right.png,6,Community 1,NA,TRUE,j,j,NA,NA,NA,2,6,"5,10,9,8,6,7,4,11,12,2,3,1,15,14,13"
14676,commdev-image-keyboard-response,511,871608,learnblock2,730.0999999046326,img/planet3_right.png,3,Community 3,NA,TRUE,j,j,NA,NA,NA,2,6,"5,10,9,8,6,7,4,11,12,2,3,1,15,14,13"
14676,commdev-image-keyboard-response,512,872859,learnblock2,494.09999990463257,img/planet6_right.png,6,Community 1,NA,TRUE,j,j,NA,NA,NA,2,6,"5,10,9,8,6,7,4,11,12,2,3,1,15,14,13"
14676,commdev-image-keyboard-response,513,874111,learnblock2,449.59999990463257,img/planet10_right.png,10,Community 1,NA,TRUE,j,j,NA,NA,NA,2,6,"5,10,9,8,6,7,4,11,12,2,3,1,15,14,13"
14676,commdev-image-keyboard-response,514,875362,learnblock2,659.2000000476837,img/planet8_left.png,8,Community 1,NA,TRUE,f,f,NA,NA,NA,2,6,"5,10,9,8,6,7,4,11,12,2,3,1,15,14,13"
14676,commdev-image-keyboard-response,515,876614,learnblock2,521.7000000476837,img/planet10_right.png,10,Community 1,NA,TRUE,j,j,NA,NA,NA,2,6,"5,10,9,8,6,7,4,11,12,2,3,1,15,14,13"
14676,commdev-image-keyboard-response,516,877865,learnblock2,553.7000000476837,img/planet6_left.png,6,Community 1,NA,TRUE,f,f,NA,NA,NA,2,6,"5,10,9,8,6,7,4,11,12,2,3,1,15,14,13"
14676,commdev-image-keyboard-response,517,879117,learnblock2,652.2999999523163,img/planet10_right.png,10,Community 1,NA,TRUE,j,j,NA,NA,NA,2,6,"5,10,9,8,6,7,4,11,12,2,3,1,15,14,13"
14676,commdev-image-keyboard-response,518,880369,learnblock2,586.5,img/planet6_left.png,6,Community 1,NA,TRUE,f,f,NA,NA,NA,2,6,"5,10,9,8,6,7,4,11,12,2,3,1,15,14,13"
14676,commdev-image-keyboard-response,519,881620,learnblock2,546.4000000953674,img/planet10_right.png,10,Community 1,NA,TRUE,j,j,NA,NA,NA,2,6,"5,10,9,8,6,7,4,11,12,2,3,1,15,14,13"
14676,commdev-image-keyboard-response,520,882871,learnblock2,509.7000000476837,img/planet6_right.png,6,Community 1,NA,TRUE,j,j,NA,NA,NA,2,6,"5,10,9,8,6,7,4,11,12,2,3,1,15,14,13"
14676,commdev-image-keyboard-response,521,884123,learnblock2,488.5,img/planet9_right.png,9,Community 1,NA,TRUE,j,j,NA,NA,NA,2,6,"5,10,9,8,6,7,4,11,12,2,3,1,15,14,13"
14676,commdev-image-keyboard-response,522,885376,learnblock2,681.2999999523163,img/planet6_left.png,6,Community 1,NA,TRUE,f,f,NA,NA,NA,2,6,"5,10,9,8,6,7,4,11,12,2,3,1,15,14,13"
14676,commdev-image-keyboard-response,523,886628,learnblock2,662.0999999046326,img/planet5_left.png,5,Community 1,NA,TRUE,f,f,NA,NA,NA,2,6,"5,10,9,8,6,7,4,11,12,2,3,1,15,14,13"
14676,commdev-image-keyboard-response,524,887879,learnblock2,503,img/planet9_left.png,9,Community 1,NA,TRUE,f,f,NA,NA,NA,2,6,"5,10,9,8,6,7,4,11,12,2,3,1,15,14,13"
14676,commdev-image-keyboard-response,525,889131,learnblock2,582.5,img/planet6_right.png,6,Community 1,NA,TRUE,j,j,NA,NA,NA,2,6,"5,10,9,8,6,7,4,11,12,2,3,1,15,14,13"
14676,commdev-image-keyboard-response,526,890383,learnblock2,475,img/planet9_right.png,9,Community 1,NA,TRUE,j,j,NA,NA,NA,2,6,"5,10,9,8,6,7,4,11,12,2,3,1,15,14,13"
14676,commdev-image-keyboard-response,527,891634,learnblock2,583.7000000476837,img/planet8_left.png,8,Community 1,NA,TRUE,f,f,NA,NA,NA,2,6,"5,10,9,8,6,7,4,11,12,2,3,1,15,14,13"
14676,commdev-image-keyboard-response,528,892886,learnblock2,479.09999990463257,img/planet5_right.png,5,Community 1,NA,TRUE,j,j,NA,NA,NA,2,6,"5,10,9,8,6,7,4,11,12,2,3,1,15,14,13"
14676,commdev-image-keyboard-response,529,894137,learnblock2,805.3000001907349,img/planet8_right.png,8,Community 1,NA,TRUE,j,j,NA,NA,NA,2,6,"5,10,9,8,6,7,4,11,12,2,3,1,15,14,13"
14676,commdev-image-keyboard-response,530,895389,learnblock2,564.0999999046326,img/planet9_left.png,9,Community 1,NA,TRUE,f,f,NA,NA,NA,2,6,"5,10,9,8,6,7,4,11,12,2,3,1,15,14,13"
14676,commdev-image-keyboard-response,531,896641,learnblock2,557.1999998092651,img/planet8_right.png,8,Community 1,NA,TRUE,j,j,NA,NA,NA,2,6,"5,10,9,8,6,7,4,11,12,2,3,1,15,14,13"
14676,commdev-image-keyboard-response,532,897892,learnblock2,513.3999998569489,img/planet9_left.png,9,Community 1,NA,TRUE,f,f,NA,NA,NA,2,6,"5,10,9,8,6,7,4,11,12,2,3,1,15,14,13"
14676,commdev-image-keyboard-response,533,899145,learnblock2,515.4000000953674,img/planet10_left.png,10,Community 1,NA,FALSE,j,f,NA,NA,NA,2,6,"5,10,9,8,6,7,4,11,12,2,3,1,15,14,13"
14676,commdev-image-keyboard-response,534,900398,learnblock2,761.2999999523163,img/planet9_right.png,9,Community 1,NA,TRUE,j,j,NA,NA,NA,2,6,"5,10,9,8,6,7,4,11,12,2,3,1,15,14,13"
14676,commdev-image-keyboard-response,535,901649,learnblock2,562.1999998092651,img/planet6_left.png,6,Community 1,NA,TRUE,f,f,NA,NA,NA,2,6,"5,10,9,8,6,7,4,11,12,2,3,1,15,14,13"
14676,commdev-image-keyboard-response,536,902901,learnblock2,900.4000000953674,img/planet9_right.png,9,Community 1,NA,TRUE,j,j,NA,NA,NA,2,6,"5,10,9,8,6,7,4,11,12,2,3,1,15,14,13"
14676,commdev-image-keyboard-response,537,904153,learnblock2,738.8000001907349,img/planet10_left.png,10,Community 1,NA,TRUE,f,f,NA,NA,NA,2,6,"5,10,9,8,6,7,4,11,12,2,3,1,15,14,13"
14676,commdev-image-keyboard-response,538,905404,learnblock2,659.0999999046326,img/planet5_left.png,5,Community 1,NA,TRUE,f,f,NA,NA,NA,2,6,"5,10,9,8,6,7,4,11,12,2,3,1,15,14,13"
14676,commdev-image-keyboard-response,539,906656,learnblock2,580.2999999523163,img/planet10_right.png,10,Community 1,NA,TRUE,j,j,NA,NA,NA,2,6,"5,10,9,8,6,7,4,11,12,2,3,1,15,14,13"
14676,commdev-image-keyboard-response,540,907908,learnblock2,1093.8999998569489,img/planet8_left.png,8,Community 1,NA,TRUE,f,f,NA,NA,NA,2,6,"5,10,9,8,6,7,4,11,12,2,3,1,15,14,13"
14676,commdev-image-keyboard-response,541,909168,learnblock2,621.6000001430511,img/planet10_right.png,10,Community 1,NA,TRUE,j,j,NA,NA,NA,2,6,"5,10,9,8,6,7,4,11,12,2,3,1,15,14,13"
14676,commdev-image-keyboard-response,542,910420,learnblock2,801.8999998569489,img/planet6_left.png,6,Community 1,NA,TRUE,f,f,NA,NA,NA,2,6,"5,10,9,8,6,7,4,11,12,2,3,1,15,14,13"
14676,commdev-image-keyboard-response,543,911672,learnblock2,677.2000000476837,img/planet3_left.png,3,Community 3,NA,TRUE,f,f,NA,NA,NA,2,6,"5,10,9,8,6,7,4,11,12,2,3,1,15,14,13"
14676,commdev-image-keyboard-response,544,912923,learnblock2,502.7999999523163,img/planet15_right.png,15,Community 3,NA,FALSE,f,j,NA,NA,NA,2,6,"5,10,9,8,6,7,4,11,12,2,3,1,15,14,13"
14676,commdev-image-keyboard-response,545,914176,learnblock2,777.8999998569489,img/planet1_left.png,1,Community 3,NA,TRUE,f,f,NA,NA,NA,2,6,"5,10,9,8,6,7,4,11,12,2,3,1,15,14,13"
14676,commdev-image-keyboard-response,546,915427,learnblock2,565.2999999523163,img/planet14_left.png,14,Community 3,NA,TRUE,f,f,NA,NA,NA,2,6,"5,10,9,8,6,7,4,11,12,2,3,1,15,14,13"
14676,commdev-image-keyboard-response,547,916680,learnblock2,536.8999998569489,img/planet3_right.png,3,Community 3,NA,TRUE,j,j,NA,NA,NA,2,6,"5,10,9,8,6,7,4,11,12,2,3,1,15,14,13"
14676,commdev-image-keyboard-response,548,917932,learnblock2,596.5999999046326,img/planet13_right.png,13,Community 3,NA,TRUE,j,j,NA,NA,NA,2,6,"5,10,9,8,6,7,4,11,12,2,3,1,15,14,13"
14676,commdev-image-keyboard-response,549,919184,learnblock2,623.7000000476837,img/planet1_right.png,1,Community 3,NA,TRUE,j,j,NA,NA,NA,2,6,"5,10,9,8,6,7,4,11,12,2,3,1,15,14,13"
14676,commdev-image-keyboard-response,550,920436,learnblock2,574.0999999046326,img/planet11_left.png,11,Community 2,NA,TRUE,f,f,NA,NA,NA,2,6,"5,10,9,8,6,7,4,11,12,2,3,1,15,14,13"
14676,commdev-image-keyboard-response,551,921689,learnblock2,502.2000000476837,img/planet4_right.png,4,Community 2,NA,FALSE,f,j,NA,NA,NA,2,6,"5,10,9,8,6,7,4,11,12,2,3,1,15,14,13"
14676,commdev-image-keyboard-response,552,922939,learnblock2,673.2000000476837,img/planet7_left.png,7,Community 2,NA,TRUE,f,f,NA,NA,NA,2,6,"5,10,9,8,6,7,4,11,12,2,3,1,15,14,13"
14676,commdev-image-keyboard-response,553,924191,learnblock2,572,img/planet4_right.png,4,Community 2,NA,TRUE,j,j,NA,NA,NA,2,6,"5,10,9,8,6,7,4,11,12,2,3,1,15,14,13"
14676,commdev-image-keyboard-response,554,925443,learnblock2,664.6000001430511,img/planet7_left.png,7,Community 2,NA,TRUE,f,f,NA,NA,NA,2,6,"5,10,9,8,6,7,4,11,12,2,3,1,15,14,13"
14676,commdev-image-keyboard-response,555,926695,learnblock2,704.5,img/planet4_left.png,4,Community 2,NA,TRUE,f,f,NA,NA,NA,2,6,"5,10,9,8,6,7,4,11,12,2,3,1,15,14,13"
14676,commdev-image-keyboard-response,556,927945,learnblock2,569.5999999046326,img/planet7_right.png,7,Community 2,NA,TRUE,j,j,NA,NA,NA,2,6,"5,10,9,8,6,7,4,11,12,2,3,1,15,14,13"
14676,commdev-image-keyboard-response,557,929197,learnblock2,490,img/planet12_right.png,12,Community 2,NA,TRUE,j,j,NA,NA,NA,2,6,"5,10,9,8,6,7,4,11,12,2,3,1,15,14,13"
14676,commdev-image-keyboard-response,558,930449,learnblock2,559,img/planet11_left.png,11,Community 2,NA,TRUE,f,f,NA,NA,NA,2,6,"5,10,9,8,6,7,4,11,12,2,3,1,15,14,13"
14676,commdev-image-keyboard-response,559,931700,learnblock2,504.09999990463257,img/planet2_left.png,2,Community 2,NA,TRUE,f,f,NA,NA,NA,2,6,"5,10,9,8,6,7,4,11,12,2,3,1,15,14,13"
14676,commdev-image-keyboard-response,560,932951,learnblock2,608,img/planet11_right.png,11,Community 2,NA,TRUE,j,j,NA,NA,NA,2,6,"5,10,9,8,6,7,4,11,12,2,3,1,15,14,13"
14676,commdev-image-keyboard-response,561,934202,learnblock2,514.7999999523163,img/planet1_right.png,1,Community 3,NA,TRUE,j,j,NA,NA,NA,2,6,"5,10,9,8,6,7,4,11,12,2,3,1,15,14,13"
14676,commdev-image-keyboard-response,562,935453,learnblock2,528,img/planet11_right.png,11,Community 2,NA,TRUE,j,j,NA,NA,NA,2,6,"5,10,9,8,6,7,4,11,12,2,3,1,15,14,13"
14676,commdev-image-keyboard-response,563,936704,learnblock2,573,img/planet4_left.png,4,Community 2,NA,TRUE,f,f,NA,NA,NA,2,6,"5,10,9,8,6,7,4,11,12,2,3,1,15,14,13"
14676,commdev-image-keyboard-response,564,937956,learnblock2,620,img/planet7_left.png,7,Community 2,NA,TRUE,f,f,NA,NA,NA,2,6,"5,10,9,8,6,7,4,11,12,2,3,1,15,14,13"
14676,commdev-image-keyboard-response,565,939208,learnblock2,533.2000000476837,img/planet8_right.png,8,Community 1,NA,TRUE,j,j,NA,NA,NA,2,6,"5,10,9,8,6,7,4,11,12,2,3,1,15,14,13"
14676,commdev-image-keyboard-response,566,940459,learnblock2,495,img/planet10_left.png,10,Community 1,NA,TRUE,f,f,NA,NA,NA,2,6,"5,10,9,8,6,7,4,11,12,2,3,1,15,14,13"
14676,commdev-image-keyboard-response,567,941711,learnblock2,572.1000001430511,img/planet9_right.png,9,Community 1,NA,TRUE,j,j,NA,NA,NA,2,6,"5,10,9,8,6,7,4,11,12,2,3,1,15,14,13"
14676,commdev-image-keyboard-response,568,942962,learnblock2,514.2000000476837,img/planet10_right.png,10,Community 1,NA,TRUE,j,j,NA,NA,NA,2,6,"5,10,9,8,6,7,4,11,12,2,3,1,15,14,13"
14676,commdev-image-keyboard-response,569,944214,learnblock2,455.40000009536743,img/planet8_left.png,8,Community 1,NA,TRUE,f,f,NA,NA,NA,2,6,"5,10,9,8,6,7,4,11,12,2,3,1,15,14,13"
14676,commdev-image-keyboard-response,570,945466,learnblock2,448.39999985694885,img/planet9_left.png,9,Community 1,NA,TRUE,f,f,NA,NA,NA,2,6,"5,10,9,8,6,7,4,11,12,2,3,1,15,14,13"
14676,commdev-image-keyboard-response,571,946717,learnblock2,481.2000000476837,img/planet8_right.png,8,Community 1,NA,TRUE,j,j,NA,NA,NA,2,6,"5,10,9,8,6,7,4,11,12,2,3,1,15,14,13"
14676,commdev-image-keyboard-response,572,947969,learnblock2,444.2000000476837,img/planet10_right.png,10,Community 1,NA,TRUE,j,j,NA,NA,NA,2,6,"5,10,9,8,6,7,4,11,12,2,3,1,15,14,13"
14676,commdev-image-keyboard-response,573,949220,learnblock2,479.5,img/planet5_right.png,5,Community 1,NA,TRUE,j,j,NA,NA,NA,2,6,"5,10,9,8,6,7,4,11,12,2,3,1,15,14,13"
14676,commdev-image-keyboard-response,574,950472,learnblock2,477.2000000476837,img/planet10_right.png,10,Community 1,NA,TRUE,j,j,NA,NA,NA,2,6,"5,10,9,8,6,7,4,11,12,2,3,1,15,14,13"
14676,commdev-image-keyboard-response,575,951723,learnblock2,431.40000009536743,img/planet8_left.png,8,Community 1,NA,FALSE,j,f,NA,NA,NA,2,6,"5,10,9,8,6,7,4,11,12,2,3,1,15,14,13"
14676,commdev-image-keyboard-response,576,952975,learnblock2,582,img/planet10_right.png,10,Community 1,NA,TRUE,j,j,NA,NA,NA,2,6,"5,10,9,8,6,7,4,11,12,2,3,1,15,14,13"
14676,commdev-image-keyboard-response,577,954227,learnblock2,507.7999999523163,img/planet9_right.png,9,Community 1,NA,TRUE,j,j,NA,NA,NA,2,6,"5,10,9,8,6,7,4,11,12,2,3,1,15,14,13"
14676,commdev-image-keyboard-response,578,955479,learnblock2,494.39999985694885,img/planet5_right.png,5,Community 1,NA,TRUE,j,j,NA,NA,NA,2,6,"5,10,9,8,6,7,4,11,12,2,3,1,15,14,13"
14676,commdev-image-keyboard-response,579,956731,learnblock2,584.6999998092651,img/planet9_left.png,9,Community 1,NA,TRUE,f,f,NA,NA,NA,2,6,"5,10,9,8,6,7,4,11,12,2,3,1,15,14,13"
14676,commdev-image-keyboard-response,580,957983,learnblock2,491.40000009536743,img/planet5_right.png,5,Community 1,NA,TRUE,j,j,NA,NA,NA,2,6,"5,10,9,8,6,7,4,11,12,2,3,1,15,14,13"
14676,commdev-image-keyboard-response,581,959235,learnblock2,491.5,img/planet6_left.png,6,Community 1,NA,TRUE,f,f,NA,NA,NA,2,6,"5,10,9,8,6,7,4,11,12,2,3,1,15,14,13"
14676,commdev-image-keyboard-response,582,960486,learnblock2,656.5999999046326,img/planet5_right.png,5,Community 1,NA,TRUE,j,j,NA,NA,NA,2,6,"5,10,9,8,6,7,4,11,12,2,3,1,15,14,13"
14676,commdev-image-keyboard-response,583,961739,learnblock2,567.7999999523163,img/planet10_left.png,10,Community 1,NA,TRUE,f,f,NA,NA,NA,2,6,"5,10,9,8,6,7,4,11,12,2,3,1,15,14,13"
14676,commdev-image-keyboard-response,584,963004,learnblock2,422.19999980926514,img/planet8_right.png,8,Community 1,NA,TRUE,j,j,NA,NA,NA,2,6,"5,10,9,8,6,7,4,11,12,2,3,1,15,14,13"
14676,commdev-image-keyboard-response,585,964256,learnblock2,845.0999999046326,img/planet7_left.png,7,Community 2,NA,TRUE,f,f,NA,NA,NA,2,6,"5,10,9,8,6,7,4,11,12,2,3,1,15,14,13"
