subject_id,trial_type,trial_index,time_elapsed,block,rt,stimulus,planet,community,response,correct,key_press,learning_correct_response,parse,init_locations,final_locations,browser_interactions,num_comp,planet_map
15160,commdev-instructions,7,38800,NA,2448.300000190735,"<p>In this game, you will be shown a 3x3 grid of patterns.</p> <p>The last one in the bottom right-hand corner, <strong>will be missing:</strong></p> <div style='width: 700px;'><div style='float: top;'><img style='width: 200px;' src='practice/p1_M1.png'></img><p class='small'>You need to select<strong> which of the four possible patterns </strong>along the bottom<strong> fits into the gap:</strong></p></div><div style='float: top;'><img style='width: 300px;' src='practice/p1_T1.png'></img></div><br>",NA,NA,NA,NA,NA,NA,NA,NA,NA,2,6,"12,2,15,5,6,10,8,13,14,1,7,4,11,9,3"
15160,commdev-instructions,8,62688,NA,5968,"<p>Try to be as fast and as accurate as you can be.</p> <p>If you cannot solve the puzzle then you should guess - you will not be penalised for an incorrect answer.</p> <p>The task contains a shuffled mix of easy, medium and hard puzzles.</p> <p>You will have <strong>30 seconds</strong> to complete each puzzle.</p><br>",NA,NA,NA,NA,NA,NA,NA,NA,NA,2,6,"12,2,15,5,6,10,8,13,14,1,7,4,11,9,3"
15160,commdev-instructions,15,88383,NA,1762.8000001907349,<p><strong>Success!</strong></p> <p>You seem to be getting the hang of this...</p> <p>Let's move on to the real trials.</p><br>,NA,NA,NA,NA,NA,NA,NA,NA,NA,2,6,"12,2,15,5,6,10,8,13,14,1,7,4,11,9,3"
15160,commdev-instructions,97,577972,NA,1300.5,"<p>In this game, you are a scientist on board a space shuttle. </p><p> On each mission, you will visit planets all across the universe.</p><img src=""img/controlroom.jpg"" width=300vw>",NA,NA,NA,NA,NA,NA,NA,NA,NA,2,6,"12,2,15,5,6,10,8,13,14,1,7,4,11,9,3"
15160,commdev-instructions,98,582163,NA,2111.199999809265,"<p>Here are a few planets you might see:</p><img src=""img/practice1.png"" width=200vw><img src=""img/practice2.png"" width=200vw><img src=""img/practice3.png"" width=200vw>",NA,NA,NA,NA,NA,NA,NA,NA,NA,2,6,"12,2,15,5,6,10,8,13,14,1,7,4,11,9,3"
15160,commdev-instructions,99,590233,NA,671.1000003814697,"<p>Your job as a scientist is to record which direction the winds are moving on each planet.</p><p>There are two types of wind directions:</p><img src=""img/practice1_left.png"" width=200vw><img src=""img/practice1_right.png"" width=200vw>",NA,NA,NA,NA,NA,NA,NA,NA,NA,2,6,"12,2,15,5,6,10,8,13,14,1,7,4,11,9,3"
15160,commdev-instructions,100,599269,NA,4147.699999809265,"<p>If the winds are moving this way, press the letter <strong>F</strong> on the keyboard as fast as you can.</p><img src=""img/leftwind.png"" width=250vw>",NA,NA,NA,NA,NA,NA,NA,NA,NA,2,6,"12,2,15,5,6,10,8,13,14,1,7,4,11,9,3"
15160,commdev-instructions,101,614565,NA,10803.199999809265,"<p>If the winds are moving this way, press the letter <strong>J</strong> on the keyboard as fast as you can.</p><img src=""img/rightwind.png"" width=350vw>",NA,NA,NA,NA,NA,NA,NA,NA,NA,2,6,"12,2,15,5,6,10,8,13,14,1,7,4,11,9,3"
15160,commdev-instructions,102,627588,NA,8606.900000095367,<p>You will have 1 second to respond. Try to respond before the time runs out!,NA,NA,NA,NA,NA,NA,NA,NA,NA,2,6,"12,2,15,5,6,10,8,13,14,1,7,4,11,9,3"
15160,commdev-instructions,103,635731,NA,2709.9000000953674,<p>The planets you will visit will look different from each other.</p><p>You should respond <strong>only</strong> based on wind direction.,NA,NA,NA,NA,NA,NA,NA,NA,NA,2,6,"12,2,15,5,6,10,8,13,14,1,7,4,11,9,3"
15160,commdev-instructions,104,643808,NA,2895.699999809265,"<p> Ready to start the practice round? </p><p> Remember, press <strong>F</strong> or <strong>J</strong> depending on the wind direction.<br><img src=""img/categorize_planet_example.png""",NA,NA,NA,NA,NA,NA,NA,NA,NA,2,6,"12,2,15,5,6,10,8,13,14,1,7,4,11,9,3"
15160,commdev-instructions,116,722691,NA,1536.9000000953674,"<p>Great, now try a short practice mission. </p><p> This time, you will have 1 second to respond and you won't know whether you pressed the right or wrong key for each planet.</p>",NA,NA,NA,NA,NA,NA,NA,NA,NA,2,6,"12,2,15,5,6,10,8,13,14,1,7,4,11,9,3"
15160,commdev-image-keyboard-response,117,724052,practice,695.4000000953674,img/practice4_left.png,NA,Number not found in mappings,NA,TRUE,f,f,NA,NA,NA,2,6,"12,2,15,5,6,10,8,13,14,1,7,4,11,9,3"
15160,commdev-image-keyboard-response,118,725316,practice,1229,img/practice2_left.png,NA,Number not found in mappings,NA,TRUE,f,f,NA,NA,NA,2,6,"12,2,15,5,6,10,8,13,14,1,7,4,11,9,3"
15160,commdev-image-keyboard-response,119,726578,practice,725.0999999046326,img/practice3_right.png,NA,Number not found in mappings,NA,TRUE,j,j,NA,NA,NA,2,6,"12,2,15,5,6,10,8,13,14,1,7,4,11,9,3"
15160,commdev-image-keyboard-response,120,727842,practice,694.5999999046326,img/practice4_left.png,NA,Number not found in mappings,NA,TRUE,f,f,NA,NA,NA,2,6,"12,2,15,5,6,10,8,13,14,1,7,4,11,9,3"
15160,commdev-image-keyboard-response,121,729094,practice,779.8000001907349,img/practice3_right.png,NA,Number not found in mappings,NA,TRUE,j,j,NA,NA,NA,2,6,"12,2,15,5,6,10,8,13,14,1,7,4,11,9,3"
15160,commdev-image-keyboard-response,122,730354,practice,828.8000001907349,img/practice1_right.png,NA,Number not found in mappings,NA,TRUE,j,j,NA,NA,NA,2,6,"12,2,15,5,6,10,8,13,14,1,7,4,11,9,3"
15160,commdev-image-keyboard-response,123,731617,practice,801.0999999046326,img/practice4_right.png,NA,Number not found in mappings,NA,TRUE,j,j,NA,NA,NA,2,6,"12,2,15,5,6,10,8,13,14,1,7,4,11,9,3"
15160,commdev-image-keyboard-response,124,732879,practice,903.9000000953674,img/practice3_right.png,NA,Number not found in mappings,NA,TRUE,j,j,NA,NA,NA,2,6,"12,2,15,5,6,10,8,13,14,1,7,4,11,9,3"
15160,commdev-instructions,125,744554,NA,2120.699999809265,"<p>Great job with the practice round.</p><p>During real missions, you won't know whether you pressed the right or wrong key for each planet.</p><p>But between missions, we will tell you how you did overall.</p>",NA,NA,NA,NA,NA,NA,NA,NA,NA,2,6,"12,2,15,5,6,10,8,13,14,1,7,4,11,9,3"
15160,commdev-instructions,126,754319,NA,1515.4000000953674,<p>Try your best! You will be paid a bonus based on how many correct responses you make!</p><p>Responses that are too slow will not count toward your bonus.</p>,NA,NA,NA,NA,NA,NA,NA,NA,NA,2,6,"12,2,15,5,6,10,8,13,14,1,7,4,11,9,3"
15160,commdev-instructions,127,761524,NA,999.9000000953674,"<p>You are almost ready to start the real game.</p><p> First, we are going to ask you some questions about how the game works.</p>",NA,NA,NA,NA,NA,NA,NA,NA,NA,2,6,"12,2,15,5,6,10,8,13,14,1,7,4,11,9,3"
15160,commdev-instructions,136,860600,NA,4255.300000190735,"<p> Nice work! It is now time to start the real game.<p></p>You will go on two missions to record wind directions of different planets.<p></p>Each one will take about 5 minutes. You will get to take a break between missions.<p><p> Remember, press <strong>F</strong> or <strong>J</strong> depending on the wind direction. Good luck!<br><img src=""img/categorize_planet_example.png""",NA,NA,NA,NA,NA,NA,NA,NA,NA,2,6,"12,2,15,5,6,10,8,13,14,1,7,4,11,9,3"
15160,commdev-image-keyboard-response,138,867487,learnblock1,957.4000000953674,img/planet3_left.png,3,Community 3,NA,TRUE,f,f,NA,NA,NA,2,6,"12,2,15,5,6,10,8,13,14,1,7,4,11,9,3"
15160,commdev-image-keyboard-response,139,868749,learnblock1,784.6000003814697,img/planet11_right.png,11,Community 3,NA,TRUE,j,j,NA,NA,NA,2,6,"12,2,15,5,6,10,8,13,14,1,7,4,11,9,3"
15160,commdev-image-keyboard-response,140,870001,learnblock1,903.5999999046326,img/planet9_left.png,9,Community 3,NA,TRUE,f,f,NA,NA,NA,2,6,"12,2,15,5,6,10,8,13,14,1,7,4,11,9,3"
15160,commdev-image-keyboard-response,141,871266,learnblock1,861.4000000953674,img/planet7_left.png,7,Community 3,NA,TRUE,f,f,NA,NA,NA,2,6,"12,2,15,5,6,10,8,13,14,1,7,4,11,9,3"
15160,commdev-image-keyboard-response,142,872529,learnblock1,596.2000002861023,img/planet9_right.png,9,Community 3,NA,TRUE,j,j,NA,NA,NA,2,6,"12,2,15,5,6,10,8,13,14,1,7,4,11,9,3"
15160,commdev-image-keyboard-response,143,873790,learnblock1,1223.8000001907349,img/planet11_right.png,11,Community 3,NA,FALSE,f,j,NA,NA,NA,2,6,"12,2,15,5,6,10,8,13,14,1,7,4,11,9,3"
15160,commdev-image-keyboard-response,144,875054,learnblock1,null,img/planet3_left.png,3,Community 3,NA,FALSE,null,f,NA,NA,NA,2,6,"12,2,15,5,6,10,8,13,14,1,7,4,11,9,3"
15160,commdev-image-keyboard-response,145,876318,learnblock1,108.09999990463257,img/planet11_left.png,11,Community 3,NA,TRUE,f,f,NA,NA,NA,2,6,"12,2,15,5,6,10,8,13,14,1,7,4,11,9,3"
15160,commdev-image-keyboard-response,146,877582,learnblock1,844.8000001907349,img/planet7_right.png,7,Community 3,NA,TRUE,j,j,NA,NA,NA,2,6,"12,2,15,5,6,10,8,13,14,1,7,4,11,9,3"
15160,commdev-image-keyboard-response,147,878844,learnblock1,800.5,img/planet3_left.png,3,Community 3,NA,TRUE,f,f,NA,NA,NA,2,6,"12,2,15,5,6,10,8,13,14,1,7,4,11,9,3"
15160,commdev-image-keyboard-response,148,880106,learnblock1,1108.0999999046326,img/planet7_left.png,7,Community 3,NA,TRUE,f,f,NA,NA,NA,2,6,"12,2,15,5,6,10,8,13,14,1,7,4,11,9,3"
15160,commdev-image-keyboard-response,149,881367,learnblock1,777.4000000953674,img/planet9_left.png,9,Community 3,NA,TRUE,f,f,NA,NA,NA,2,6,"12,2,15,5,6,10,8,13,14,1,7,4,11,9,3"
15160,commdev-image-keyboard-response,150,882632,learnblock1,565.4000000953674,img/planet3_left.png,3,Community 3,NA,TRUE,f,f,NA,NA,NA,2,6,"12,2,15,5,6,10,8,13,14,1,7,4,11,9,3"
15160,commdev-image-keyboard-response,151,883900,learnblock1,579.4000000953674,img/planet7_right.png,7,Community 3,NA,TRUE,j,j,NA,NA,NA,2,6,"12,2,15,5,6,10,8,13,14,1,7,4,11,9,3"
15160,commdev-image-keyboard-response,152,885153,learnblock1,595.5,img/planet3_left.png,3,Community 3,NA,TRUE,f,f,NA,NA,NA,2,6,"12,2,15,5,6,10,8,13,14,1,7,4,11,9,3"
15160,commdev-image-keyboard-response,153,886406,learnblock1,578.8000001907349,img/planet4_right.png,4,Community 3,NA,TRUE,j,j,NA,NA,NA,2,6,"12,2,15,5,6,10,8,13,14,1,7,4,11,9,3"
15160,commdev-image-keyboard-response,154,887658,learnblock1,626.9000000953674,img/planet9_right.png,9,Community 3,NA,TRUE,j,j,NA,NA,NA,2,6,"12,2,15,5,6,10,8,13,14,1,7,4,11,9,3"
15160,commdev-image-keyboard-response,155,888910,learnblock1,494.2000002861023,img/planet4_right.png,4,Community 3,NA,TRUE,j,j,NA,NA,NA,2,6,"12,2,15,5,6,10,8,13,14,1,7,4,11,9,3"
15160,commdev-image-keyboard-response,156,890161,learnblock1,645.1999998092651,img/planet11_right.png,11,Community 3,NA,TRUE,j,j,NA,NA,NA,2,6,"12,2,15,5,6,10,8,13,14,1,7,4,11,9,3"
15160,commdev-image-keyboard-response,157,891413,learnblock1,591,img/planet4_right.png,4,Community 3,NA,TRUE,j,j,NA,NA,NA,2,6,"12,2,15,5,6,10,8,13,14,1,7,4,11,9,3"
15160,commdev-image-keyboard-response,158,892665,learnblock1,669.5999999046326,img/planet3_right.png,3,Community 3,NA,TRUE,j,j,NA,NA,NA,2,6,"12,2,15,5,6,10,8,13,14,1,7,4,11,9,3"
15160,commdev-image-keyboard-response,159,893917,learnblock1,506.80000019073486,img/planet11_right.png,11,Community 3,NA,TRUE,j,j,NA,NA,NA,2,6,"12,2,15,5,6,10,8,13,14,1,7,4,11,9,3"
15160,commdev-image-keyboard-response,160,895169,learnblock1,555.1999998092651,img/planet7_right.png,7,Community 3,NA,TRUE,j,j,NA,NA,NA,2,6,"12,2,15,5,6,10,8,13,14,1,7,4,11,9,3"
15160,commdev-image-keyboard-response,161,896420,learnblock1,533.7000002861023,img/planet9_right.png,9,Community 3,NA,TRUE,j,j,NA,NA,NA,2,6,"12,2,15,5,6,10,8,13,14,1,7,4,11,9,3"
15160,commdev-image-keyboard-response,162,897672,learnblock1,542.1000003814697,img/planet3_right.png,3,Community 3,NA,TRUE,j,j,NA,NA,NA,2,6,"12,2,15,5,6,10,8,13,14,1,7,4,11,9,3"
15160,commdev-image-keyboard-response,163,898924,learnblock1,460.69999980926514,img/planet4_right.png,4,Community 3,NA,TRUE,j,j,NA,NA,NA,2,6,"12,2,15,5,6,10,8,13,14,1,7,4,11,9,3"
15160,commdev-image-keyboard-response,164,900176,learnblock1,389.59999990463257,img/planet13_left.png,13,Community 2,NA,FALSE,j,f,NA,NA,NA,2,6,"12,2,15,5,6,10,8,13,14,1,7,4,11,9,3"
15160,commdev-image-keyboard-response,165,901428,learnblock1,676.0999999046326,img/planet8_left.png,8,Community 2,NA,TRUE,f,f,NA,NA,NA,2,6,"12,2,15,5,6,10,8,13,14,1,7,4,11,9,3"
15160,commdev-image-keyboard-response,166,902680,learnblock1,695,img/planet14_right.png,14,Community 2,NA,TRUE,j,j,NA,NA,NA,2,6,"12,2,15,5,6,10,8,13,14,1,7,4,11,9,3"
15160,commdev-image-keyboard-response,167,903931,learnblock1,672.8000001907349,img/planet8_right.png,8,Community 2,NA,TRUE,j,j,NA,NA,NA,2,6,"12,2,15,5,6,10,8,13,14,1,7,4,11,9,3"
15160,commdev-image-keyboard-response,168,905183,learnblock1,641.1999998092651,img/planet13_left.png,13,Community 2,NA,TRUE,f,f,NA,NA,NA,2,6,"12,2,15,5,6,10,8,13,14,1,7,4,11,9,3"
15160,commdev-image-keyboard-response,169,906440,learnblock1,621.9000000953674,img/planet4_left.png,4,Community 3,NA,TRUE,f,f,NA,NA,NA,2,6,"12,2,15,5,6,10,8,13,14,1,7,4,11,9,3"
15160,commdev-image-keyboard-response,170,907692,learnblock1,572.0999999046326,img/planet3_right.png,3,Community 3,NA,TRUE,j,j,NA,NA,NA,2,6,"12,2,15,5,6,10,8,13,14,1,7,4,11,9,3"
15160,commdev-image-keyboard-response,171,908944,learnblock1,550.5,img/planet4_left.png,4,Community 3,NA,TRUE,f,f,NA,NA,NA,2,6,"12,2,15,5,6,10,8,13,14,1,7,4,11,9,3"
15160,commdev-image-keyboard-response,172,910196,learnblock1,668.8000001907349,img/planet11_left.png,11,Community 3,NA,TRUE,f,f,NA,NA,NA,2,6,"12,2,15,5,6,10,8,13,14,1,7,4,11,9,3"
15160,commdev-image-keyboard-response,173,911448,learnblock1,956.7999997138977,img/planet9_left.png,9,Community 3,NA,TRUE,f,f,NA,NA,NA,2,6,"12,2,15,5,6,10,8,13,14,1,7,4,11,9,3"
15160,commdev-image-keyboard-response,174,912700,learnblock1,927.6999998092651,img/planet3_left.png,3,Community 3,NA,TRUE,f,f,NA,NA,NA,2,6,"12,2,15,5,6,10,8,13,14,1,7,4,11,9,3"
15160,commdev-image-keyboard-response,175,913952,learnblock1,822.1999998092651,img/planet4_right.png,4,Community 3,NA,TRUE,j,j,NA,NA,NA,2,6,"12,2,15,5,6,10,8,13,14,1,7,4,11,9,3"
15160,commdev-image-keyboard-response,176,915203,learnblock1,760.7999997138977,img/planet9_left.png,9,Community 3,NA,TRUE,f,f,NA,NA,NA,2,6,"12,2,15,5,6,10,8,13,14,1,7,4,11,9,3"
15160,commdev-image-keyboard-response,177,916455,learnblock1,839.6000003814697,img/planet11_left.png,11,Community 3,NA,TRUE,f,f,NA,NA,NA,2,6,"12,2,15,5,6,10,8,13,14,1,7,4,11,9,3"
15160,commdev-image-keyboard-response,178,917707,learnblock1,757.6999998092651,img/planet9_left.png,9,Community 3,NA,TRUE,f,f,NA,NA,NA,2,6,"12,2,15,5,6,10,8,13,14,1,7,4,11,9,3"
15160,commdev-image-keyboard-response,179,918959,learnblock1,735,img/planet7_right.png,7,Community 3,NA,TRUE,j,j,NA,NA,NA,2,6,"12,2,15,5,6,10,8,13,14,1,7,4,11,9,3"
15160,commdev-image-keyboard-response,180,920212,learnblock1,704.2999997138977,img/planet6_right.png,6,Community 1,NA,TRUE,j,j,NA,NA,NA,2,6,"12,2,15,5,6,10,8,13,14,1,7,4,11,9,3"
15160,commdev-image-keyboard-response,181,921464,learnblock1,660.5,img/planet15_right.png,15,Community 1,NA,TRUE,j,j,NA,NA,NA,2,6,"12,2,15,5,6,10,8,13,14,1,7,4,11,9,3"
15160,commdev-image-keyboard-response,182,922715,learnblock1,669,img/planet2_left.png,2,Community 1,NA,TRUE,f,f,NA,NA,NA,2,6,"12,2,15,5,6,10,8,13,14,1,7,4,11,9,3"
15160,commdev-image-keyboard-response,183,923967,learnblock1,577.7999997138977,img/planet15_left.png,15,Community 1,NA,TRUE,f,f,NA,NA,NA,2,6,"12,2,15,5,6,10,8,13,14,1,7,4,11,9,3"
15160,commdev-image-keyboard-response,184,925218,learnblock1,615.9000000953674,img/planet6_left.png,6,Community 1,NA,TRUE,f,f,NA,NA,NA,2,6,"12,2,15,5,6,10,8,13,14,1,7,4,11,9,3"
15160,commdev-image-keyboard-response,185,926470,learnblock1,516.5999999046326,img/planet7_left.png,7,Community 3,NA,TRUE,f,f,NA,NA,NA,2,6,"12,2,15,5,6,10,8,13,14,1,7,4,11,9,3"
15160,commdev-image-keyboard-response,186,927722,learnblock1,552.1999998092651,img/planet11_left.png,11,Community 3,NA,TRUE,f,f,NA,NA,NA,2,6,"12,2,15,5,6,10,8,13,14,1,7,4,11,9,3"
15160,commdev-image-keyboard-response,187,928974,learnblock1,530.5,img/planet4_right.png,4,Community 3,NA,TRUE,j,j,NA,NA,NA,2,6,"12,2,15,5,6,10,8,13,14,1,7,4,11,9,3"
15160,commdev-image-keyboard-response,188,930226,learnblock1,527.7000002861023,img/planet3_left.png,3,Community 3,NA,TRUE,f,f,NA,NA,NA,2,6,"12,2,15,5,6,10,8,13,14,1,7,4,11,9,3"
15160,commdev-image-keyboard-response,189,931478,learnblock1,495.80000019073486,img/planet4_left.png,4,Community 3,NA,TRUE,f,f,NA,NA,NA,2,6,"12,2,15,5,6,10,8,13,14,1,7,4,11,9,3"
15160,commdev-image-keyboard-response,190,932729,learnblock1,564.3999996185303,img/planet3_right.png,3,Community 3,NA,TRUE,j,j,NA,NA,NA,2,6,"12,2,15,5,6,10,8,13,14,1,7,4,11,9,3"
15160,commdev-image-keyboard-response,191,933981,learnblock1,583.8000001907349,img/planet9_right.png,9,Community 3,NA,TRUE,j,j,NA,NA,NA,2,6,"12,2,15,5,6,10,8,13,14,1,7,4,11,9,3"
15160,commdev-image-keyboard-response,192,935234,learnblock1,551.7999997138977,img/planet3_left.png,3,Community 3,NA,TRUE,f,f,NA,NA,NA,2,6,"12,2,15,5,6,10,8,13,14,1,7,4,11,9,3"
15160,commdev-image-keyboard-response,193,936486,learnblock1,539,img/planet7_right.png,7,Community 3,NA,TRUE,j,j,NA,NA,NA,2,6,"12,2,15,5,6,10,8,13,14,1,7,4,11,9,3"
15160,commdev-image-keyboard-response,194,937749,learnblock1,616.4000000953674,img/planet3_left.png,3,Community 3,NA,TRUE,f,f,NA,NA,NA,2,6,"12,2,15,5,6,10,8,13,14,1,7,4,11,9,3"
15160,commdev-image-keyboard-response,195,939000,learnblock1,564.9000000953674,img/planet11_left.png,11,Community 3,NA,TRUE,f,f,NA,NA,NA,2,6,"12,2,15,5,6,10,8,13,14,1,7,4,11,9,3"
15160,commdev-image-keyboard-response,196,940252,learnblock1,495,img/planet9_left.png,9,Community 3,NA,TRUE,f,f,NA,NA,NA,2,6,"12,2,15,5,6,10,8,13,14,1,7,4,11,9,3"
15160,commdev-image-keyboard-response,197,941504,learnblock1,419.90000009536743,img/planet11_left.png,11,Community 3,NA,TRUE,f,f,NA,NA,NA,2,6,"12,2,15,5,6,10,8,13,14,1,7,4,11,9,3"
15160,commdev-image-keyboard-response,198,942756,learnblock1,507.90000009536743,img/planet7_left.png,7,Community 3,NA,TRUE,f,f,NA,NA,NA,2,6,"12,2,15,5,6,10,8,13,14,1,7,4,11,9,3"
15160,commdev-image-keyboard-response,199,944008,learnblock1,757.1999998092651,img/planet11_right.png,11,Community 3,NA,TRUE,j,j,NA,NA,NA,2,6,"12,2,15,5,6,10,8,13,14,1,7,4,11,9,3"
15160,commdev-image-keyboard-response,200,945259,learnblock1,934.7999997138977,img/planet4_left.png,4,Community 3,NA,TRUE,f,f,NA,NA,NA,2,6,"12,2,15,5,6,10,8,13,14,1,7,4,11,9,3"
15160,commdev-image-keyboard-response,201,946512,learnblock1,943.2999997138977,img/planet11_right.png,11,Community 3,NA,TRUE,j,j,NA,NA,NA,2,6,"12,2,15,5,6,10,8,13,14,1,7,4,11,9,3"
15160,commdev-image-keyboard-response,202,947765,learnblock1,811.1999998092651,img/planet7_left.png,7,Community 3,NA,TRUE,f,f,NA,NA,NA,2,6,"12,2,15,5,6,10,8,13,14,1,7,4,11,9,3"
15160,commdev-image-keyboard-response,203,949028,learnblock1,717.5,img/planet6_left.png,6,Community 1,NA,TRUE,f,f,NA,NA,NA,2,6,"12,2,15,5,6,10,8,13,14,1,7,4,11,9,3"
15160,commdev-image-keyboard-response,204,950287,learnblock1,763.6999998092651,img/planet12_left.png,12,Community 1,NA,TRUE,f,f,NA,NA,NA,2,6,"12,2,15,5,6,10,8,13,14,1,7,4,11,9,3"
15160,commdev-image-keyboard-response,205,951539,learnblock1,654.5,img/planet15_right.png,15,Community 1,NA,TRUE,j,j,NA,NA,NA,2,6,"12,2,15,5,6,10,8,13,14,1,7,4,11,9,3"
15160,commdev-image-keyboard-response,206,952791,learnblock1,622.7000002861023,img/planet5_right.png,5,Community 1,NA,TRUE,j,j,NA,NA,NA,2,6,"12,2,15,5,6,10,8,13,14,1,7,4,11,9,3"
15160,commdev-image-keyboard-response,207,954043,learnblock1,570.3000001907349,img/planet15_left.png,15,Community 1,NA,TRUE,f,f,NA,NA,NA,2,6,"12,2,15,5,6,10,8,13,14,1,7,4,11,9,3"
15160,commdev-image-keyboard-response,208,955295,learnblock1,699.2000002861023,img/planet6_left.png,6,Community 1,NA,TRUE,f,f,NA,NA,NA,2,6,"12,2,15,5,6,10,8,13,14,1,7,4,11,9,3"
15160,commdev-image-keyboard-response,209,956547,learnblock1,657.5999999046326,img/planet7_right.png,7,Community 3,NA,TRUE,j,j,NA,NA,NA,2,6,"12,2,15,5,6,10,8,13,14,1,7,4,11,9,3"
15160,commdev-image-keyboard-response,210,957799,learnblock1,614.5,img/planet6_left.png,6,Community 1,NA,TRUE,f,f,NA,NA,NA,2,6,"12,2,15,5,6,10,8,13,14,1,7,4,11,9,3"
15160,commdev-image-keyboard-response,211,959051,learnblock1,693.9000000953674,img/planet7_left.png,7,Community 3,NA,TRUE,f,f,NA,NA,NA,2,6,"12,2,15,5,6,10,8,13,14,1,7,4,11,9,3"
15160,commdev-image-keyboard-response,212,960316,learnblock1,582.1999998092651,img/planet6_left.png,6,Community 1,NA,TRUE,f,f,NA,NA,NA,2,6,"12,2,15,5,6,10,8,13,14,1,7,4,11,9,3"
15160,commdev-image-keyboard-response,213,961581,learnblock1,655.8999996185303,img/planet12_left.png,12,Community 1,NA,TRUE,f,f,NA,NA,NA,2,6,"12,2,15,5,6,10,8,13,14,1,7,4,11,9,3"
15160,commdev-image-keyboard-response,214,962832,learnblock1,732,img/planet5_left.png,5,Community 1,NA,TRUE,f,f,NA,NA,NA,2,6,"12,2,15,5,6,10,8,13,14,1,7,4,11,9,3"
15160,commdev-image-keyboard-response,215,964084,learnblock1,679.9000000953674,img/planet12_left.png,12,Community 1,NA,TRUE,f,f,NA,NA,NA,2,6,"12,2,15,5,6,10,8,13,14,1,7,4,11,9,3"
15160,commdev-image-keyboard-response,216,965336,learnblock1,518.0999999046326,img/planet15_right.png,15,Community 1,NA,TRUE,j,j,NA,NA,NA,2,6,"12,2,15,5,6,10,8,13,14,1,7,4,11,9,3"
15160,commdev-image-keyboard-response,217,966588,learnblock1,556.2000002861023,img/planet6_right.png,6,Community 1,NA,TRUE,j,j,NA,NA,NA,2,6,"12,2,15,5,6,10,8,13,14,1,7,4,11,9,3"
15160,commdev-image-keyboard-response,218,967840,learnblock1,543.6999998092651,img/planet2_left.png,2,Community 1,NA,TRUE,f,f,NA,NA,NA,2,6,"12,2,15,5,6,10,8,13,14,1,7,4,11,9,3"
15160,commdev-image-keyboard-response,219,969091,learnblock1,562.4000000953674,img/planet5_right.png,5,Community 1,NA,TRUE,j,j,NA,NA,NA,2,6,"12,2,15,5,6,10,8,13,14,1,7,4,11,9,3"
15160,commdev-image-keyboard-response,220,970343,learnblock1,594.3000001907349,img/planet2_left.png,2,Community 1,NA,TRUE,f,f,NA,NA,NA,2,6,"12,2,15,5,6,10,8,13,14,1,7,4,11,9,3"
15160,commdev-image-keyboard-response,221,971594,learnblock1,789,img/planet12_right.png,12,Community 1,NA,TRUE,j,j,NA,NA,NA,2,6,"12,2,15,5,6,10,8,13,14,1,7,4,11,9,3"
15160,commdev-image-keyboard-response,222,972846,learnblock1,897.6999998092651,img/planet6_right.png,6,Community 1,NA,TRUE,j,j,NA,NA,NA,2,6,"12,2,15,5,6,10,8,13,14,1,7,4,11,9,3"
15160,commdev-image-keyboard-response,223,974097,learnblock1,795.6999998092651,img/planet7_right.png,7,Community 3,NA,TRUE,j,j,NA,NA,NA,2,6,"12,2,15,5,6,10,8,13,14,1,7,4,11,9,3"
15160,commdev-image-keyboard-response,224,975350,learnblock1,694.2000002861023,img/planet3_left.png,3,Community 3,NA,TRUE,f,f,NA,NA,NA,2,6,"12,2,15,5,6,10,8,13,14,1,7,4,11,9,3"
15160,commdev-image-keyboard-response,225,976601,learnblock1,622.5999999046326,img/planet11_left.png,11,Community 3,NA,TRUE,f,f,NA,NA,NA,2,6,"12,2,15,5,6,10,8,13,14,1,7,4,11,9,3"
15160,commdev-image-keyboard-response,226,977854,learnblock1,520.3000001907349,img/planet3_right.png,3,Community 3,NA,TRUE,j,j,NA,NA,NA,2,6,"12,2,15,5,6,10,8,13,14,1,7,4,11,9,3"
15160,commdev-image-keyboard-response,227,979106,learnblock1,607.4000000953674,img/planet7_right.png,7,Community 3,NA,TRUE,j,j,NA,NA,NA,2,6,"12,2,15,5,6,10,8,13,14,1,7,4,11,9,3"
15160,commdev-image-keyboard-response,228,980358,learnblock1,605.6999998092651,img/planet11_left.png,11,Community 3,NA,TRUE,f,f,NA,NA,NA,2,6,"12,2,15,5,6,10,8,13,14,1,7,4,11,9,3"
15160,commdev-image-keyboard-response,229,981609,learnblock1,694.0999999046326,img/planet3_left.png,3,Community 3,NA,TRUE,f,f,NA,NA,NA,2,6,"12,2,15,5,6,10,8,13,14,1,7,4,11,9,3"
15160,commdev-image-keyboard-response,230,982861,learnblock1,1162.9000000953674,img/planet11_left.png,11,Community 3,NA,TRUE,f,f,NA,NA,NA,2,6,"12,2,15,5,6,10,8,13,14,1,7,4,11,9,3"
15160,commdev-image-keyboard-response,231,984112,learnblock1,901.1999998092651,img/planet9_left.png,9,Community 3,NA,TRUE,f,f,NA,NA,NA,2,6,"12,2,15,5,6,10,8,13,14,1,7,4,11,9,3"
15160,commdev-image-keyboard-response,232,985364,learnblock1,559.3000001907349,img/planet4_right.png,4,Community 3,NA,TRUE,j,j,NA,NA,NA,2,6,"12,2,15,5,6,10,8,13,14,1,7,4,11,9,3"
15160,commdev-image-keyboard-response,233,986616,learnblock1,628.2999997138977,img/planet11_left.png,11,Community 3,NA,TRUE,f,f,NA,NA,NA,2,6,"12,2,15,5,6,10,8,13,14,1,7,4,11,9,3"
15160,commdev-image-keyboard-response,234,987868,learnblock1,515.7000002861023,img/planet3_right.png,3,Community 3,NA,TRUE,j,j,NA,NA,NA,2,6,"12,2,15,5,6,10,8,13,14,1,7,4,11,9,3"
15160,commdev-image-keyboard-response,235,989119,learnblock1,814.2999997138977,img/planet4_right.png,4,Community 3,NA,TRUE,j,j,NA,NA,NA,2,6,"12,2,15,5,6,10,8,13,14,1,7,4,11,9,3"
15160,commdev-image-keyboard-response,236,990371,learnblock1,752.5,img/planet11_left.png,11,Community 3,NA,TRUE,f,f,NA,NA,NA,2,6,"12,2,15,5,6,10,8,13,14,1,7,4,11,9,3"
15160,commdev-image-keyboard-response,237,991622,learnblock1,1111.5,img/planet3_left.png,3,Community 3,NA,TRUE,f,f,NA,NA,NA,2,6,"12,2,15,5,6,10,8,13,14,1,7,4,11,9,3"
15160,commdev-image-keyboard-response,238,992874,learnblock1,981.1999998092651,img/planet9_left.png,9,Community 3,NA,TRUE,f,f,NA,NA,NA,2,6,"12,2,15,5,6,10,8,13,14,1,7,4,11,9,3"
15160,commdev-image-keyboard-response,239,994127,learnblock1,707.5999999046326,img/planet7_left.png,7,Community 3,NA,TRUE,f,f,NA,NA,NA,2,6,"12,2,15,5,6,10,8,13,14,1,7,4,11,9,3"
15160,commdev-image-keyboard-response,240,995379,learnblock1,654.6000003814697,img/planet9_left.png,9,Community 3,NA,TRUE,f,f,NA,NA,NA,2,6,"12,2,15,5,6,10,8,13,14,1,7,4,11,9,3"
15160,commdev-image-keyboard-response,241,996631,learnblock1,533.0999999046326,img/planet4_left.png,4,Community 3,NA,TRUE,f,f,NA,NA,NA,2,6,"12,2,15,5,6,10,8,13,14,1,7,4,11,9,3"
15160,commdev-image-keyboard-response,242,997883,learnblock1,591.6999998092651,img/planet11_right.png,11,Community 3,NA,TRUE,j,j,NA,NA,NA,2,6,"12,2,15,5,6,10,8,13,14,1,7,4,11,9,3"
15160,commdev-image-keyboard-response,243,999134,learnblock1,759.2999997138977,img/planet3_right.png,3,Community 3,NA,TRUE,j,j,NA,NA,NA,2,6,"12,2,15,5,6,10,8,13,14,1,7,4,11,9,3"
15160,commdev-image-keyboard-response,244,1000386,learnblock1,667.8999996185303,img/planet9_left.png,9,Community 3,NA,TRUE,f,f,NA,NA,NA,2,6,"12,2,15,5,6,10,8,13,14,1,7,4,11,9,3"
15160,commdev-image-keyboard-response,245,1001637,learnblock1,605.9000000953674,img/planet3_right.png,3,Community 3,NA,TRUE,j,j,NA,NA,NA,2,6,"12,2,15,5,6,10,8,13,14,1,7,4,11,9,3"
15160,commdev-image-keyboard-response,246,1002889,learnblock1,504.2999997138977,img/planet9_right.png,9,Community 3,NA,FALSE,f,j,NA,NA,NA,2,6,"12,2,15,5,6,10,8,13,14,1,7,4,11,9,3"
15160,commdev-image-keyboard-response,247,1004140,learnblock1,572.8000001907349,img/planet11_right.png,11,Community 3,NA,TRUE,j,j,NA,NA,NA,2,6,"12,2,15,5,6,10,8,13,14,1,7,4,11,9,3"
15160,commdev-image-keyboard-response,248,1005392,learnblock1,771.8999996185303,img/planet9_left.png,9,Community 3,NA,TRUE,f,f,NA,NA,NA,2,6,"12,2,15,5,6,10,8,13,14,1,7,4,11,9,3"
15160,commdev-image-keyboard-response,249,1006644,learnblock1,620.6999998092651,img/planet4_right.png,4,Community 3,NA,TRUE,j,j,NA,NA,NA,2,6,"12,2,15,5,6,10,8,13,14,1,7,4,11,9,3"
15160,commdev-image-keyboard-response,250,1007896,learnblock1,769,img/planet3_left.png,3,Community 3,NA,TRUE,f,f,NA,NA,NA,2,6,"12,2,15,5,6,10,8,13,14,1,7,4,11,9,3"
15160,commdev-image-keyboard-response,251,1009148,learnblock1,866.6999998092651,img/planet9_left.png,9,Community 3,NA,TRUE,f,f,NA,NA,NA,2,6,"12,2,15,5,6,10,8,13,14,1,7,4,11,9,3"
15160,commdev-image-keyboard-response,252,1010400,learnblock1,1035.2999997138977,img/planet4_left.png,4,Community 3,NA,TRUE,f,f,NA,NA,NA,2,6,"12,2,15,5,6,10,8,13,14,1,7,4,11,9,3"
15160,commdev-image-keyboard-response,253,1011651,learnblock1,804.5999999046326,img/planet9_left.png,9,Community 3,NA,TRUE,f,f,NA,NA,NA,2,6,"12,2,15,5,6,10,8,13,14,1,7,4,11,9,3"
15160,commdev-image-keyboard-response,254,1012902,learnblock1,561.8999996185303,img/planet7_right.png,7,Community 3,NA,TRUE,j,j,NA,NA,NA,2,6,"12,2,15,5,6,10,8,13,14,1,7,4,11,9,3"
15160,commdev-image-keyboard-response,255,1014154,learnblock1,1180.4000000953674,img/planet9_right.png,9,Community 3,NA,TRUE,j,j,NA,NA,NA,2,6,"12,2,15,5,6,10,8,13,14,1,7,4,11,9,3"
15160,commdev-image-keyboard-response,256,1015406,learnblock1,689,img/planet4_right.png,4,Community 3,NA,TRUE,j,j,NA,NA,NA,2,6,"12,2,15,5,6,10,8,13,14,1,7,4,11,9,3"
15160,commdev-image-keyboard-response,257,1016658,learnblock1,586.7999997138977,img/planet3_right.png,3,Community 3,NA,TRUE,j,j,NA,NA,NA,2,6,"12,2,15,5,6,10,8,13,14,1,7,4,11,9,3"
15160,commdev-image-keyboard-response,258,1017909,learnblock1,555,img/planet7_left.png,7,Community 3,NA,TRUE,f,f,NA,NA,NA,2,6,"12,2,15,5,6,10,8,13,14,1,7,4,11,9,3"
15160,commdev-image-keyboard-response,259,1019161,learnblock1,654.1999998092651,img/planet6_right.png,6,Community 1,NA,TRUE,j,j,NA,NA,NA,2,6,"12,2,15,5,6,10,8,13,14,1,7,4,11,9,3"
15160,commdev-image-keyboard-response,260,1020413,learnblock1,501.59999990463257,img/planet15_left.png,15,Community 1,NA,TRUE,f,f,NA,NA,NA,2,6,"12,2,15,5,6,10,8,13,14,1,7,4,11,9,3"
15160,commdev-image-keyboard-response,261,1021665,learnblock1,659.8000001907349,img/planet6_left.png,6,Community 1,NA,TRUE,f,f,NA,NA,NA,2,6,"12,2,15,5,6,10,8,13,14,1,7,4,11,9,3"
15160,commdev-image-keyboard-response,262,1022922,learnblock1,587.6999998092651,img/planet7_right.png,7,Community 3,NA,TRUE,j,j,NA,NA,NA,2,6,"12,2,15,5,6,10,8,13,14,1,7,4,11,9,3"
15160,commdev-image-keyboard-response,263,1024175,learnblock1,551.0999999046326,img/planet9_right.png,9,Community 3,NA,TRUE,j,j,NA,NA,NA,2,6,"12,2,15,5,6,10,8,13,14,1,7,4,11,9,3"
15160,commdev-image-keyboard-response,264,1025428,learnblock1,617.5999999046326,img/planet11_left.png,11,Community 3,NA,TRUE,f,f,NA,NA,NA,2,6,"12,2,15,5,6,10,8,13,14,1,7,4,11,9,3"
15160,commdev-image-keyboard-response,265,1026680,learnblock1,627.2999997138977,img/planet3_left.png,3,Community 3,NA,TRUE,f,f,NA,NA,NA,2,6,"12,2,15,5,6,10,8,13,14,1,7,4,11,9,3"
15160,commdev-image-keyboard-response,266,1027933,learnblock1,623.1000003814697,img/planet7_left.png,7,Community 3,NA,TRUE,f,f,NA,NA,NA,2,6,"12,2,15,5,6,10,8,13,14,1,7,4,11,9,3"
15160,commdev-image-keyboard-response,267,1029185,learnblock1,630.6000003814697,img/planet9_left.png,9,Community 3,NA,TRUE,f,f,NA,NA,NA,2,6,"12,2,15,5,6,10,8,13,14,1,7,4,11,9,3"
15160,commdev-image-keyboard-response,268,1030437,learnblock1,668.8000001907349,img/planet7_left.png,7,Community 3,NA,TRUE,f,f,NA,NA,NA,2,6,"12,2,15,5,6,10,8,13,14,1,7,4,11,9,3"
15160,commdev-image-keyboard-response,269,1031688,learnblock1,656.0999999046326,img/planet11_right.png,11,Community 3,NA,TRUE,j,j,NA,NA,NA,2,6,"12,2,15,5,6,10,8,13,14,1,7,4,11,9,3"
15160,commdev-image-keyboard-response,270,1032940,learnblock1,805,img/planet9_right.png,9,Community 3,NA,TRUE,j,j,NA,NA,NA,2,6,"12,2,15,5,6,10,8,13,14,1,7,4,11,9,3"
15160,commdev-image-keyboard-response,271,1034192,learnblock1,992.8999996185303,img/planet11_right.png,11,Community 3,NA,TRUE,j,j,NA,NA,NA,2,6,"12,2,15,5,6,10,8,13,14,1,7,4,11,9,3"
15160,commdev-image-keyboard-response,272,1035444,learnblock1,null,img/planet3_right.png,3,Community 3,NA,FALSE,null,j,NA,NA,NA,2,6,"12,2,15,5,6,10,8,13,14,1,7,4,11,9,3"
15160,commdev-image-keyboard-response,273,1036710,learnblock1,79.09999990463257,img/planet7_left.png,7,Community 3,NA,FALSE,j,f,NA,NA,NA,2,6,"12,2,15,5,6,10,8,13,14,1,7,4,11,9,3"
15160,commdev-image-keyboard-response,274,1037962,learnblock1,655.0999999046326,img/planet6_right.png,6,Community 1,NA,TRUE,j,j,NA,NA,NA,2,6,"12,2,15,5,6,10,8,13,14,1,7,4,11,9,3"
15160,commdev-image-keyboard-response,275,1039214,learnblock1,630.8000001907349,img/planet15_right.png,15,Community 1,NA,TRUE,j,j,NA,NA,NA,2,6,"12,2,15,5,6,10,8,13,14,1,7,4,11,9,3"
15160,commdev-image-keyboard-response,276,1040465,learnblock1,499.69999980926514,img/planet2_left.png,2,Community 1,NA,TRUE,f,f,NA,NA,NA,2,6,"12,2,15,5,6,10,8,13,14,1,7,4,11,9,3"
15160,commdev-image-keyboard-response,277,1041717,learnblock1,688.5999999046326,img/planet6_left.png,6,Community 1,NA,TRUE,f,f,NA,NA,NA,2,6,"12,2,15,5,6,10,8,13,14,1,7,4,11,9,3"
15160,commdev-image-keyboard-response,278,1042969,learnblock1,1065.9000000953674,img/planet2_right.png,2,Community 1,NA,TRUE,j,j,NA,NA,NA,2,6,"12,2,15,5,6,10,8,13,14,1,7,4,11,9,3"
15160,commdev-image-keyboard-response,279,1044222,learnblock1,844.0999999046326,img/planet5_right.png,5,Community 1,NA,TRUE,j,j,NA,NA,NA,2,6,"12,2,15,5,6,10,8,13,14,1,7,4,11,9,3"
15160,commdev-image-keyboard-response,280,1045474,learnblock1,1091.2000002861023,img/planet12_left.png,12,Community 1,NA,TRUE,f,f,NA,NA,NA,2,6,"12,2,15,5,6,10,8,13,14,1,7,4,11,9,3"
15160,commdev-image-keyboard-response,281,1046727,learnblock1,1038.8000001907349,img/planet15_right.png,15,Community 1,NA,TRUE,j,j,NA,NA,NA,2,6,"12,2,15,5,6,10,8,13,14,1,7,4,11,9,3"
15160,commdev-image-keyboard-response,282,1047979,learnblock1,816.0999999046326,img/planet6_right.png,6,Community 1,NA,TRUE,j,j,NA,NA,NA,2,6,"12,2,15,5,6,10,8,13,14,1,7,4,11,9,3"
15160,commdev-image-keyboard-response,283,1049231,learnblock1,644.5,img/planet12_left.png,12,Community 1,NA,TRUE,f,f,NA,NA,NA,2,6,"12,2,15,5,6,10,8,13,14,1,7,4,11,9,3"
15160,commdev-image-keyboard-response,284,1050482,learnblock1,null,img/planet5_left.png,5,Community 1,NA,FALSE,null,f,NA,NA,NA,2,6,"12,2,15,5,6,10,8,13,14,1,7,4,11,9,3"
15160,commdev-image-keyboard-response,285,1051734,learnblock1,null,img/planet10_right.png,10,Community 2,NA,FALSE,null,j,NA,NA,NA,2,6,"12,2,15,5,6,10,8,13,14,1,7,4,11,9,3"
15160,commdev-image-keyboard-response,286,1052987,learnblock1,29.199999809265137,img/planet1_left.png,1,Community 2,NA,FALSE,j,f,NA,NA,NA,2,6,"12,2,15,5,6,10,8,13,14,1,7,4,11,9,3"
15160,commdev-image-keyboard-response,287,1054238,learnblock1,976.5,img/planet14_left.png,14,Community 2,NA,TRUE,f,f,NA,NA,NA,2,6,"12,2,15,5,6,10,8,13,14,1,7,4,11,9,3"
15160,commdev-image-keyboard-response,288,1055490,learnblock1,834.9000000953674,img/planet13_left.png,13,Community 2,NA,TRUE,f,f,NA,NA,NA,2,6,"12,2,15,5,6,10,8,13,14,1,7,4,11,9,3"
15160,commdev-image-keyboard-response,289,1056742,learnblock1,843.3000001907349,img/planet8_right.png,8,Community 2,NA,TRUE,j,j,NA,NA,NA,2,6,"12,2,15,5,6,10,8,13,14,1,7,4,11,9,3"
15160,commdev-image-keyboard-response,290,1057994,learnblock1,601.1999998092651,img/planet10_right.png,10,Community 2,NA,TRUE,j,j,NA,NA,NA,2,6,"12,2,15,5,6,10,8,13,14,1,7,4,11,9,3"
15160,commdev-image-keyboard-response,291,1059247,learnblock1,869,img/planet14_right.png,14,Community 2,NA,TRUE,j,j,NA,NA,NA,2,6,"12,2,15,5,6,10,8,13,14,1,7,4,11,9,3"
15160,commdev-image-keyboard-response,292,1060498,learnblock1,786.0999999046326,img/planet10_left.png,10,Community 2,NA,TRUE,f,f,NA,NA,NA,2,6,"12,2,15,5,6,10,8,13,14,1,7,4,11,9,3"
15160,commdev-image-keyboard-response,293,1061750,learnblock1,844.9000000953674,img/planet5_left.png,5,Community 1,NA,TRUE,f,f,NA,NA,NA,2,6,"12,2,15,5,6,10,8,13,14,1,7,4,11,9,3"
15160,commdev-image-keyboard-response,294,1063004,learnblock1,693.9000000953674,img/planet2_left.png,2,Community 1,NA,TRUE,f,f,NA,NA,NA,2,6,"12,2,15,5,6,10,8,13,14,1,7,4,11,9,3"
15160,commdev-image-keyboard-response,295,1064255,learnblock1,549,img/planet5_right.png,5,Community 1,NA,TRUE,j,j,NA,NA,NA,2,6,"12,2,15,5,6,10,8,13,14,1,7,4,11,9,3"
15160,commdev-image-keyboard-response,296,1065506,learnblock1,589.5,img/planet12_left.png,12,Community 1,NA,FALSE,j,f,NA,NA,NA,2,6,"12,2,15,5,6,10,8,13,14,1,7,4,11,9,3"
15160,commdev-image-keyboard-response,297,1066757,learnblock1,746,img/planet2_left.png,2,Community 1,NA,TRUE,f,f,NA,NA,NA,2,6,"12,2,15,5,6,10,8,13,14,1,7,4,11,9,3"
15160,commdev-image-keyboard-response,298,1068015,learnblock1,575.2000002861023,img/planet6_left.png,6,Community 1,NA,TRUE,f,f,NA,NA,NA,2,6,"12,2,15,5,6,10,8,13,14,1,7,4,11,9,3"
15160,commdev-image-keyboard-response,299,1069267,learnblock1,527,img/planet2_right.png,2,Community 1,NA,TRUE,j,j,NA,NA,NA,2,6,"12,2,15,5,6,10,8,13,14,1,7,4,11,9,3"
15160,commdev-image-keyboard-response,300,1070519,learnblock1,485.19999980926514,img/planet6_right.png,6,Community 1,NA,TRUE,j,j,NA,NA,NA,2,6,"12,2,15,5,6,10,8,13,14,1,7,4,11,9,3"
15160,commdev-image-keyboard-response,301,1071771,learnblock1,532.8000001907349,img/planet15_left.png,15,Community 1,NA,TRUE,f,f,NA,NA,NA,2,6,"12,2,15,5,6,10,8,13,14,1,7,4,11,9,3"
15160,commdev-image-keyboard-response,302,1073023,learnblock1,610.8000001907349,img/planet5_right.png,5,Community 1,NA,TRUE,j,j,NA,NA,NA,2,6,"12,2,15,5,6,10,8,13,14,1,7,4,11,9,3"
15160,commdev-image-keyboard-response,303,1074276,learnblock1,609.3000001907349,img/planet2_right.png,2,Community 1,NA,TRUE,j,j,NA,NA,NA,2,6,"12,2,15,5,6,10,8,13,14,1,7,4,11,9,3"
15160,commdev-image-keyboard-response,304,1075528,learnblock1,726.2999997138977,img/planet12_left.png,12,Community 1,NA,TRUE,f,f,NA,NA,NA,2,6,"12,2,15,5,6,10,8,13,14,1,7,4,11,9,3"
15160,commdev-image-keyboard-response,305,1076779,learnblock1,735,img/planet5_left.png,5,Community 1,NA,TRUE,f,f,NA,NA,NA,2,6,"12,2,15,5,6,10,8,13,14,1,7,4,11,9,3"
15160,commdev-image-keyboard-response,306,1078044,learnblock1,773.1999998092651,img/planet12_left.png,12,Community 1,NA,TRUE,f,f,NA,NA,NA,2,6,"12,2,15,5,6,10,8,13,14,1,7,4,11,9,3"
15160,commdev-image-keyboard-response,307,1079296,learnblock1,708,img/planet15_left.png,15,Community 1,NA,TRUE,f,f,NA,NA,NA,2,6,"12,2,15,5,6,10,8,13,14,1,7,4,11,9,3"
15160,commdev-image-keyboard-response,308,1080548,learnblock1,476.3999996185303,img/planet2_left.png,2,Community 1,NA,TRUE,f,f,NA,NA,NA,2,6,"12,2,15,5,6,10,8,13,14,1,7,4,11,9,3"
15160,commdev-image-keyboard-response,309,1081800,learnblock1,474.09999990463257,img/planet6_left.png,6,Community 1,NA,TRUE,f,f,NA,NA,NA,2,6,"12,2,15,5,6,10,8,13,14,1,7,4,11,9,3"
15160,commdev-image-keyboard-response,310,1083052,learnblock1,432.90000009536743,img/planet7_left.png,7,Community 3,NA,TRUE,f,f,NA,NA,NA,2,6,"12,2,15,5,6,10,8,13,14,1,7,4,11,9,3"
15160,commdev-image-keyboard-response,311,1084304,learnblock1,550.0999999046326,img/planet3_right.png,3,Community 3,NA,TRUE,j,j,NA,NA,NA,2,6,"12,2,15,5,6,10,8,13,14,1,7,4,11,9,3"
15160,commdev-image-keyboard-response,312,1085555,learnblock1,438.5,img/planet11_right.png,11,Community 3,NA,FALSE,f,j,NA,NA,NA,2,6,"12,2,15,5,6,10,8,13,14,1,7,4,11,9,3"
15160,commdev-image-keyboard-response,313,1086808,learnblock1,620,img/planet4_left.png,4,Community 3,NA,TRUE,f,f,NA,NA,NA,2,6,"12,2,15,5,6,10,8,13,14,1,7,4,11,9,3"
15160,commdev-image-keyboard-response,314,1088060,learnblock1,814.5999999046326,img/planet13_right.png,13,Community 2,NA,TRUE,j,j,NA,NA,NA,2,6,"12,2,15,5,6,10,8,13,14,1,7,4,11,9,3"
15160,commdev-image-keyboard-response,315,1089317,learnblock1,592.7999997138977,img/planet14_right.png,14,Community 2,NA,TRUE,j,j,NA,NA,NA,2,6,"12,2,15,5,6,10,8,13,14,1,7,4,11,9,3"
15160,commdev-image-keyboard-response,316,1090582,learnblock1,615.2000002861023,img/planet13_right.png,13,Community 2,NA,TRUE,j,j,NA,NA,NA,2,6,"12,2,15,5,6,10,8,13,14,1,7,4,11,9,3"
15160,commdev-image-keyboard-response,317,1091848,learnblock1,690.4000000953674,img/planet1_left.png,1,Community 2,NA,TRUE,f,f,NA,NA,NA,2,6,"12,2,15,5,6,10,8,13,14,1,7,4,11,9,3"
15160,commdev-image-keyboard-response,318,1093101,learnblock1,607.5,img/planet10_right.png,10,Community 2,NA,TRUE,j,j,NA,NA,NA,2,6,"12,2,15,5,6,10,8,13,14,1,7,4,11,9,3"
15160,commdev-image-keyboard-response,319,1094353,learnblock1,651,img/planet5_right.png,5,Community 1,NA,TRUE,j,j,NA,NA,NA,2,6,"12,2,15,5,6,10,8,13,14,1,7,4,11,9,3"
15160,commdev-image-keyboard-response,320,1095609,learnblock1,589.5999999046326,img/planet10_right.png,10,Community 2,NA,TRUE,j,j,NA,NA,NA,2,6,"12,2,15,5,6,10,8,13,14,1,7,4,11,9,3"
15160,commdev-image-keyboard-response,321,1096873,learnblock1,723.5999999046326,img/planet14_right.png,14,Community 2,NA,TRUE,j,j,NA,NA,NA,2,6,"12,2,15,5,6,10,8,13,14,1,7,4,11,9,3"
15160,commdev-image-keyboard-response,322,1098124,learnblock1,609.5999999046326,img/planet8_right.png,8,Community 2,NA,TRUE,j,j,NA,NA,NA,2,6,"12,2,15,5,6,10,8,13,14,1,7,4,11,9,3"
15160,commdev-image-keyboard-response,323,1099391,learnblock1,598.2000002861023,img/planet13_right.png,13,Community 2,NA,TRUE,j,j,NA,NA,NA,2,6,"12,2,15,5,6,10,8,13,14,1,7,4,11,9,3"
15160,commdev-image-keyboard-response,324,1100643,learnblock1,511.30000019073486,img/planet4_right.png,4,Community 3,NA,TRUE,j,j,NA,NA,NA,2,6,"12,2,15,5,6,10,8,13,14,1,7,4,11,9,3"
15160,commdev-image-keyboard-response,325,1101896,learnblock1,879.5,img/planet11_left.png,11,Community 3,NA,TRUE,f,f,NA,NA,NA,2,6,"12,2,15,5,6,10,8,13,14,1,7,4,11,9,3"
15160,commdev-image-keyboard-response,326,1103148,learnblock1,676.8000001907349,img/planet4_right.png,4,Community 3,NA,TRUE,j,j,NA,NA,NA,2,6,"12,2,15,5,6,10,8,13,14,1,7,4,11,9,3"
15160,commdev-image-keyboard-response,327,1104399,learnblock1,624.6000003814697,img/planet13_left.png,13,Community 2,NA,TRUE,f,f,NA,NA,NA,2,6,"12,2,15,5,6,10,8,13,14,1,7,4,11,9,3"
15160,commdev-image-keyboard-response,328,1105650,learnblock1,554,img/planet1_right.png,1,Community 2,NA,TRUE,j,j,NA,NA,NA,2,6,"12,2,15,5,6,10,8,13,14,1,7,4,11,9,3"
15160,commdev-image-keyboard-response,329,1106902,learnblock1,582.2000002861023,img/planet8_left.png,8,Community 2,NA,TRUE,f,f,NA,NA,NA,2,6,"12,2,15,5,6,10,8,13,14,1,7,4,11,9,3"
15160,commdev-image-keyboard-response,330,1108154,learnblock1,510.59999990463257,img/planet10_left.png,10,Community 2,NA,TRUE,f,f,NA,NA,NA,2,6,"12,2,15,5,6,10,8,13,14,1,7,4,11,9,3"
15160,commdev-image-keyboard-response,331,1109406,learnblock1,618.2999997138977,img/planet8_left.png,8,Community 2,NA,TRUE,f,f,NA,NA,NA,2,6,"12,2,15,5,6,10,8,13,14,1,7,4,11,9,3"
15160,commdev-image-keyboard-response,332,1110658,learnblock1,516.4000000953674,img/planet1_left.png,1,Community 2,NA,TRUE,f,f,NA,NA,NA,2,6,"12,2,15,5,6,10,8,13,14,1,7,4,11,9,3"
15160,commdev-image-keyboard-response,333,1111925,learnblock1,504.40000009536743,img/planet10_right.png,10,Community 2,NA,TRUE,j,j,NA,NA,NA,2,6,"12,2,15,5,6,10,8,13,14,1,7,4,11,9,3"
15160,commdev-image-keyboard-response,334,1113176,learnblock1,939,img/planet1_right.png,1,Community 2,NA,TRUE,j,j,NA,NA,NA,2,6,"12,2,15,5,6,10,8,13,14,1,7,4,11,9,3"
15160,commdev-image-keyboard-response,335,1114428,learnblock1,715.6999998092651,img/planet14_left.png,14,Community 2,NA,TRUE,f,f,NA,NA,NA,2,6,"12,2,15,5,6,10,8,13,14,1,7,4,11,9,3"
15160,commdev-image-keyboard-response,336,1115680,learnblock1,683.9000000953674,img/planet13_left.png,13,Community 2,NA,TRUE,f,f,NA,NA,NA,2,6,"12,2,15,5,6,10,8,13,14,1,7,4,11,9,3"
15160,commdev-image-keyboard-response,337,1116932,learnblock1,652.5,img/planet8_right.png,8,Community 2,NA,TRUE,j,j,NA,NA,NA,2,6,"12,2,15,5,6,10,8,13,14,1,7,4,11,9,3"
15160,commdev-image-keyboard-response,338,1118184,learnblock1,879.9000000953674,img/planet10_right.png,10,Community 2,NA,TRUE,j,j,NA,NA,NA,2,6,"12,2,15,5,6,10,8,13,14,1,7,4,11,9,3"
15160,commdev-image-keyboard-response,339,1119448,learnblock1,727.6000003814697,img/planet1_left.png,1,Community 2,NA,TRUE,f,f,NA,NA,NA,2,6,"12,2,15,5,6,10,8,13,14,1,7,4,11,9,3"
15160,commdev-image-keyboard-response,340,1120710,learnblock1,843.5,img/planet14_left.png,14,Community 2,NA,TRUE,f,f,NA,NA,NA,2,6,"12,2,15,5,6,10,8,13,14,1,7,4,11,9,3"
15160,commdev-image-keyboard-response,341,1121971,learnblock1,752.5,img/planet1_left.png,1,Community 2,NA,TRUE,f,f,NA,NA,NA,2,6,"12,2,15,5,6,10,8,13,14,1,7,4,11,9,3"
15160,commdev-image-keyboard-response,342,1123223,learnblock1,751,img/planet8_right.png,8,Community 2,NA,TRUE,j,j,NA,NA,NA,2,6,"12,2,15,5,6,10,8,13,14,1,7,4,11,9,3"
15160,commdev-image-keyboard-response,343,1124476,learnblock1,679.5,img/planet14_left.png,14,Community 2,NA,TRUE,f,f,NA,NA,NA,2,6,"12,2,15,5,6,10,8,13,14,1,7,4,11,9,3"
15160,commdev-image-keyboard-response,344,1125729,learnblock1,537.4000000953674,img/planet1_right.png,1,Community 2,NA,TRUE,j,j,NA,NA,NA,2,6,"12,2,15,5,6,10,8,13,14,1,7,4,11,9,3"
15160,commdev-image-keyboard-response,345,1126981,learnblock1,464.59999990463257,img/planet10_right.png,10,Community 2,NA,TRUE,j,j,NA,NA,NA,2,6,"12,2,15,5,6,10,8,13,14,1,7,4,11,9,3"
15160,commdev-image-keyboard-response,346,1128234,learnblock1,472.40000009536743,img/planet8_left.png,8,Community 2,NA,TRUE,f,f,NA,NA,NA,2,6,"12,2,15,5,6,10,8,13,14,1,7,4,11,9,3"
15160,commdev-image-keyboard-response,347,1129486,learnblock1,479.90000009536743,img/planet1_left.png,1,Community 2,NA,TRUE,f,f,NA,NA,NA,2,6,"12,2,15,5,6,10,8,13,14,1,7,4,11,9,3"
15160,commdev-image-keyboard-response,348,1130739,learnblock1,542.2000002861023,img/planet10_right.png,10,Community 2,NA,TRUE,j,j,NA,NA,NA,2,6,"12,2,15,5,6,10,8,13,14,1,7,4,11,9,3"
15160,commdev-image-keyboard-response,349,1131991,learnblock1,723.3000001907349,img/planet5_right.png,5,Community 1,NA,TRUE,j,j,NA,NA,NA,2,6,"12,2,15,5,6,10,8,13,14,1,7,4,11,9,3"
15160,commdev-image-keyboard-response,350,1133242,learnblock1,803,img/planet15_right.png,15,Community 1,NA,TRUE,j,j,NA,NA,NA,2,6,"12,2,15,5,6,10,8,13,14,1,7,4,11,9,3"
15160,commdev-image-keyboard-response,351,1134494,learnblock1,671.3000001907349,img/planet12_left.png,12,Community 1,NA,TRUE,f,f,NA,NA,NA,2,6,"12,2,15,5,6,10,8,13,14,1,7,4,11,9,3"
15160,commdev-image-keyboard-response,352,1135746,learnblock1,712.0999999046326,img/planet5_left.png,5,Community 1,NA,TRUE,f,f,NA,NA,NA,2,6,"12,2,15,5,6,10,8,13,14,1,7,4,11,9,3"
15160,commdev-image-keyboard-response,353,1136998,learnblock1,808,img/planet12_left.png,12,Community 1,NA,TRUE,f,f,NA,NA,NA,2,6,"12,2,15,5,6,10,8,13,14,1,7,4,11,9,3"
15160,commdev-image-keyboard-response,354,1138250,learnblock1,744.7999997138977,img/planet15_left.png,15,Community 1,NA,TRUE,f,f,NA,NA,NA,2,6,"12,2,15,5,6,10,8,13,14,1,7,4,11,9,3"
15160,commdev-image-keyboard-response,355,1139502,learnblock1,623.3000001907349,img/planet2_left.png,2,Community 1,NA,TRUE,f,f,NA,NA,NA,2,6,"12,2,15,5,6,10,8,13,14,1,7,4,11,9,3"
15160,commdev-image-keyboard-response,356,1140754,learnblock1,581.4000000953674,img/planet5_right.png,5,Community 1,NA,TRUE,j,j,NA,NA,NA,2,6,"12,2,15,5,6,10,8,13,14,1,7,4,11,9,3"
15160,commdev-image-keyboard-response,357,1142006,learnblock1,611.1000003814697,img/planet2_left.png,2,Community 1,NA,TRUE,f,f,NA,NA,NA,2,6,"12,2,15,5,6,10,8,13,14,1,7,4,11,9,3"
15160,commdev-image-keyboard-response,358,1143258,learnblock1,607,img/planet6_right.png,6,Community 1,NA,TRUE,j,j,NA,NA,NA,2,6,"12,2,15,5,6,10,8,13,14,1,7,4,11,9,3"
15160,commdev-image-keyboard-response,359,1144509,learnblock1,615.6999998092651,img/planet2_left.png,2,Community 1,NA,TRUE,f,f,NA,NA,NA,2,6,"12,2,15,5,6,10,8,13,14,1,7,4,11,9,3"
15160,commdev-image-keyboard-response,360,1145762,learnblock1,547.3000001907349,img/planet5_right.png,5,Community 1,NA,TRUE,j,j,NA,NA,NA,2,6,"12,2,15,5,6,10,8,13,14,1,7,4,11,9,3"
15160,commdev-image-keyboard-response,361,1147025,learnblock1,561.5,img/planet15_right.png,15,Community 1,NA,TRUE,j,j,NA,NA,NA,2,6,"12,2,15,5,6,10,8,13,14,1,7,4,11,9,3"
15160,commdev-image-keyboard-response,362,1148276,learnblock1,599.9000000953674,img/planet2_left.png,2,Community 1,NA,TRUE,f,f,NA,NA,NA,2,6,"12,2,15,5,6,10,8,13,14,1,7,4,11,9,3"
15160,commdev-image-keyboard-response,363,1149528,learnblock1,867.0999999046326,img/planet6_right.png,6,Community 1,NA,TRUE,j,j,NA,NA,NA,2,6,"12,2,15,5,6,10,8,13,14,1,7,4,11,9,3"
15160,commdev-image-keyboard-response,364,1150780,learnblock1,697.7999997138977,img/planet7_right.png,7,Community 3,NA,TRUE,j,j,NA,NA,NA,2,6,"12,2,15,5,6,10,8,13,14,1,7,4,11,9,3"
15160,commdev-image-keyboard-response,365,1152031,learnblock1,655.1000003814697,img/planet6_left.png,6,Community 1,NA,TRUE,f,f,NA,NA,NA,2,6,"12,2,15,5,6,10,8,13,14,1,7,4,11,9,3"
15160,commdev-image-keyboard-response,366,1153283,learnblock1,542.0999999046326,img/planet12_right.png,12,Community 1,NA,TRUE,j,j,NA,NA,NA,2,6,"12,2,15,5,6,10,8,13,14,1,7,4,11,9,3"
15160,commdev-image-keyboard-response,367,1154536,learnblock1,581.1999998092651,img/planet6_right.png,6,Community 1,NA,TRUE,j,j,NA,NA,NA,2,6,"12,2,15,5,6,10,8,13,14,1,7,4,11,9,3"
15160,commdev-image-keyboard-response,368,1155788,learnblock1,577,img/planet7_right.png,7,Community 3,NA,TRUE,j,j,NA,NA,NA,2,6,"12,2,15,5,6,10,8,13,14,1,7,4,11,9,3"
15160,commdev-image-keyboard-response,369,1157039,learnblock1,295.80000019073486,img/planet9_left.png,9,Community 3,NA,FALSE,j,f,NA,NA,NA,2,6,"12,2,15,5,6,10,8,13,14,1,7,4,11,9,3"
15160,commdev-image-keyboard-response,370,1158291,learnblock1,764.9000000953674,img/planet11_right.png,11,Community 3,NA,TRUE,j,j,NA,NA,NA,2,6,"12,2,15,5,6,10,8,13,14,1,7,4,11,9,3"
15160,commdev-image-keyboard-response,371,1159542,learnblock1,582.6999998092651,img/planet4_left.png,4,Community 3,NA,TRUE,f,f,NA,NA,NA,2,6,"12,2,15,5,6,10,8,13,14,1,7,4,11,9,3"
15160,commdev-image-keyboard-response,372,1160794,learnblock1,661.5,img/planet3_left.png,3,Community 3,NA,TRUE,f,f,NA,NA,NA,2,6,"12,2,15,5,6,10,8,13,14,1,7,4,11,9,3"
15160,commdev-image-keyboard-response,373,1162047,learnblock1,562.9000000953674,img/planet7_right.png,7,Community 3,NA,TRUE,j,j,NA,NA,NA,2,6,"12,2,15,5,6,10,8,13,14,1,7,4,11,9,3"
15160,commdev-image-keyboard-response,374,1163299,learnblock1,506.30000019073486,img/planet6_right.png,6,Community 1,NA,TRUE,j,j,NA,NA,NA,2,6,"12,2,15,5,6,10,8,13,14,1,7,4,11,9,3"
15160,commdev-image-keyboard-response,375,1164551,learnblock1,504.59999990463257,img/planet7_left.png,7,Community 3,NA,TRUE,f,f,NA,NA,NA,2,6,"12,2,15,5,6,10,8,13,14,1,7,4,11,9,3"
15160,commdev-image-keyboard-response,376,1165804,learnblock1,565,img/planet6_right.png,6,Community 1,NA,TRUE,j,j,NA,NA,NA,2,6,"12,2,15,5,6,10,8,13,14,1,7,4,11,9,3"
15160,commdev-image-keyboard-response,377,1167055,learnblock1,560,img/planet12_left.png,12,Community 1,NA,TRUE,f,f,NA,NA,NA,2,6,"12,2,15,5,6,10,8,13,14,1,7,4,11,9,3"
15160,commdev-image-keyboard-response,378,1168307,learnblock1,658,img/planet2_left.png,2,Community 1,NA,FALSE,j,f,NA,NA,NA,2,6,"12,2,15,5,6,10,8,13,14,1,7,4,11,9,3"
15160,commdev-image-keyboard-response,379,1169559,learnblock1,639.2999997138977,img/planet6_right.png,6,Community 1,NA,TRUE,j,j,NA,NA,NA,2,6,"12,2,15,5,6,10,8,13,14,1,7,4,11,9,3"
15160,commdev-image-keyboard-response,380,1170811,learnblock1,554.6999998092651,img/planet2_left.png,2,Community 1,NA,TRUE,f,f,NA,NA,NA,2,6,"12,2,15,5,6,10,8,13,14,1,7,4,11,9,3"
15160,commdev-image-keyboard-response,381,1172062,learnblock1,593.1999998092651,img/planet5_left.png,5,Community 1,NA,TRUE,f,f,NA,NA,NA,2,6,"12,2,15,5,6,10,8,13,14,1,7,4,11,9,3"
15160,commdev-image-keyboard-response,382,1173318,learnblock1,551.4000000953674,img/planet12_right.png,12,Community 1,NA,TRUE,j,j,NA,NA,NA,2,6,"12,2,15,5,6,10,8,13,14,1,7,4,11,9,3"
15160,commdev-image-keyboard-response,383,1174569,learnblock1,595.2999997138977,img/planet5_right.png,5,Community 1,NA,TRUE,j,j,NA,NA,NA,2,6,"12,2,15,5,6,10,8,13,14,1,7,4,11,9,3"
15160,commdev-image-keyboard-response,384,1175821,learnblock1,654.6999998092651,img/planet12_right.png,12,Community 1,NA,TRUE,j,j,NA,NA,NA,2,6,"12,2,15,5,6,10,8,13,14,1,7,4,11,9,3"
15160,commdev-image-keyboard-response,385,1177072,learnblock1,625.3000001907349,img/planet2_right.png,2,Community 1,NA,TRUE,j,j,NA,NA,NA,2,6,"12,2,15,5,6,10,8,13,14,1,7,4,11,9,3"
15160,commdev-image-keyboard-response,386,1178325,learnblock1,630.9000000953674,img/planet6_right.png,6,Community 1,NA,TRUE,j,j,NA,NA,NA,2,6,"12,2,15,5,6,10,8,13,14,1,7,4,11,9,3"
15160,commdev-image-keyboard-response,387,1179577,learnblock1,678.5,img/planet2_right.png,2,Community 1,NA,TRUE,j,j,NA,NA,NA,2,6,"12,2,15,5,6,10,8,13,14,1,7,4,11,9,3"
15160,commdev-image-keyboard-response,388,1180843,learnblock1,707,img/planet5_right.png,5,Community 1,NA,TRUE,j,j,NA,NA,NA,2,6,"12,2,15,5,6,10,8,13,14,1,7,4,11,9,3"
15160,commdev-image-keyboard-response,389,1182095,learnblock1,562.7999997138977,img/planet10_left.png,10,Community 2,NA,TRUE,f,f,NA,NA,NA,2,6,"12,2,15,5,6,10,8,13,14,1,7,4,11,9,3"
15160,commdev-image-keyboard-response,390,1183358,learnblock1,598.4000000953674,img/planet1_left.png,1,Community 2,NA,TRUE,f,f,NA,NA,NA,2,6,"12,2,15,5,6,10,8,13,14,1,7,4,11,9,3"
15160,commdev-image-keyboard-response,391,1184610,learnblock1,635.3000001907349,img/planet8_right.png,8,Community 2,NA,TRUE,j,j,NA,NA,NA,2,6,"12,2,15,5,6,10,8,13,14,1,7,4,11,9,3"
15160,commdev-image-keyboard-response,392,1185863,learnblock1,653.6000003814697,img/planet10_left.png,10,Community 2,NA,TRUE,f,f,NA,NA,NA,2,6,"12,2,15,5,6,10,8,13,14,1,7,4,11,9,3"
15160,commdev-image-keyboard-response,393,1187120,learnblock1,660.4000000953674,img/planet8_right.png,8,Community 2,NA,TRUE,j,j,NA,NA,NA,2,6,"12,2,15,5,6,10,8,13,14,1,7,4,11,9,3"
15160,commdev-image-keyboard-response,394,1188372,learnblock1,636.7999997138977,img/planet10_right.png,10,Community 2,NA,TRUE,j,j,NA,NA,NA,2,6,"12,2,15,5,6,10,8,13,14,1,7,4,11,9,3"
15160,commdev-image-keyboard-response,395,1189624,learnblock1,655.4000000953674,img/planet8_right.png,8,Community 2,NA,TRUE,j,j,NA,NA,NA,2,6,"12,2,15,5,6,10,8,13,14,1,7,4,11,9,3"
15160,commdev-image-keyboard-response,396,1190876,learnblock1,718.5999999046326,img/planet1_left.png,1,Community 2,NA,TRUE,f,f,NA,NA,NA,2,6,"12,2,15,5,6,10,8,13,14,1,7,4,11,9,3"
15160,commdev-image-keyboard-response,397,1192127,learnblock1,617.8000001907349,img/planet8_right.png,8,Community 2,NA,TRUE,j,j,NA,NA,NA,2,6,"12,2,15,5,6,10,8,13,14,1,7,4,11,9,3"
15160,commdev-image-keyboard-response,398,1193382,learnblock1,555.5999999046326,img/planet10_right.png,10,Community 2,NA,TRUE,j,j,NA,NA,NA,2,6,"12,2,15,5,6,10,8,13,14,1,7,4,11,9,3"
15160,commdev-image-keyboard-response,399,1194633,learnblock1,501.40000009536743,img/planet5_right.png,5,Community 1,NA,TRUE,j,j,NA,NA,NA,2,6,"12,2,15,5,6,10,8,13,14,1,7,4,11,9,3"
15160,commdev-image-keyboard-response,400,1195888,learnblock1,580,img/planet15_left.png,15,Community 1,NA,TRUE,f,f,NA,NA,NA,2,6,"12,2,15,5,6,10,8,13,14,1,7,4,11,9,3"
15160,commdev-image-keyboard-response,401,1197139,learnblock1,615.4000000953674,img/planet2_left.png,2,Community 1,NA,TRUE,f,f,NA,NA,NA,2,6,"12,2,15,5,6,10,8,13,14,1,7,4,11,9,3"
15160,commdev-image-keyboard-response,402,1198395,learnblock1,554.5999999046326,img/planet6_right.png,6,Community 1,NA,TRUE,j,j,NA,NA,NA,2,6,"12,2,15,5,6,10,8,13,14,1,7,4,11,9,3"
15160,commdev-image-keyboard-response,403,1199647,learnblock1,679.5,img/planet15_right.png,15,Community 1,NA,TRUE,j,j,NA,NA,NA,2,6,"12,2,15,5,6,10,8,13,14,1,7,4,11,9,3"
15160,commdev-image-keyboard-response,404,1200899,learnblock1,716.5999999046326,img/planet6_left.png,6,Community 1,NA,TRUE,f,f,NA,NA,NA,2,6,"12,2,15,5,6,10,8,13,14,1,7,4,11,9,3"
15160,commdev-image-keyboard-response,405,1202151,learnblock1,625,img/planet15_right.png,15,Community 1,NA,TRUE,j,j,NA,NA,NA,2,6,"12,2,15,5,6,10,8,13,14,1,7,4,11,9,3"
15160,commdev-image-keyboard-response,406,1203402,learnblock1,803.7000002861023,img/planet2_left.png,2,Community 1,NA,TRUE,f,f,NA,NA,NA,2,6,"12,2,15,5,6,10,8,13,14,1,7,4,11,9,3"
15160,commdev-image-keyboard-response,407,1204655,learnblock1,711.5,img/planet5_right.png,5,Community 1,NA,TRUE,j,j,NA,NA,NA,2,6,"12,2,15,5,6,10,8,13,14,1,7,4,11,9,3"
15160,commdev-image-keyboard-response,408,1205906,learnblock1,589.5,img/planet2_left.png,2,Community 1,NA,TRUE,f,f,NA,NA,NA,2,6,"12,2,15,5,6,10,8,13,14,1,7,4,11,9,3"
15160,commdev-image-keyboard-response,409,1207158,learnblock1,567.5,img/planet12_left.png,12,Community 1,NA,TRUE,f,f,NA,NA,NA,2,6,"12,2,15,5,6,10,8,13,14,1,7,4,11,9,3"
15160,commdev-image-keyboard-response,410,1208410,learnblock1,575,img/planet15_right.png,15,Community 1,NA,TRUE,j,j,NA,NA,NA,2,6,"12,2,15,5,6,10,8,13,14,1,7,4,11,9,3"
15160,commdev-image-keyboard-response,411,1209662,learnblock1,1123.6999998092651,img/planet2_left.png,2,Community 1,NA,TRUE,f,f,NA,NA,NA,2,6,"12,2,15,5,6,10,8,13,14,1,7,4,11,9,3"
15160,commdev-image-keyboard-response,412,1210914,learnblock1,100.90000009536743,img/planet12_right.png,12,Community 1,NA,TRUE,j,j,NA,NA,NA,2,6,"12,2,15,5,6,10,8,13,14,1,7,4,11,9,3"
15160,commdev-image-keyboard-response,413,1212167,learnblock1,600,img/planet5_left.png,5,Community 1,NA,TRUE,f,f,NA,NA,NA,2,6,"12,2,15,5,6,10,8,13,14,1,7,4,11,9,3"
15160,commdev-image-keyboard-response,414,1213419,learnblock1,616.2000002861023,img/planet15_left.png,15,Community 1,NA,TRUE,f,f,NA,NA,NA,2,6,"12,2,15,5,6,10,8,13,14,1,7,4,11,9,3"
15160,commdev-image-keyboard-response,415,1214673,learnblock1,938.5,img/planet5_left.png,5,Community 1,NA,TRUE,f,f,NA,NA,NA,2,6,"12,2,15,5,6,10,8,13,14,1,7,4,11,9,3"
15160,commdev-image-keyboard-response,416,1215934,learnblock1,885.0999999046326,img/planet12_right.png,12,Community 1,NA,TRUE,j,j,NA,NA,NA,2,6,"12,2,15,5,6,10,8,13,14,1,7,4,11,9,3"
15160,commdev-image-keyboard-response,417,1217186,learnblock1,729.1999998092651,img/planet15_right.png,15,Community 1,NA,TRUE,j,j,NA,NA,NA,2,6,"12,2,15,5,6,10,8,13,14,1,7,4,11,9,3"
15160,commdev-image-keyboard-response,418,1218438,learnblock1,651.2999997138977,img/planet2_right.png,2,Community 1,NA,TRUE,j,j,NA,NA,NA,2,6,"12,2,15,5,6,10,8,13,14,1,7,4,11,9,3"
15160,commdev-image-keyboard-response,419,1219690,learnblock1,595.5,img/planet12_right.png,12,Community 1,NA,TRUE,j,j,NA,NA,NA,2,6,"12,2,15,5,6,10,8,13,14,1,7,4,11,9,3"
15160,commdev-image-keyboard-response,420,1220955,learnblock1,564.4000000953674,img/planet6_right.png,6,Community 1,NA,TRUE,j,j,NA,NA,NA,2,6,"12,2,15,5,6,10,8,13,14,1,7,4,11,9,3"
15160,commdev-image-keyboard-response,421,1222207,learnblock1,578.1999998092651,img/planet12_left.png,12,Community 1,NA,TRUE,f,f,NA,NA,NA,2,6,"12,2,15,5,6,10,8,13,14,1,7,4,11,9,3"
15160,commdev-image-keyboard-response,422,1223460,learnblock1,685.9000000953674,img/planet5_right.png,5,Community 1,NA,TRUE,j,j,NA,NA,NA,2,6,"12,2,15,5,6,10,8,13,14,1,7,4,11,9,3"
15160,commdev-image-keyboard-response,423,1224712,learnblock1,732,img/planet10_right.png,10,Community 2,NA,TRUE,j,j,NA,NA,NA,2,6,"12,2,15,5,6,10,8,13,14,1,7,4,11,9,3"
15160,commdev-image-keyboard-response,424,1225964,learnblock1,750.0999999046326,img/planet8_right.png,8,Community 2,NA,TRUE,j,j,NA,NA,NA,2,6,"12,2,15,5,6,10,8,13,14,1,7,4,11,9,3"
15160,commdev-image-keyboard-response,425,1227216,learnblock1,759.5999999046326,img/planet1_left.png,1,Community 2,NA,TRUE,f,f,NA,NA,NA,2,6,"12,2,15,5,6,10,8,13,14,1,7,4,11,9,3"
15160,commdev-image-keyboard-response,426,1228475,learnblock1,787.2999997138977,img/planet14_right.png,14,Community 2,NA,TRUE,j,j,NA,NA,NA,2,6,"12,2,15,5,6,10,8,13,14,1,7,4,11,9,3"
15160,commdev-image-keyboard-response,427,1229736,learnblock1,718.3000001907349,img/planet1_left.png,1,Community 2,NA,TRUE,f,f,NA,NA,NA,2,6,"12,2,15,5,6,10,8,13,14,1,7,4,11,9,3"
15160,commdev-image-keyboard-response,428,1230996,learnblock1,817.3000001907349,img/planet8_left.png,8,Community 2,NA,TRUE,f,f,NA,NA,NA,2,6,"12,2,15,5,6,10,8,13,14,1,7,4,11,9,3"
15160,commdev-image-keyboard-response,429,1232256,learnblock1,770.5,img/planet14_right.png,14,Community 2,NA,TRUE,j,j,NA,NA,NA,2,6,"12,2,15,5,6,10,8,13,14,1,7,4,11,9,3"
15160,commdev-image-keyboard-response,430,1233508,learnblock1,697.3000001907349,img/planet8_right.png,8,Community 2,NA,TRUE,j,j,NA,NA,NA,2,6,"12,2,15,5,6,10,8,13,14,1,7,4,11,9,3"
15160,commdev-image-keyboard-response,431,1234760,learnblock1,754.5,img/planet10_left.png,10,Community 2,NA,TRUE,f,f,NA,NA,NA,2,6,"12,2,15,5,6,10,8,13,14,1,7,4,11,9,3"
15160,commdev-image-keyboard-response,432,1236011,learnblock1,803.3000001907349,img/planet1_left.png,1,Community 2,NA,TRUE,f,f,NA,NA,NA,2,6,"12,2,15,5,6,10,8,13,14,1,7,4,11,9,3"
15160,commdev-image-keyboard-response,433,1237262,learnblock1,705,img/planet10_right.png,10,Community 2,NA,TRUE,j,j,NA,NA,NA,2,6,"12,2,15,5,6,10,8,13,14,1,7,4,11,9,3"
15160,commdev-image-keyboard-response,434,1238514,learnblock1,720.1999998092651,img/planet1_right.png,1,Community 2,NA,TRUE,j,j,NA,NA,NA,2,6,"12,2,15,5,6,10,8,13,14,1,7,4,11,9,3"
15160,commdev-image-keyboard-response,435,1239771,learnblock1,719.0999999046326,img/planet10_left.png,10,Community 2,NA,TRUE,f,f,NA,NA,NA,2,6,"12,2,15,5,6,10,8,13,14,1,7,4,11,9,3"
15160,commdev-image-keyboard-response,436,1241024,learnblock1,500.7999997138977,img/planet8_right.png,8,Community 2,NA,TRUE,j,j,NA,NA,NA,2,6,"12,2,15,5,6,10,8,13,14,1,7,4,11,9,3"
15160,commdev-image-keyboard-response,437,1242275,learnblock1,569.1999998092651,img/planet13_left.png,13,Community 2,NA,TRUE,f,f,NA,NA,NA,2,6,"12,2,15,5,6,10,8,13,14,1,7,4,11,9,3"
15160,commdev-image-keyboard-response,441,1798792,learnblock2,647,img/planet8_right.png,8,Community 2,NA,TRUE,j,j,NA,NA,NA,2,6,"12,2,15,5,6,10,8,13,14,1,7,4,11,9,3"
15160,commdev-image-keyboard-response,442,1800054,learnblock2,791.4000000953674,img/planet13_right.png,13,Community 2,NA,TRUE,j,j,NA,NA,NA,2,6,"12,2,15,5,6,10,8,13,14,1,7,4,11,9,3"
15160,commdev-image-keyboard-response,443,1801306,learnblock2,811,img/planet8_left.png,8,Community 2,NA,TRUE,f,f,NA,NA,NA,2,6,"12,2,15,5,6,10,8,13,14,1,7,4,11,9,3"
15160,commdev-image-keyboard-response,444,1802558,learnblock2,637,img/planet10_right.png,10,Community 2,NA,TRUE,j,j,NA,NA,NA,2,6,"12,2,15,5,6,10,8,13,14,1,7,4,11,9,3"
15160,commdev-image-keyboard-response,445,1803811,learnblock2,705.5999999046326,img/planet8_left.png,8,Community 2,NA,TRUE,f,f,NA,NA,NA,2,6,"12,2,15,5,6,10,8,13,14,1,7,4,11,9,3"
15160,commdev-image-keyboard-response,446,1805063,learnblock2,682.4000000953674,img/planet14_left.png,14,Community 2,NA,TRUE,f,f,NA,NA,NA,2,6,"12,2,15,5,6,10,8,13,14,1,7,4,11,9,3"
15160,commdev-image-keyboard-response,447,1806315,learnblock2,540.2999997138977,img/planet8_right.png,8,Community 2,NA,TRUE,j,j,NA,NA,NA,2,6,"12,2,15,5,6,10,8,13,14,1,7,4,11,9,3"
15160,commdev-image-keyboard-response,448,1807566,learnblock2,428.2999997138977,img/planet10_left.png,10,Community 2,NA,TRUE,f,f,NA,NA,NA,2,6,"12,2,15,5,6,10,8,13,14,1,7,4,11,9,3"
15160,commdev-image-keyboard-response,449,1808819,learnblock2,487.30000019073486,img/planet1_right.png,1,Community 2,NA,TRUE,j,j,NA,NA,NA,2,6,"12,2,15,5,6,10,8,13,14,1,7,4,11,9,3"
15160,commdev-image-keyboard-response,450,1810072,learnblock2,533.8999996185303,img/planet14_left.png,14,Community 2,NA,TRUE,f,f,NA,NA,NA,2,6,"12,2,15,5,6,10,8,13,14,1,7,4,11,9,3"
15160,commdev-image-keyboard-response,451,1811330,learnblock2,541.6999998092651,img/planet10_left.png,10,Community 2,NA,TRUE,f,f,NA,NA,NA,2,6,"12,2,15,5,6,10,8,13,14,1,7,4,11,9,3"
15160,commdev-image-keyboard-response,452,1812583,learnblock2,632,img/planet8_left.png,8,Community 2,NA,TRUE,f,f,NA,NA,NA,2,6,"12,2,15,5,6,10,8,13,14,1,7,4,11,9,3"
15160,commdev-image-keyboard-response,453,1813835,learnblock2,573.6999998092651,img/planet10_right.png,10,Community 2,NA,TRUE,j,j,NA,NA,NA,2,6,"12,2,15,5,6,10,8,13,14,1,7,4,11,9,3"
15160,commdev-image-keyboard-response,454,1815086,learnblock2,571.7000002861023,img/planet5_right.png,5,Community 1,NA,TRUE,j,j,NA,NA,NA,2,6,"12,2,15,5,6,10,8,13,14,1,7,4,11,9,3"
15160,commdev-image-keyboard-response,455,1816338,learnblock2,540.8000001907349,img/planet10_left.png,10,Community 2,NA,TRUE,f,f,NA,NA,NA,2,6,"12,2,15,5,6,10,8,13,14,1,7,4,11,9,3"
15160,commdev-image-keyboard-response,456,1817590,learnblock2,497.09999990463257,img/planet14_right.png,14,Community 2,NA,TRUE,j,j,NA,NA,NA,2,6,"12,2,15,5,6,10,8,13,14,1,7,4,11,9,3"
15160,commdev-image-keyboard-response,457,1818842,learnblock2,483.5,img/planet10_left.png,10,Community 2,NA,TRUE,f,f,NA,NA,NA,2,6,"12,2,15,5,6,10,8,13,14,1,7,4,11,9,3"
15160,commdev-image-keyboard-response,458,1820094,learnblock2,603.4000000953674,img/planet8_left.png,8,Community 2,NA,TRUE,f,f,NA,NA,NA,2,6,"12,2,15,5,6,10,8,13,14,1,7,4,11,9,3"
15160,commdev-image-keyboard-response,459,1821345,learnblock2,603.7000002861023,img/planet13_right.png,13,Community 2,NA,TRUE,j,j,NA,NA,NA,2,6,"12,2,15,5,6,10,8,13,14,1,7,4,11,9,3"
15160,commdev-image-keyboard-response,460,1822598,learnblock2,548.1000003814697,img/planet14_right.png,14,Community 2,NA,TRUE,j,j,NA,NA,NA,2,6,"12,2,15,5,6,10,8,13,14,1,7,4,11,9,3"
15160,commdev-image-keyboard-response,461,1823849,learnblock2,535.5,img/planet8_left.png,8,Community 2,NA,TRUE,f,f,NA,NA,NA,2,6,"12,2,15,5,6,10,8,13,14,1,7,4,11,9,3"
15160,commdev-image-keyboard-response,462,1825100,learnblock2,465,img/planet10_left.png,10,Community 2,NA,TRUE,f,f,NA,NA,NA,2,6,"12,2,15,5,6,10,8,13,14,1,7,4,11,9,3"
15160,commdev-image-keyboard-response,463,1826353,learnblock2,472.8999996185303,img/planet14_right.png,14,Community 2,NA,TRUE,j,j,NA,NA,NA,2,6,"12,2,15,5,6,10,8,13,14,1,7,4,11,9,3"
15160,commdev-image-keyboard-response,464,1827617,learnblock2,500.5,img/planet10_right.png,10,Community 2,NA,TRUE,j,j,NA,NA,NA,2,6,"12,2,15,5,6,10,8,13,14,1,7,4,11,9,3"
15160,commdev-image-keyboard-response,465,1828868,learnblock2,486.90000009536743,img/planet5_left.png,5,Community 1,NA,TRUE,f,f,NA,NA,NA,2,6,"12,2,15,5,6,10,8,13,14,1,7,4,11,9,3"
15160,commdev-image-keyboard-response,466,1830120,learnblock2,454.80000019073486,img/planet15_left.png,15,Community 1,NA,TRUE,f,f,NA,NA,NA,2,6,"12,2,15,5,6,10,8,13,14,1,7,4,11,9,3"
15160,commdev-image-keyboard-response,467,1831371,learnblock2,433.40000009536743,img/planet6_right.png,6,Community 1,NA,TRUE,j,j,NA,NA,NA,2,6,"12,2,15,5,6,10,8,13,14,1,7,4,11,9,3"
15160,commdev-image-keyboard-response,468,1832622,learnblock2,383.6000003814697,img/planet2_left.png,2,Community 1,NA,TRUE,f,f,NA,NA,NA,2,6,"12,2,15,5,6,10,8,13,14,1,7,4,11,9,3"
15160,commdev-image-keyboard-response,469,1833875,learnblock2,550.6999998092651,img/planet6_left.png,6,Community 1,NA,TRUE,f,f,NA,NA,NA,2,6,"12,2,15,5,6,10,8,13,14,1,7,4,11,9,3"
15160,commdev-image-keyboard-response,470,1835136,learnblock2,578.2000002861023,img/planet15_right.png,15,Community 1,NA,TRUE,j,j,NA,NA,NA,2,6,"12,2,15,5,6,10,8,13,14,1,7,4,11,9,3"
15160,commdev-image-keyboard-response,471,1836387,learnblock2,519.9000000953674,img/planet6_left.png,6,Community 1,NA,TRUE,f,f,NA,NA,NA,2,6,"12,2,15,5,6,10,8,13,14,1,7,4,11,9,3"
15160,commdev-image-keyboard-response,472,1837639,learnblock2,946.5999999046326,img/planet2_left.png,2,Community 1,NA,TRUE,f,f,NA,NA,NA,2,6,"12,2,15,5,6,10,8,13,14,1,7,4,11,9,3"
15160,commdev-image-keyboard-response,473,1838890,learnblock2,null,img/planet6_left.png,6,Community 1,NA,FALSE,null,f,NA,NA,NA,2,6,"12,2,15,5,6,10,8,13,14,1,7,4,11,9,3"
15160,commdev-image-keyboard-response,474,1840142,learnblock2,113.5,img/planet15_left.png,15,Community 1,NA,TRUE,f,f,NA,NA,NA,2,6,"12,2,15,5,6,10,8,13,14,1,7,4,11,9,3"
15160,commdev-image-keyboard-response,475,1841393,learnblock2,783.7999997138977,img/planet2_left.png,2,Community 1,NA,TRUE,f,f,NA,NA,NA,2,6,"12,2,15,5,6,10,8,13,14,1,7,4,11,9,3"
15160,commdev-image-keyboard-response,476,1842645,learnblock2,549.8000001907349,img/planet6_right.png,6,Community 1,NA,TRUE,j,j,NA,NA,NA,2,6,"12,2,15,5,6,10,8,13,14,1,7,4,11,9,3"
15160,commdev-image-keyboard-response,477,1843897,learnblock2,568.2999997138977,img/planet15_left.png,15,Community 1,NA,TRUE,f,f,NA,NA,NA,2,6,"12,2,15,5,6,10,8,13,14,1,7,4,11,9,3"
15160,commdev-image-keyboard-response,478,1845148,learnblock2,497,img/planet6_left.png,6,Community 1,NA,TRUE,f,f,NA,NA,NA,2,6,"12,2,15,5,6,10,8,13,14,1,7,4,11,9,3"
15160,commdev-image-keyboard-response,479,1846400,learnblock2,504.30000019073486,img/planet12_right.png,12,Community 1,NA,TRUE,j,j,NA,NA,NA,2,6,"12,2,15,5,6,10,8,13,14,1,7,4,11,9,3"
15160,commdev-image-keyboard-response,480,1847652,learnblock2,522.4000000953674,img/planet2_right.png,2,Community 1,NA,TRUE,j,j,NA,NA,NA,2,6,"12,2,15,5,6,10,8,13,14,1,7,4,11,9,3"
15160,commdev-image-keyboard-response,481,1848904,learnblock2,470.09999990463257,img/planet5_left.png,5,Community 1,NA,TRUE,f,f,NA,NA,NA,2,6,"12,2,15,5,6,10,8,13,14,1,7,4,11,9,3"
15160,commdev-image-keyboard-response,482,1850156,learnblock2,679.7999997138977,img/planet2_right.png,2,Community 1,NA,TRUE,j,j,NA,NA,NA,2,6,"12,2,15,5,6,10,8,13,14,1,7,4,11,9,3"
15160,commdev-image-keyboard-response,483,1851408,learnblock2,537.3000001907349,img/planet5_right.png,5,Community 1,NA,TRUE,j,j,NA,NA,NA,2,6,"12,2,15,5,6,10,8,13,14,1,7,4,11,9,3"
15160,commdev-image-keyboard-response,484,1852660,learnblock2,677.0999999046326,img/planet10_right.png,10,Community 2,NA,TRUE,j,j,NA,NA,NA,2,6,"12,2,15,5,6,10,8,13,14,1,7,4,11,9,3"
15160,commdev-image-keyboard-response,485,1853912,learnblock2,523.1999998092651,img/planet14_left.png,14,Community 2,NA,TRUE,f,f,NA,NA,NA,2,6,"12,2,15,5,6,10,8,13,14,1,7,4,11,9,3"
15160,commdev-image-keyboard-response,486,1855164,learnblock2,540.8000001907349,img/planet8_left.png,8,Community 2,NA,TRUE,f,f,NA,NA,NA,2,6,"12,2,15,5,6,10,8,13,14,1,7,4,11,9,3"
15160,commdev-image-keyboard-response,487,1856415,learnblock2,638.5999999046326,img/planet13_left.png,13,Community 2,NA,TRUE,f,f,NA,NA,NA,2,6,"12,2,15,5,6,10,8,13,14,1,7,4,11,9,3"
15160,commdev-image-keyboard-response,488,1857667,learnblock2,540,img/planet1_left.png,1,Community 2,NA,TRUE,f,f,NA,NA,NA,2,6,"12,2,15,5,6,10,8,13,14,1,7,4,11,9,3"
15160,commdev-image-keyboard-response,489,1858918,learnblock2,556.5,img/planet13_left.png,13,Community 2,NA,TRUE,f,f,NA,NA,NA,2,6,"12,2,15,5,6,10,8,13,14,1,7,4,11,9,3"
15160,commdev-image-keyboard-response,490,1860170,learnblock2,474.69999980926514,img/planet14_right.png,14,Community 2,NA,TRUE,j,j,NA,NA,NA,2,6,"12,2,15,5,6,10,8,13,14,1,7,4,11,9,3"
15160,commdev-image-keyboard-response,491,1861423,learnblock2,423,img/planet13_left.png,13,Community 2,NA,TRUE,f,f,NA,NA,NA,2,6,"12,2,15,5,6,10,8,13,14,1,7,4,11,9,3"
15160,commdev-image-keyboard-response,492,1862675,learnblock2,483.80000019073486,img/planet14_left.png,14,Community 2,NA,TRUE,f,f,NA,NA,NA,2,6,"12,2,15,5,6,10,8,13,14,1,7,4,11,9,3"
15160,commdev-image-keyboard-response,493,1863927,learnblock2,448.5,img/planet10_right.png,10,Community 2,NA,TRUE,j,j,NA,NA,NA,2,6,"12,2,15,5,6,10,8,13,14,1,7,4,11,9,3"
15160,commdev-image-keyboard-response,494,1865180,learnblock2,466.59999990463257,img/planet1_right.png,1,Community 2,NA,TRUE,j,j,NA,NA,NA,2,6,"12,2,15,5,6,10,8,13,14,1,7,4,11,9,3"
15160,commdev-image-keyboard-response,495,1866432,learnblock2,496.80000019073486,img/planet8_right.png,8,Community 2,NA,TRUE,j,j,NA,NA,NA,2,6,"12,2,15,5,6,10,8,13,14,1,7,4,11,9,3"
15160,commdev-image-keyboard-response,496,1867684,learnblock2,351.5,img/planet13_right.png,13,Community 2,NA,TRUE,j,j,NA,NA,NA,2,6,"12,2,15,5,6,10,8,13,14,1,7,4,11,9,3"
15160,commdev-image-keyboard-response,497,1868936,learnblock2,541.7999997138977,img/planet4_right.png,4,Community 3,NA,TRUE,j,j,NA,NA,NA,2,6,"12,2,15,5,6,10,8,13,14,1,7,4,11,9,3"
15160,commdev-image-keyboard-response,498,1870187,learnblock2,527.5,img/planet11_right.png,11,Community 3,NA,FALSE,f,j,NA,NA,NA,2,6,"12,2,15,5,6,10,8,13,14,1,7,4,11,9,3"
15160,commdev-image-keyboard-response,499,1871439,learnblock2,686,img/planet7_left.png,7,Community 3,NA,TRUE,f,f,NA,NA,NA,2,6,"12,2,15,5,6,10,8,13,14,1,7,4,11,9,3"
15160,commdev-image-keyboard-response,500,1872690,learnblock2,606.4000000953674,img/planet6_right.png,6,Community 1,NA,TRUE,j,j,NA,NA,NA,2,6,"12,2,15,5,6,10,8,13,14,1,7,4,11,9,3"
15160,commdev-image-keyboard-response,501,1873941,learnblock2,695.4000000953674,img/planet15_right.png,15,Community 1,NA,TRUE,j,j,NA,NA,NA,2,6,"12,2,15,5,6,10,8,13,14,1,7,4,11,9,3"
15160,commdev-image-keyboard-response,502,1875192,learnblock2,494.80000019073486,img/planet5_right.png,5,Community 1,NA,TRUE,j,j,NA,NA,NA,2,6,"12,2,15,5,6,10,8,13,14,1,7,4,11,9,3"
15160,commdev-image-keyboard-response,503,1876453,learnblock2,520.7999997138977,img/planet12_right.png,12,Community 1,NA,TRUE,j,j,NA,NA,NA,2,6,"12,2,15,5,6,10,8,13,14,1,7,4,11,9,3"
15160,commdev-image-keyboard-response,504,1877705,learnblock2,530.5,img/planet6_left.png,6,Community 1,NA,TRUE,f,f,NA,NA,NA,2,6,"12,2,15,5,6,10,8,13,14,1,7,4,11,9,3"
15160,commdev-image-keyboard-response,505,1878962,learnblock2,577.5,img/planet7_left.png,7,Community 3,NA,TRUE,f,f,NA,NA,NA,2,6,"12,2,15,5,6,10,8,13,14,1,7,4,11,9,3"
15160,commdev-image-keyboard-response,506,1880214,learnblock2,671.5,img/planet11_left.png,11,Community 3,NA,TRUE,f,f,NA,NA,NA,2,6,"12,2,15,5,6,10,8,13,14,1,7,4,11,9,3"
15160,commdev-image-keyboard-response,507,1881465,learnblock2,620.0999999046326,img/planet4_right.png,4,Community 3,NA,TRUE,j,j,NA,NA,NA,2,6,"12,2,15,5,6,10,8,13,14,1,7,4,11,9,3"
15160,commdev-image-keyboard-response,508,1882718,learnblock2,810.1000003814697,img/planet11_left.png,11,Community 3,NA,TRUE,f,f,NA,NA,NA,2,6,"12,2,15,5,6,10,8,13,14,1,7,4,11,9,3"
15160,commdev-image-keyboard-response,509,1883977,learnblock2,705.3000001907349,img/planet3_right.png,3,Community 3,NA,TRUE,j,j,NA,NA,NA,2,6,"12,2,15,5,6,10,8,13,14,1,7,4,11,9,3"
15160,commdev-image-keyboard-response,510,1885229,learnblock2,765,img/planet4_left.png,4,Community 3,NA,TRUE,f,f,NA,NA,NA,2,6,"12,2,15,5,6,10,8,13,14,1,7,4,11,9,3"
15160,commdev-image-keyboard-response,511,1886496,learnblock2,797.2999997138977,img/planet3_left.png,3,Community 3,NA,TRUE,f,f,NA,NA,NA,2,6,"12,2,15,5,6,10,8,13,14,1,7,4,11,9,3"
15160,commdev-image-keyboard-response,512,1887748,learnblock2,947,img/planet9_right.png,9,Community 3,NA,TRUE,j,j,NA,NA,NA,2,6,"12,2,15,5,6,10,8,13,14,1,7,4,11,9,3"
15160,commdev-image-keyboard-response,513,1888999,learnblock2,825.6999998092651,img/planet4_left.png,4,Community 3,NA,TRUE,f,f,NA,NA,NA,2,6,"12,2,15,5,6,10,8,13,14,1,7,4,11,9,3"
15160,commdev-image-keyboard-response,514,1890264,learnblock2,644,img/planet9_left.png,9,Community 3,NA,TRUE,f,f,NA,NA,NA,2,6,"12,2,15,5,6,10,8,13,14,1,7,4,11,9,3"
15160,commdev-image-keyboard-response,515,1891515,learnblock2,509.8999996185303,img/planet7_right.png,7,Community 3,NA,TRUE,j,j,NA,NA,NA,2,6,"12,2,15,5,6,10,8,13,14,1,7,4,11,9,3"
15160,commdev-image-keyboard-response,516,1892767,learnblock2,528.6999998092651,img/planet3_left.png,3,Community 3,NA,TRUE,f,f,NA,NA,NA,2,6,"12,2,15,5,6,10,8,13,14,1,7,4,11,9,3"
15160,commdev-image-keyboard-response,517,1894020,learnblock2,506.7000002861023,img/planet9_right.png,9,Community 3,NA,TRUE,j,j,NA,NA,NA,2,6,"12,2,15,5,6,10,8,13,14,1,7,4,11,9,3"
15160,commdev-image-keyboard-response,518,1895271,learnblock2,474.1000003814697,img/planet11_left.png,11,Community 3,NA,TRUE,f,f,NA,NA,NA,2,6,"12,2,15,5,6,10,8,13,14,1,7,4,11,9,3"
15160,commdev-image-keyboard-response,519,1896522,learnblock2,692.5999999046326,img/planet3_left.png,3,Community 3,NA,FALSE,j,f,NA,NA,NA,2,6,"12,2,15,5,6,10,8,13,14,1,7,4,11,9,3"
15160,commdev-image-keyboard-response,520,1897774,learnblock2,801.3999996185303,img/planet4_right.png,4,Community 3,NA,TRUE,j,j,NA,NA,NA,2,6,"12,2,15,5,6,10,8,13,14,1,7,4,11,9,3"
15160,commdev-image-keyboard-response,521,1899026,learnblock2,639.4000000953674,img/planet13_right.png,13,Community 2,NA,TRUE,j,j,NA,NA,NA,2,6,"12,2,15,5,6,10,8,13,14,1,7,4,11,9,3"
15160,commdev-image-keyboard-response,522,1900278,learnblock2,479.40000009536743,img/planet4_right.png,4,Community 3,NA,TRUE,j,j,NA,NA,NA,2,6,"12,2,15,5,6,10,8,13,14,1,7,4,11,9,3"
15160,commdev-image-keyboard-response,523,1901530,learnblock2,755.5,img/planet9_left.png,9,Community 3,NA,TRUE,f,f,NA,NA,NA,2,6,"12,2,15,5,6,10,8,13,14,1,7,4,11,9,3"
15160,commdev-image-keyboard-response,524,1902782,learnblock2,874.6999998092651,img/planet4_right.png,4,Community 3,NA,TRUE,j,j,NA,NA,NA,2,6,"12,2,15,5,6,10,8,13,14,1,7,4,11,9,3"
15160,commdev-image-keyboard-response,525,1904034,learnblock2,772.5,img/planet11_right.png,11,Community 3,NA,TRUE,j,j,NA,NA,NA,2,6,"12,2,15,5,6,10,8,13,14,1,7,4,11,9,3"
15160,commdev-image-keyboard-response,526,1905285,learnblock2,699.7000002861023,img/planet3_left.png,3,Community 3,NA,TRUE,f,f,NA,NA,NA,2,6,"12,2,15,5,6,10,8,13,14,1,7,4,11,9,3"
15160,commdev-image-keyboard-response,527,1906537,learnblock2,577.3999996185303,img/planet7_right.png,7,Community 3,NA,TRUE,j,j,NA,NA,NA,2,6,"12,2,15,5,6,10,8,13,14,1,7,4,11,9,3"
15160,commdev-image-keyboard-response,528,1907789,learnblock2,545.3000001907349,img/planet11_right.png,11,Community 3,NA,TRUE,j,j,NA,NA,NA,2,6,"12,2,15,5,6,10,8,13,14,1,7,4,11,9,3"
15160,commdev-image-keyboard-response,529,1909041,learnblock2,492.80000019073486,img/planet4_right.png,4,Community 3,NA,TRUE,j,j,NA,NA,NA,2,6,"12,2,15,5,6,10,8,13,14,1,7,4,11,9,3"
15160,commdev-image-keyboard-response,530,1910293,learnblock2,481.6000003814697,img/planet3_left.png,3,Community 3,NA,TRUE,f,f,NA,NA,NA,2,6,"12,2,15,5,6,10,8,13,14,1,7,4,11,9,3"
15160,commdev-image-keyboard-response,531,1911544,learnblock2,530.1000003814697,img/planet7_right.png,7,Community 3,NA,TRUE,j,j,NA,NA,NA,2,6,"12,2,15,5,6,10,8,13,14,1,7,4,11,9,3"
15160,commdev-image-keyboard-response,532,1912796,learnblock2,478.09999990463257,img/planet11_right.png,11,Community 3,NA,TRUE,j,j,NA,NA,NA,2,6,"12,2,15,5,6,10,8,13,14,1,7,4,11,9,3"
15160,commdev-image-keyboard-response,533,1914048,learnblock2,516.0999999046326,img/planet7_right.png,7,Community 3,NA,TRUE,j,j,NA,NA,NA,2,6,"12,2,15,5,6,10,8,13,14,1,7,4,11,9,3"
15160,commdev-image-keyboard-response,534,1915314,learnblock2,585.3999996185303,img/planet11_right.png,11,Community 3,NA,TRUE,j,j,NA,NA,NA,2,6,"12,2,15,5,6,10,8,13,14,1,7,4,11,9,3"
15160,commdev-image-keyboard-response,535,1916568,learnblock2,587.3999996185303,img/planet4_left.png,4,Community 3,NA,TRUE,f,f,NA,NA,NA,2,6,"12,2,15,5,6,10,8,13,14,1,7,4,11,9,3"
15160,commdev-image-keyboard-response,536,1917820,learnblock2,563.9000000953674,img/planet11_left.png,11,Community 3,NA,TRUE,f,f,NA,NA,NA,2,6,"12,2,15,5,6,10,8,13,14,1,7,4,11,9,3"
15160,commdev-image-keyboard-response,537,1919072,learnblock2,553.1000003814697,img/planet3_left.png,3,Community 3,NA,TRUE,f,f,NA,NA,NA,2,6,"12,2,15,5,6,10,8,13,14,1,7,4,11,9,3"
15160,commdev-image-keyboard-response,538,1920323,learnblock2,570.1999998092651,img/planet7_left.png,7,Community 3,NA,TRUE,f,f,NA,NA,NA,2,6,"12,2,15,5,6,10,8,13,14,1,7,4,11,9,3"
15160,commdev-image-keyboard-response,539,1921577,learnblock2,659,img/planet11_right.png,11,Community 3,NA,TRUE,j,j,NA,NA,NA,2,6,"12,2,15,5,6,10,8,13,14,1,7,4,11,9,3"
15160,commdev-image-keyboard-response,540,1922828,learnblock2,626.1000003814697,img/planet9_left.png,9,Community 3,NA,TRUE,f,f,NA,NA,NA,2,6,"12,2,15,5,6,10,8,13,14,1,7,4,11,9,3"
15160,commdev-image-keyboard-response,541,1924079,learnblock2,655,img/planet4_left.png,4,Community 3,NA,TRUE,f,f,NA,NA,NA,2,6,"12,2,15,5,6,10,8,13,14,1,7,4,11,9,3"
15160,commdev-image-keyboard-response,542,1925330,learnblock2,594.1999998092651,img/planet11_left.png,11,Community 3,NA,TRUE,f,f,NA,NA,NA,2,6,"12,2,15,5,6,10,8,13,14,1,7,4,11,9,3"
15160,commdev-image-keyboard-response,543,1926582,learnblock2,672.1999998092651,img/planet9_left.png,9,Community 3,NA,TRUE,f,f,NA,NA,NA,2,6,"12,2,15,5,6,10,8,13,14,1,7,4,11,9,3"
15160,commdev-image-keyboard-response,544,1927833,learnblock2,610.6000003814697,img/planet3_left.png,3,Community 3,NA,TRUE,f,f,NA,NA,NA,2,6,"12,2,15,5,6,10,8,13,14,1,7,4,11,9,3"
15160,commdev-image-keyboard-response,545,1929085,learnblock2,549.6999998092651,img/planet11_left.png,11,Community 3,NA,TRUE,f,f,NA,NA,NA,2,6,"12,2,15,5,6,10,8,13,14,1,7,4,11,9,3"
15160,commdev-image-keyboard-response,546,1930337,learnblock2,579.7999997138977,img/planet9_right.png,9,Community 3,NA,TRUE,j,j,NA,NA,NA,2,6,"12,2,15,5,6,10,8,13,14,1,7,4,11,9,3"
15160,commdev-image-keyboard-response,547,1931588,learnblock2,505.5,img/planet3_left.png,3,Community 3,NA,TRUE,f,f,NA,NA,NA,2,6,"12,2,15,5,6,10,8,13,14,1,7,4,11,9,3"
15160,commdev-image-keyboard-response,548,1932840,learnblock2,484.5,img/planet7_right.png,7,Community 3,NA,TRUE,j,j,NA,NA,NA,2,6,"12,2,15,5,6,10,8,13,14,1,7,4,11,9,3"
15160,commdev-image-keyboard-response,549,1934091,learnblock2,493.40000009536743,img/planet6_right.png,6,Community 1,NA,TRUE,j,j,NA,NA,NA,2,6,"12,2,15,5,6,10,8,13,14,1,7,4,11,9,3"
15160,commdev-image-keyboard-response,550,1935346,learnblock2,531.2000002861023,img/planet15_right.png,15,Community 1,NA,TRUE,j,j,NA,NA,NA,2,6,"12,2,15,5,6,10,8,13,14,1,7,4,11,9,3"
15160,commdev-image-keyboard-response,551,1936597,learnblock2,587.5999999046326,img/planet2_left.png,2,Community 1,NA,TRUE,f,f,NA,NA,NA,2,6,"12,2,15,5,6,10,8,13,14,1,7,4,11,9,3"
15160,commdev-image-keyboard-response,552,1937850,learnblock2,798.2999997138977,img/planet15_left.png,15,Community 1,NA,TRUE,f,f,NA,NA,NA,2,6,"12,2,15,5,6,10,8,13,14,1,7,4,11,9,3"
15160,commdev-image-keyboard-response,553,1939101,learnblock2,612.6000003814697,img/planet12_left.png,12,Community 1,NA,TRUE,f,f,NA,NA,NA,2,6,"12,2,15,5,6,10,8,13,14,1,7,4,11,9,3"
15160,commdev-image-keyboard-response,554,1940353,learnblock2,731.9000000953674,img/planet6_left.png,6,Community 1,NA,TRUE,f,f,NA,NA,NA,2,6,"12,2,15,5,6,10,8,13,14,1,7,4,11,9,3"
15160,commdev-image-keyboard-response,555,1941605,learnblock2,553.5,img/planet2_right.png,2,Community 1,NA,TRUE,j,j,NA,NA,NA,2,6,"12,2,15,5,6,10,8,13,14,1,7,4,11,9,3"
15160,commdev-image-keyboard-response,556,1942857,learnblock2,517.5999999046326,img/planet15_right.png,15,Community 1,NA,TRUE,j,j,NA,NA,NA,2,6,"12,2,15,5,6,10,8,13,14,1,7,4,11,9,3"
15160,commdev-image-keyboard-response,557,1944109,learnblock2,527,img/planet6_right.png,6,Community 1,NA,TRUE,j,j,NA,NA,NA,2,6,"12,2,15,5,6,10,8,13,14,1,7,4,11,9,3"
15160,commdev-image-keyboard-response,558,1945361,learnblock2,513.0999999046326,img/planet2_right.png,2,Community 1,NA,TRUE,j,j,NA,NA,NA,2,6,"12,2,15,5,6,10,8,13,14,1,7,4,11,9,3"
15160,commdev-image-keyboard-response,559,1946613,learnblock2,532.0999999046326,img/planet15_right.png,15,Community 1,NA,TRUE,j,j,NA,NA,NA,2,6,"12,2,15,5,6,10,8,13,14,1,7,4,11,9,3"
15160,commdev-image-keyboard-response,560,1947866,learnblock2,670.0999999046326,img/planet12_left.png,12,Community 1,NA,TRUE,f,f,NA,NA,NA,2,6,"12,2,15,5,6,10,8,13,14,1,7,4,11,9,3"
15160,commdev-image-keyboard-response,561,1949117,learnblock2,507.40000009536743,img/planet6_right.png,6,Community 1,NA,TRUE,j,j,NA,NA,NA,2,6,"12,2,15,5,6,10,8,13,14,1,7,4,11,9,3"
15160,commdev-image-keyboard-response,562,1950369,learnblock2,665.5999999046326,img/planet7_left.png,7,Community 3,NA,TRUE,f,f,NA,NA,NA,2,6,"12,2,15,5,6,10,8,13,14,1,7,4,11,9,3"
15160,commdev-image-keyboard-response,563,1951622,learnblock2,562.7000002861023,img/planet11_left.png,11,Community 3,NA,TRUE,f,f,NA,NA,NA,2,6,"12,2,15,5,6,10,8,13,14,1,7,4,11,9,3"
15160,commdev-image-keyboard-response,564,1952874,learnblock2,474,img/planet7_right.png,7,Community 3,NA,TRUE,j,j,NA,NA,NA,2,6,"12,2,15,5,6,10,8,13,14,1,7,4,11,9,3"
15160,commdev-image-keyboard-response,565,1954132,learnblock2,468.7000002861023,img/planet11_right.png,11,Community 3,NA,TRUE,j,j,NA,NA,NA,2,6,"12,2,15,5,6,10,8,13,14,1,7,4,11,9,3"
15160,commdev-image-keyboard-response,566,1955383,learnblock2,562.0999999046326,img/planet7_left.png,7,Community 3,NA,TRUE,f,f,NA,NA,NA,2,6,"12,2,15,5,6,10,8,13,14,1,7,4,11,9,3"
15160,commdev-image-keyboard-response,567,1956636,learnblock2,529,img/planet9_right.png,9,Community 3,NA,TRUE,j,j,NA,NA,NA,2,6,"12,2,15,5,6,10,8,13,14,1,7,4,11,9,3"
15160,commdev-image-keyboard-response,568,1957888,learnblock2,549.5999999046326,img/planet11_left.png,11,Community 3,NA,TRUE,f,f,NA,NA,NA,2,6,"12,2,15,5,6,10,8,13,14,1,7,4,11,9,3"
15160,commdev-image-keyboard-response,569,1959141,learnblock2,685.5999999046326,img/planet7_right.png,7,Community 3,NA,TRUE,j,j,NA,NA,NA,2,6,"12,2,15,5,6,10,8,13,14,1,7,4,11,9,3"
15160,commdev-image-keyboard-response,570,1960392,learnblock2,715,img/planet11_right.png,11,Community 3,NA,TRUE,j,j,NA,NA,NA,2,6,"12,2,15,5,6,10,8,13,14,1,7,4,11,9,3"
15160,commdev-image-keyboard-response,571,1961645,learnblock2,709.9000000953674,img/planet3_right.png,3,Community 3,NA,TRUE,j,j,NA,NA,NA,2,6,"12,2,15,5,6,10,8,13,14,1,7,4,11,9,3"
15160,commdev-image-keyboard-response,572,1962896,learnblock2,597.4000000953674,img/planet4_right.png,4,Community 3,NA,TRUE,j,j,NA,NA,NA,2,6,"12,2,15,5,6,10,8,13,14,1,7,4,11,9,3"
15160,commdev-image-keyboard-response,573,1964148,learnblock2,576.9000000953674,img/planet3_left.png,3,Community 3,NA,TRUE,f,f,NA,NA,NA,2,6,"12,2,15,5,6,10,8,13,14,1,7,4,11,9,3"
15160,commdev-image-keyboard-response,574,1965400,learnblock2,524.0999999046326,img/planet11_right.png,11,Community 3,NA,TRUE,j,j,NA,NA,NA,2,6,"12,2,15,5,6,10,8,13,14,1,7,4,11,9,3"
15160,commdev-image-keyboard-response,575,1966653,learnblock2,553.7000002861023,img/planet4_right.png,4,Community 3,NA,TRUE,j,j,NA,NA,NA,2,6,"12,2,15,5,6,10,8,13,14,1,7,4,11,9,3"
15160,commdev-image-keyboard-response,576,1967906,learnblock2,520.0999999046326,img/planet9_left.png,9,Community 3,NA,TRUE,f,f,NA,NA,NA,2,6,"12,2,15,5,6,10,8,13,14,1,7,4,11,9,3"
15160,commdev-image-keyboard-response,577,1969158,learnblock2,579.5999999046326,img/planet7_left.png,7,Community 3,NA,TRUE,f,f,NA,NA,NA,2,6,"12,2,15,5,6,10,8,13,14,1,7,4,11,9,3"
15160,commdev-image-keyboard-response,578,1970410,learnblock2,515.4000000953674,img/planet3_right.png,3,Community 3,NA,TRUE,j,j,NA,NA,NA,2,6,"12,2,15,5,6,10,8,13,14,1,7,4,11,9,3"
15160,commdev-image-keyboard-response,579,1971662,learnblock2,562.9000000953674,img/planet4_right.png,4,Community 3,NA,TRUE,j,j,NA,NA,NA,2,6,"12,2,15,5,6,10,8,13,14,1,7,4,11,9,3"
15160,commdev-image-keyboard-response,580,1972915,learnblock2,474.5,img/planet11_right.png,11,Community 3,NA,TRUE,j,j,NA,NA,NA,2,6,"12,2,15,5,6,10,8,13,14,1,7,4,11,9,3"
15160,commdev-image-keyboard-response,581,1974175,learnblock2,518.5999999046326,img/planet9_left.png,9,Community 3,NA,TRUE,f,f,NA,NA,NA,2,6,"12,2,15,5,6,10,8,13,14,1,7,4,11,9,3"
15160,commdev-image-keyboard-response,582,1975427,learnblock2,580.5999999046326,img/planet11_left.png,11,Community 3,NA,TRUE,f,f,NA,NA,NA,2,6,"12,2,15,5,6,10,8,13,14,1,7,4,11,9,3"
15160,commdev-image-keyboard-response,583,1976678,learnblock2,506.80000019073486,img/planet3_right.png,3,Community 3,NA,TRUE,j,j,NA,NA,NA,2,6,"12,2,15,5,6,10,8,13,14,1,7,4,11,9,3"
15160,commdev-image-keyboard-response,584,1977930,learnblock2,514.5999999046326,img/planet7_left.png,7,Community 3,NA,TRUE,f,f,NA,NA,NA,2,6,"12,2,15,5,6,10,8,13,14,1,7,4,11,9,3"
15160,commdev-image-keyboard-response,585,1979182,learnblock2,523.2000002861023,img/planet11_left.png,11,Community 3,NA,TRUE,f,f,NA,NA,NA,2,6,"12,2,15,5,6,10,8,13,14,1,7,4,11,9,3"
15160,commdev-image-keyboard-response,586,1980447,learnblock2,470.5,img/planet3_right.png,3,Community 3,NA,TRUE,j,j,NA,NA,NA,2,6,"12,2,15,5,6,10,8,13,14,1,7,4,11,9,3"
15160,commdev-image-keyboard-response,587,1981700,learnblock2,475.30000019073486,img/planet4_right.png,4,Community 3,NA,TRUE,j,j,NA,NA,NA,2,6,"12,2,15,5,6,10,8,13,14,1,7,4,11,9,3"
15160,commdev-image-keyboard-response,588,1982952,learnblock2,523,img/planet13_left.png,13,Community 2,NA,TRUE,f,f,NA,NA,NA,2,6,"12,2,15,5,6,10,8,13,14,1,7,4,11,9,3"
15160,commdev-image-keyboard-response,589,1984204,learnblock2,560.7999997138977,img/planet14_right.png,14,Community 2,NA,TRUE,j,j,NA,NA,NA,2,6,"12,2,15,5,6,10,8,13,14,1,7,4,11,9,3"
15160,commdev-image-keyboard-response,590,1985456,learnblock2,559,img/planet8_left.png,8,Community 2,NA,TRUE,f,f,NA,NA,NA,2,6,"12,2,15,5,6,10,8,13,14,1,7,4,11,9,3"
15160,commdev-image-keyboard-response,591,1986708,learnblock2,669.4000000953674,img/planet13_left.png,13,Community 2,NA,TRUE,f,f,NA,NA,NA,2,6,"12,2,15,5,6,10,8,13,14,1,7,4,11,9,3"
15160,commdev-image-keyboard-response,592,1987960,learnblock2,678.3999996185303,img/planet1_right.png,1,Community 2,NA,TRUE,j,j,NA,NA,NA,2,6,"12,2,15,5,6,10,8,13,14,1,7,4,11,9,3"
15160,commdev-image-keyboard-response,593,1989211,learnblock2,613.2999997138977,img/planet14_left.png,14,Community 2,NA,TRUE,f,f,NA,NA,NA,2,6,"12,2,15,5,6,10,8,13,14,1,7,4,11,9,3"
15160,commdev-image-keyboard-response,594,1990463,learnblock2,562.2999997138977,img/planet13_left.png,13,Community 2,NA,TRUE,f,f,NA,NA,NA,2,6,"12,2,15,5,6,10,8,13,14,1,7,4,11,9,3"
15160,commdev-image-keyboard-response,595,1991715,learnblock2,500.7000002861023,img/planet14_right.png,14,Community 2,NA,TRUE,j,j,NA,NA,NA,2,6,"12,2,15,5,6,10,8,13,14,1,7,4,11,9,3"
15160,commdev-image-keyboard-response,596,1992966,learnblock2,468.5,img/planet10_left.png,10,Community 2,NA,TRUE,f,f,NA,NA,NA,2,6,"12,2,15,5,6,10,8,13,14,1,7,4,11,9,3"
15160,commdev-image-keyboard-response,597,1994218,learnblock2,610.2999997138977,img/planet1_left.png,1,Community 2,NA,TRUE,f,f,NA,NA,NA,2,6,"12,2,15,5,6,10,8,13,14,1,7,4,11,9,3"
15160,commdev-image-keyboard-response,598,1995470,learnblock2,605,img/planet13_left.png,13,Community 2,NA,TRUE,f,f,NA,NA,NA,2,6,"12,2,15,5,6,10,8,13,14,1,7,4,11,9,3"
15160,commdev-image-keyboard-response,599,1996723,learnblock2,694.5,img/planet1_left.png,1,Community 2,NA,TRUE,f,f,NA,NA,NA,2,6,"12,2,15,5,6,10,8,13,14,1,7,4,11,9,3"
15160,commdev-image-keyboard-response,600,1997975,learnblock2,650.5,img/planet13_right.png,13,Community 2,NA,TRUE,j,j,NA,NA,NA,2,6,"12,2,15,5,6,10,8,13,14,1,7,4,11,9,3"
15160,commdev-image-keyboard-response,601,1999227,learnblock2,608.2999997138977,img/planet1_right.png,1,Community 2,NA,TRUE,j,j,NA,NA,NA,2,6,"12,2,15,5,6,10,8,13,14,1,7,4,11,9,3"
15160,commdev-image-keyboard-response,602,2000479,learnblock2,506.1000003814697,img/planet14_left.png,14,Community 2,NA,TRUE,f,f,NA,NA,NA,2,6,"12,2,15,5,6,10,8,13,14,1,7,4,11,9,3"
15160,commdev-image-keyboard-response,603,2001731,learnblock2,675,img/planet8_left.png,8,Community 2,NA,TRUE,f,f,NA,NA,NA,2,6,"12,2,15,5,6,10,8,13,14,1,7,4,11,9,3"
15160,commdev-image-keyboard-response,604,2002982,learnblock2,585.3000001907349,img/planet10_right.png,10,Community 2,NA,TRUE,j,j,NA,NA,NA,2,6,"12,2,15,5,6,10,8,13,14,1,7,4,11,9,3"
15160,commdev-image-keyboard-response,605,2004244,learnblock2,612,img/planet1_left.png,1,Community 2,NA,TRUE,f,f,NA,NA,NA,2,6,"12,2,15,5,6,10,8,13,14,1,7,4,11,9,3"
15160,commdev-image-keyboard-response,606,2005497,learnblock2,568.7999997138977,img/planet13_left.png,13,Community 2,NA,TRUE,f,f,NA,NA,NA,2,6,"12,2,15,5,6,10,8,13,14,1,7,4,11,9,3"
15160,commdev-image-keyboard-response,607,2006748,learnblock2,576,img/planet14_right.png,14,Community 2,NA,TRUE,j,j,NA,NA,NA,2,6,"12,2,15,5,6,10,8,13,14,1,7,4,11,9,3"
15160,commdev-image-keyboard-response,608,2008000,learnblock2,545,img/planet8_right.png,8,Community 2,NA,TRUE,j,j,NA,NA,NA,2,6,"12,2,15,5,6,10,8,13,14,1,7,4,11,9,3"
15160,commdev-image-keyboard-response,609,2009252,learnblock2,483,img/planet13_left.png,13,Community 2,NA,TRUE,f,f,NA,NA,NA,2,6,"12,2,15,5,6,10,8,13,14,1,7,4,11,9,3"
15160,commdev-image-keyboard-response,610,2010505,learnblock2,502.8999996185303,img/planet8_right.png,8,Community 2,NA,TRUE,j,j,NA,NA,NA,2,6,"12,2,15,5,6,10,8,13,14,1,7,4,11,9,3"
15160,commdev-image-keyboard-response,611,2011757,learnblock2,488.40000009536743,img/planet13_left.png,13,Community 2,NA,TRUE,f,f,NA,NA,NA,2,6,"12,2,15,5,6,10,8,13,14,1,7,4,11,9,3"
15160,commdev-image-keyboard-response,612,2013008,learnblock2,836.7999997138977,img/planet1_left.png,1,Community 2,NA,TRUE,f,f,NA,NA,NA,2,6,"12,2,15,5,6,10,8,13,14,1,7,4,11,9,3"
15160,commdev-image-keyboard-response,613,2014260,learnblock2,565.2000002861023,img/planet13_right.png,13,Community 2,NA,TRUE,j,j,NA,NA,NA,2,6,"12,2,15,5,6,10,8,13,14,1,7,4,11,9,3"
15160,commdev-image-keyboard-response,614,2015524,learnblock2,583.0999999046326,img/planet8_right.png,8,Community 2,NA,TRUE,j,j,NA,NA,NA,2,6,"12,2,15,5,6,10,8,13,14,1,7,4,11,9,3"
15160,commdev-image-keyboard-response,615,2016777,learnblock2,539.2000002861023,img/planet14_left.png,14,Community 2,NA,TRUE,f,f,NA,NA,NA,2,6,"12,2,15,5,6,10,8,13,14,1,7,4,11,9,3"
15160,commdev-image-keyboard-response,616,2018028,learnblock2,497.19999980926514,img/planet13_right.png,13,Community 2,NA,TRUE,j,j,NA,NA,NA,2,6,"12,2,15,5,6,10,8,13,14,1,7,4,11,9,3"
15160,commdev-image-keyboard-response,617,2019280,learnblock2,644.8000001907349,img/planet4_right.png,4,Community 3,NA,TRUE,j,j,NA,NA,NA,2,6,"12,2,15,5,6,10,8,13,14,1,7,4,11,9,3"
15160,commdev-image-keyboard-response,618,2020532,learnblock2,625.1999998092651,img/planet3_left.png,3,Community 3,NA,TRUE,f,f,NA,NA,NA,2,6,"12,2,15,5,6,10,8,13,14,1,7,4,11,9,3"
15160,commdev-image-keyboard-response,619,2021786,learnblock2,711.5,img/planet4_right.png,4,Community 3,NA,TRUE,j,j,NA,NA,NA,2,6,"12,2,15,5,6,10,8,13,14,1,7,4,11,9,3"
15160,commdev-image-keyboard-response,620,2023038,learnblock2,647,img/planet3_right.png,3,Community 3,NA,TRUE,j,j,NA,NA,NA,2,6,"12,2,15,5,6,10,8,13,14,1,7,4,11,9,3"
15160,commdev-image-keyboard-response,621,2024289,learnblock2,486.09999990463257,img/planet9_right.png,9,Community 3,NA,TRUE,j,j,NA,NA,NA,2,6,"12,2,15,5,6,10,8,13,14,1,7,4,11,9,3"
15160,commdev-image-keyboard-response,622,2025542,learnblock2,576.3000001907349,img/planet7_right.png,7,Community 3,NA,TRUE,j,j,NA,NA,NA,2,6,"12,2,15,5,6,10,8,13,14,1,7,4,11,9,3"
15160,commdev-image-keyboard-response,623,2026794,learnblock2,591.9000000953674,img/planet6_right.png,6,Community 1,NA,TRUE,j,j,NA,NA,NA,2,6,"12,2,15,5,6,10,8,13,14,1,7,4,11,9,3"
15160,commdev-image-keyboard-response,624,2028045,learnblock2,579.9000000953674,img/planet15_right.png,15,Community 1,NA,TRUE,j,j,NA,NA,NA,2,6,"12,2,15,5,6,10,8,13,14,1,7,4,11,9,3"
15160,commdev-image-keyboard-response,625,2029297,learnblock2,938.6999998092651,img/planet6_right.png,6,Community 1,NA,TRUE,j,j,NA,NA,NA,2,6,"12,2,15,5,6,10,8,13,14,1,7,4,11,9,3"
15160,commdev-image-keyboard-response,626,2030561,learnblock2,786.5999999046326,img/planet15_left.png,15,Community 1,NA,TRUE,f,f,NA,NA,NA,2,6,"12,2,15,5,6,10,8,13,14,1,7,4,11,9,3"
15160,commdev-image-keyboard-response,627,2031813,learnblock2,812.4000000953674,img/planet2_left.png,2,Community 1,NA,TRUE,f,f,NA,NA,NA,2,6,"12,2,15,5,6,10,8,13,14,1,7,4,11,9,3"
15160,commdev-image-keyboard-response,628,2033066,learnblock2,690.7000002861023,img/planet6_right.png,6,Community 1,NA,TRUE,j,j,NA,NA,NA,2,6,"12,2,15,5,6,10,8,13,14,1,7,4,11,9,3"
15160,commdev-image-keyboard-response,629,2034319,learnblock2,529,img/planet15_right.png,15,Community 1,NA,TRUE,j,j,NA,NA,NA,2,6,"12,2,15,5,6,10,8,13,14,1,7,4,11,9,3"
15160,commdev-image-keyboard-response,630,2035571,learnblock2,564.6999998092651,img/planet2_right.png,2,Community 1,NA,TRUE,j,j,NA,NA,NA,2,6,"12,2,15,5,6,10,8,13,14,1,7,4,11,9,3"
15160,commdev-image-keyboard-response,631,2036823,learnblock2,612.0999999046326,img/planet6_right.png,6,Community 1,NA,TRUE,j,j,NA,NA,NA,2,6,"12,2,15,5,6,10,8,13,14,1,7,4,11,9,3"
15160,commdev-image-keyboard-response,632,2038076,learnblock2,839.0999999046326,img/planet12_left.png,12,Community 1,NA,TRUE,f,f,NA,NA,NA,2,6,"12,2,15,5,6,10,8,13,14,1,7,4,11,9,3"
15160,commdev-image-keyboard-response,633,2039328,learnblock2,896.7999997138977,img/planet6_left.png,6,Community 1,NA,TRUE,f,f,NA,NA,NA,2,6,"12,2,15,5,6,10,8,13,14,1,7,4,11,9,3"
15160,commdev-image-keyboard-response,634,2040581,learnblock2,763.8999996185303,img/planet7_left.png,7,Community 3,NA,TRUE,f,f,NA,NA,NA,2,6,"12,2,15,5,6,10,8,13,14,1,7,4,11,9,3"
15160,commdev-image-keyboard-response,635,2041833,learnblock2,602.7000002861023,img/planet6_left.png,6,Community 1,NA,TRUE,f,f,NA,NA,NA,2,6,"12,2,15,5,6,10,8,13,14,1,7,4,11,9,3"
15160,commdev-image-keyboard-response,636,2043084,learnblock2,563.0999999046326,img/planet7_right.png,7,Community 3,NA,TRUE,j,j,NA,NA,NA,2,6,"12,2,15,5,6,10,8,13,14,1,7,4,11,9,3"
15160,commdev-image-keyboard-response,637,2044336,learnblock2,518.8000001907349,img/planet6_left.png,6,Community 1,NA,TRUE,f,f,NA,NA,NA,2,6,"12,2,15,5,6,10,8,13,14,1,7,4,11,9,3"
15160,commdev-image-keyboard-response,638,2045587,learnblock2,568.1999998092651,img/planet7_left.png,7,Community 3,NA,TRUE,f,f,NA,NA,NA,2,6,"12,2,15,5,6,10,8,13,14,1,7,4,11,9,3"
15160,commdev-image-keyboard-response,639,2046839,learnblock2,636.3000001907349,img/planet9_right.png,9,Community 3,NA,TRUE,j,j,NA,NA,NA,2,6,"12,2,15,5,6,10,8,13,14,1,7,4,11,9,3"
15160,commdev-image-keyboard-response,640,2048091,learnblock2,566.5999999046326,img/planet4_right.png,4,Community 3,NA,TRUE,j,j,NA,NA,NA,2,6,"12,2,15,5,6,10,8,13,14,1,7,4,11,9,3"
15160,commdev-image-keyboard-response,641,2049345,learnblock2,512.8999996185303,img/planet3_right.png,3,Community 3,NA,TRUE,j,j,NA,NA,NA,2,6,"12,2,15,5,6,10,8,13,14,1,7,4,11,9,3"
15160,commdev-image-keyboard-response,642,2050597,learnblock2,477,img/planet7_left.png,7,Community 3,NA,TRUE,f,f,NA,NA,NA,2,6,"12,2,15,5,6,10,8,13,14,1,7,4,11,9,3"
15160,commdev-image-keyboard-response,643,2051849,learnblock2,469.90000009536743,img/planet6_left.png,6,Community 1,NA,FALSE,j,f,NA,NA,NA,2,6,"12,2,15,5,6,10,8,13,14,1,7,4,11,9,3"
15160,commdev-image-keyboard-response,644,2053101,learnblock2,544.9000000953674,img/planet2_left.png,2,Community 1,NA,TRUE,f,f,NA,NA,NA,2,6,"12,2,15,5,6,10,8,13,14,1,7,4,11,9,3"
15160,commdev-image-keyboard-response,645,2054353,learnblock2,732.7000002861023,img/planet15_left.png,15,Community 1,NA,TRUE,f,f,NA,NA,NA,2,6,"12,2,15,5,6,10,8,13,14,1,7,4,11,9,3"
15160,commdev-image-keyboard-response,646,2055605,learnblock2,741.7999997138977,img/planet2_right.png,2,Community 1,NA,TRUE,j,j,NA,NA,NA,2,6,"12,2,15,5,6,10,8,13,14,1,7,4,11,9,3"
15160,commdev-image-keyboard-response,647,2056857,learnblock2,668.5,img/planet5_left.png,5,Community 1,NA,TRUE,f,f,NA,NA,NA,2,6,"12,2,15,5,6,10,8,13,14,1,7,4,11,9,3"
15160,commdev-image-keyboard-response,648,2058108,learnblock2,556.5,img/planet12_right.png,12,Community 1,NA,TRUE,j,j,NA,NA,NA,2,6,"12,2,15,5,6,10,8,13,14,1,7,4,11,9,3"
15160,commdev-image-keyboard-response,649,2059360,learnblock2,527.9000000953674,img/planet2_left.png,2,Community 1,NA,TRUE,f,f,NA,NA,NA,2,6,"12,2,15,5,6,10,8,13,14,1,7,4,11,9,3"
15160,commdev-image-keyboard-response,650,2060612,learnblock2,615.3999996185303,img/planet15_left.png,15,Community 1,NA,TRUE,f,f,NA,NA,NA,2,6,"12,2,15,5,6,10,8,13,14,1,7,4,11,9,3"
15160,commdev-image-keyboard-response,651,2061870,learnblock2,621.5999999046326,img/planet12_right.png,12,Community 1,NA,TRUE,j,j,NA,NA,NA,2,6,"12,2,15,5,6,10,8,13,14,1,7,4,11,9,3"
15160,commdev-image-keyboard-response,652,2063123,learnblock2,603.5,img/planet2_left.png,2,Community 1,NA,TRUE,f,f,NA,NA,NA,2,6,"12,2,15,5,6,10,8,13,14,1,7,4,11,9,3"
15160,commdev-image-keyboard-response,653,2064374,learnblock2,511.90000009536743,img/planet15_left.png,15,Community 1,NA,TRUE,f,f,NA,NA,NA,2,6,"12,2,15,5,6,10,8,13,14,1,7,4,11,9,3"
15160,commdev-image-keyboard-response,654,2065626,learnblock2,539.1999998092651,img/planet2_right.png,2,Community 1,NA,TRUE,j,j,NA,NA,NA,2,6,"12,2,15,5,6,10,8,13,14,1,7,4,11,9,3"
15160,commdev-image-keyboard-response,655,2066878,learnblock2,559.2999997138977,img/planet6_left.png,6,Community 1,NA,TRUE,f,f,NA,NA,NA,2,6,"12,2,15,5,6,10,8,13,14,1,7,4,11,9,3"
15160,commdev-image-keyboard-response,656,2068129,learnblock2,525.5999999046326,img/planet2_right.png,2,Community 1,NA,TRUE,j,j,NA,NA,NA,2,6,"12,2,15,5,6,10,8,13,14,1,7,4,11,9,3"
15160,commdev-image-keyboard-response,657,2069382,learnblock2,533.8999996185303,img/planet6_right.png,6,Community 1,NA,TRUE,j,j,NA,NA,NA,2,6,"12,2,15,5,6,10,8,13,14,1,7,4,11,9,3"
15160,commdev-image-keyboard-response,658,2070647,learnblock2,511.19999980926514,img/planet2_left.png,2,Community 1,NA,TRUE,f,f,NA,NA,NA,2,6,"12,2,15,5,6,10,8,13,14,1,7,4,11,9,3"
15160,commdev-image-keyboard-response,659,2071899,learnblock2,626.4000000953674,img/planet12_right.png,12,Community 1,NA,TRUE,j,j,NA,NA,NA,2,6,"12,2,15,5,6,10,8,13,14,1,7,4,11,9,3"
15160,commdev-image-keyboard-response,660,2073151,learnblock2,664,img/planet5_right.png,5,Community 1,NA,TRUE,j,j,NA,NA,NA,2,6,"12,2,15,5,6,10,8,13,14,1,7,4,11,9,3"
15160,commdev-image-keyboard-response,661,2074403,learnblock2,582.6999998092651,img/planet2_right.png,2,Community 1,NA,TRUE,j,j,NA,NA,NA,2,6,"12,2,15,5,6,10,8,13,14,1,7,4,11,9,3"
15160,commdev-image-keyboard-response,662,2075670,learnblock2,500.7999997138977,img/planet6_left.png,6,Community 1,NA,TRUE,f,f,NA,NA,NA,2,6,"12,2,15,5,6,10,8,13,14,1,7,4,11,9,3"
15160,commdev-image-keyboard-response,663,2076921,learnblock2,522.8000001907349,img/planet7_right.png,7,Community 3,NA,TRUE,j,j,NA,NA,NA,2,6,"12,2,15,5,6,10,8,13,14,1,7,4,11,9,3"
15160,commdev-image-keyboard-response,664,2078173,learnblock2,575.6000003814697,img/planet6_left.png,6,Community 1,NA,TRUE,f,f,NA,NA,NA,2,6,"12,2,15,5,6,10,8,13,14,1,7,4,11,9,3"
15160,commdev-image-keyboard-response,665,2079424,learnblock2,641.0999999046326,img/planet12_left.png,12,Community 1,NA,TRUE,f,f,NA,NA,NA,2,6,"12,2,15,5,6,10,8,13,14,1,7,4,11,9,3"
15160,commdev-image-keyboard-response,666,2080676,learnblock2,658.4000000953674,img/planet2_left.png,2,Community 1,NA,TRUE,f,f,NA,NA,NA,2,6,"12,2,15,5,6,10,8,13,14,1,7,4,11,9,3"
15160,commdev-image-keyboard-response,667,2081928,learnblock2,666.8999996185303,img/planet12_left.png,12,Community 1,NA,TRUE,f,f,NA,NA,NA,2,6,"12,2,15,5,6,10,8,13,14,1,7,4,11,9,3"
