subject_id,trial_type,trial_index,time_elapsed,block,rt,stimulus,planet,community,response,correct,key_press,learning_correct_response,parse,init_locations,final_locations,browser_interactions,num_comp,planet_map
14398,commdev-instructions,7,45170,NA,1891.0999999642372,"<p>In this game, you are a scientist on board a space shuttle. </p><p> On each mission, you will visit planets all across the universe.</p><img src=""img/controlroom.jpg"" width=300vw>",NA,NA,NA,NA,NA,NA,NA,NA,NA,1,6,"1,7,12,15,2,3,8,13,5,11,9,10,6,4,14"
14398,commdev-instructions,8,49579,NA,2319.5,"<p>Here are a few planets you might see:</p><img src=""img/practice1.png"" width=200vw><img src=""img/practice2.png"" width=200vw><img src=""img/practice3.png"" width=200vw>",NA,NA,NA,NA,NA,NA,NA,NA,NA,1,6,"1,7,12,15,2,3,8,13,5,11,9,10,6,4,14"
14398,commdev-instructions,9,58094,NA,1106.199999988079,"<p>Your job as a scientist is to record which direction the winds are moving on each planet.</p><p>There are two types of wind directions:</p><img src=""img/practice1_left.png"" width=200vw><img src=""img/practice1_right.png"" width=200vw>",NA,NA,NA,NA,NA,NA,NA,NA,NA,1,6,"1,7,12,15,2,3,8,13,5,11,9,10,6,4,14"
14398,commdev-instructions,10,65162,NA,2183.300000011921,"<p>If the winds are moving this way, press the letter <strong>F</strong> on the keyboard as fast as you can.</p><img src=""img/leftwind.png"" width=250vw>",NA,NA,NA,NA,NA,NA,NA,NA,NA,1,6,"1,7,12,15,2,3,8,13,5,11,9,10,6,4,14"
14398,commdev-instructions,11,72204,NA,2545.599999964237,"<p>If the winds are moving this way, press the letter <strong>J</strong> on the keyboard as fast as you can.</p><img src=""img/rightwind.png"" width=350vw>",NA,NA,NA,NA,NA,NA,NA,NA,NA,1,6,"1,7,12,15,2,3,8,13,5,11,9,10,6,4,14"
14398,commdev-instructions,12,78428,NA,1788.699999988079,<p>You will have 1 second to respond. Try to respond before the time runs out!,NA,NA,NA,NA,NA,NA,NA,NA,NA,1,6,"1,7,12,15,2,3,8,13,5,11,9,10,6,4,14"
14398,commdev-instructions,13,84859,NA,999.8000000119209,<p>The planets you will visit will look different from each other.</p><p>You should respond <strong>only</strong> based on wind direction.,NA,NA,NA,NA,NA,NA,NA,NA,NA,1,6,"1,7,12,15,2,3,8,13,5,11,9,10,6,4,14"
14398,commdev-instructions,14,95906,NA,5867.099999964237,"<p> Ready to start the practice round? </p><p> Remember, press <strong>F</strong> or <strong>J</strong> depending on the wind direction.<br><img src=""img/categorize_planet_example.png""",NA,NA,NA,NA,NA,NA,NA,NA,NA,1,6,"1,7,12,15,2,3,8,13,5,11,9,10,6,4,14"
14398,commdev-instructions,26,142475,NA,3361.600000023842,"<p>Great, now try a short practice mission. </p><p> This time, you will have 1 second to respond and you won't know whether you pressed the right or wrong key for each planet.</p>",NA,NA,NA,NA,NA,NA,NA,NA,NA,1,6,"1,7,12,15,2,3,8,13,5,11,9,10,6,4,14"
14398,commdev-image-keyboard-response,27,143845,practice,608.0999999642372,img/practice3_right.png,NA,Number not found in mappings,NA,TRUE,j,j,NA,NA,NA,1,6,"1,7,12,15,2,3,8,13,5,11,9,10,6,4,14"
14398,commdev-image-keyboard-response,28,145109,practice,646.3000000119209,img/practice1_right.png,NA,Number not found in mappings,NA,FALSE,f,j,NA,NA,NA,1,6,"1,7,12,15,2,3,8,13,5,11,9,10,6,4,14"
14398,commdev-image-keyboard-response,29,146375,practice,82.60000002384186,img/practice3_left.png,NA,Number not found in mappings,NA,FALSE,j,f,NA,NA,NA,1,6,"1,7,12,15,2,3,8,13,5,11,9,10,6,4,14"
14398,commdev-image-keyboard-response,30,147641,practice,394.0999999642372,img/practice1_left.png,NA,Number not found in mappings,NA,TRUE,f,f,NA,NA,NA,1,6,"1,7,12,15,2,3,8,13,5,11,9,10,6,4,14"
14398,commdev-image-keyboard-response,31,148906,practice,325.69999998807907,img/practice2_left.png,NA,Number not found in mappings,NA,FALSE,j,f,NA,NA,NA,1,6,"1,7,12,15,2,3,8,13,5,11,9,10,6,4,14"
14398,commdev-image-keyboard-response,32,150172,practice,401.60000002384186,img/practice3_right.png,NA,Number not found in mappings,NA,TRUE,j,j,NA,NA,NA,1,6,"1,7,12,15,2,3,8,13,5,11,9,10,6,4,14"
14398,commdev-image-keyboard-response,33,151437,practice,260.89999997615814,img/practice4_left.png,NA,Number not found in mappings,NA,TRUE,f,f,NA,NA,NA,1,6,"1,7,12,15,2,3,8,13,5,11,9,10,6,4,14"
14398,commdev-image-keyboard-response,34,152702,practice,382,img/practice3_left.png,NA,Number not found in mappings,NA,FALSE,j,f,NA,NA,NA,1,6,"1,7,12,15,2,3,8,13,5,11,9,10,6,4,14"
14398,commdev-instructions,35,163435,NA,1181.800000011921,"<p>Great job with the practice round.</p><p>During real missions, you won't know whether you pressed the right or wrong key for each planet.</p><p>But between missions, we will tell you how you did overall.</p>",NA,NA,NA,NA,NA,NA,NA,NA,NA,1,6,"1,7,12,15,2,3,8,13,5,11,9,10,6,4,14"
14398,commdev-instructions,36,173091,NA,1409.1000000238419,<p>Try your best! You will be paid a bonus based on how many correct responses you make!</p><p>Responses that are too slow will not count toward your bonus.</p>,NA,NA,NA,NA,NA,NA,NA,NA,NA,1,6,"1,7,12,15,2,3,8,13,5,11,9,10,6,4,14"
14398,commdev-instructions,37,192507,NA,13204.300000011921,"<p>You are almost ready to start the real game.</p><p> First, we are going to ask you some questions about how the game works.</p>",NA,NA,NA,NA,NA,NA,NA,NA,NA,1,6,"1,7,12,15,2,3,8,13,5,11,9,10,6,4,14"
14398,commdev-instructions,46,283499,NA,1574.6000000238419,"<p> Nice work! It is now time to start the real game.<p></p>You will go on two missions to record wind directions of different planets.<p></p>Each one will take about 5 minutes. You will get to take a break between missions.<p><p> Remember, press <strong>F</strong> or <strong>J</strong> depending on the wind direction. Good luck!<br><img src=""img/categorize_planet_example.png""",NA,NA,NA,NA,NA,NA,NA,NA,NA,1,6,"1,7,12,15,2,3,8,13,5,11,9,10,6,4,14"
14398,commdev-image-keyboard-response,48,293754,learnblock1,597.6999999880791,img/planet8_left.png,8,Community 2,NA,FALSE,j,f,NA,NA,NA,1,6,"1,7,12,15,2,3,8,13,5,11,9,10,6,4,14"
14398,commdev-image-keyboard-response,49,295020,learnblock1,543.8000000119209,img/planet3_left.png,3,Community 2,NA,FALSE,j,f,NA,NA,NA,1,6,"1,7,12,15,2,3,8,13,5,11,9,10,6,4,14"
14398,commdev-image-keyboard-response,50,296278,learnblock1,516.8999999761581,img/planet15_right.png,15,Community 1,NA,TRUE,j,j,NA,NA,NA,1,6,"1,7,12,15,2,3,8,13,5,11,9,10,6,4,14"
14398,commdev-image-keyboard-response,51,297537,learnblock1,445.10000002384186,img/planet12_right.png,12,Community 1,NA,FALSE,f,j,NA,NA,NA,1,6,"1,7,12,15,2,3,8,13,5,11,9,10,6,4,14"
14398,commdev-image-keyboard-response,52,298797,learnblock1,411.39999997615814,img/planet2_left.png,2,Community 1,NA,TRUE,f,f,NA,NA,NA,1,6,"1,7,12,15,2,3,8,13,5,11,9,10,6,4,14"
14398,commdev-image-keyboard-response,53,300054,learnblock1,369.69999998807907,img/planet12_left.png,12,Community 1,NA,FALSE,j,f,NA,NA,NA,1,6,"1,7,12,15,2,3,8,13,5,11,9,10,6,4,14"
14398,commdev-image-keyboard-response,54,301318,learnblock1,555.2000000476837,img/planet1_right.png,1,Community 1,NA,TRUE,j,j,NA,NA,NA,1,6,"1,7,12,15,2,3,8,13,5,11,9,10,6,4,14"
14398,commdev-image-keyboard-response,55,302574,learnblock1,346.69999998807907,img/planet2_left.png,2,Community 1,NA,TRUE,f,f,NA,NA,NA,1,6,"1,7,12,15,2,3,8,13,5,11,9,10,6,4,14"
14398,commdev-image-keyboard-response,56,303834,learnblock1,407,img/planet9_left.png,9,Community 3,NA,TRUE,f,f,NA,NA,NA,1,6,"1,7,12,15,2,3,8,13,5,11,9,10,6,4,14"
14398,commdev-image-keyboard-response,57,305096,learnblock1,318.80000001192093,img/planet4_left.png,4,Community 3,NA,FALSE,j,f,NA,NA,NA,1,6,"1,7,12,15,2,3,8,13,5,11,9,10,6,4,14"
14398,commdev-image-keyboard-response,58,306352,learnblock1,336.4000000357628,img/planet9_left.png,9,Community 3,NA,TRUE,f,f,NA,NA,NA,1,6,"1,7,12,15,2,3,8,13,5,11,9,10,6,4,14"
14398,commdev-image-keyboard-response,59,307612,learnblock1,368.89999997615814,img/planet2_right.png,2,Community 1,NA,FALSE,f,j,NA,NA,NA,1,6,"1,7,12,15,2,3,8,13,5,11,9,10,6,4,14"
14398,commdev-image-keyboard-response,60,308874,learnblock1,603.1999999880791,img/planet12_right.png,12,Community 1,NA,TRUE,j,j,NA,NA,NA,1,6,"1,7,12,15,2,3,8,13,5,11,9,10,6,4,14"
14398,commdev-image-keyboard-response,61,310134,learnblock1,347.10000002384186,img/planet15_left.png,15,Community 1,NA,TRUE,f,f,NA,NA,NA,1,6,"1,7,12,15,2,3,8,13,5,11,9,10,6,4,14"
14398,commdev-image-keyboard-response,62,311394,learnblock1,357.80000001192093,img/planet12_left.png,12,Community 1,NA,FALSE,j,f,NA,NA,NA,1,6,"1,7,12,15,2,3,8,13,5,11,9,10,6,4,14"
14398,commdev-image-keyboard-response,63,312646,learnblock1,626.6999999880791,img/planet15_left.png,15,Community 1,NA,TRUE,f,f,NA,NA,NA,1,6,"1,7,12,15,2,3,8,13,5,11,9,10,6,4,14"
14398,commdev-image-keyboard-response,64,313898,learnblock1,425.69999998807907,img/planet12_right.png,12,Community 1,NA,FALSE,f,j,NA,NA,NA,1,6,"1,7,12,15,2,3,8,13,5,11,9,10,6,4,14"
14398,commdev-image-keyboard-response,65,315149,learnblock1,436,img/planet2_left.png,2,Community 1,NA,TRUE,f,f,NA,NA,NA,1,6,"1,7,12,15,2,3,8,13,5,11,9,10,6,4,14"
14398,commdev-image-keyboard-response,66,316400,learnblock1,273.89999997615814,img/planet12_left.png,12,Community 1,NA,FALSE,j,f,NA,NA,NA,1,6,"1,7,12,15,2,3,8,13,5,11,9,10,6,4,14"
14398,commdev-image-keyboard-response,67,317652,learnblock1,426.5,img/planet15_left.png,15,Community 1,NA,TRUE,f,f,NA,NA,NA,1,6,"1,7,12,15,2,3,8,13,5,11,9,10,6,4,14"
14398,commdev-image-keyboard-response,68,318904,learnblock1,442.69999998807907,img/planet3_left.png,3,Community 2,NA,FALSE,j,f,NA,NA,NA,1,6,"1,7,12,15,2,3,8,13,5,11,9,10,6,4,14"
14398,commdev-image-keyboard-response,69,320155,learnblock1,386.5,img/planet8_left.png,8,Community 2,NA,TRUE,f,f,NA,NA,NA,1,6,"1,7,12,15,2,3,8,13,5,11,9,10,6,4,14"
14398,commdev-image-keyboard-response,70,321406,learnblock1,458.9000000357628,img/planet3_right.png,3,Community 2,NA,TRUE,j,j,NA,NA,NA,1,6,"1,7,12,15,2,3,8,13,5,11,9,10,6,4,14"
14398,commdev-image-keyboard-response,71,322657,learnblock1,338.30000001192093,img/planet8_left.png,8,Community 2,NA,TRUE,f,f,NA,NA,NA,1,6,"1,7,12,15,2,3,8,13,5,11,9,10,6,4,14"
14398,commdev-image-keyboard-response,72,323909,learnblock1,232.60000002384186,img/planet11_left.png,11,Community 2,NA,FALSE,j,f,NA,NA,NA,1,6,"1,7,12,15,2,3,8,13,5,11,9,10,6,4,14"
14398,commdev-image-keyboard-response,73,325160,learnblock1,395.89999997615814,img/planet8_right.png,8,Community 2,NA,TRUE,j,j,NA,NA,NA,1,6,"1,7,12,15,2,3,8,13,5,11,9,10,6,4,14"
14398,commdev-image-keyboard-response,74,326411,learnblock1,382.5,img/planet13_left.png,13,Community 2,NA,FALSE,j,f,NA,NA,NA,1,6,"1,7,12,15,2,3,8,13,5,11,9,10,6,4,14"
14398,commdev-image-keyboard-response,75,327663,learnblock1,436.9000000357628,img/planet11_left.png,11,Community 2,NA,TRUE,f,f,NA,NA,NA,1,6,"1,7,12,15,2,3,8,13,5,11,9,10,6,4,14"
14398,commdev-image-keyboard-response,76,328915,learnblock1,338.30000001192093,img/planet5_left.png,5,Community 2,NA,FALSE,j,f,NA,NA,NA,1,6,"1,7,12,15,2,3,8,13,5,11,9,10,6,4,14"
14398,commdev-image-keyboard-response,77,330167,learnblock1,428.60000002384186,img/planet13_left.png,13,Community 2,NA,TRUE,f,f,NA,NA,NA,1,6,"1,7,12,15,2,3,8,13,5,11,9,10,6,4,14"
14398,commdev-image-keyboard-response,78,331418,learnblock1,368.69999998807907,img/planet11_left.png,11,Community 2,NA,FALSE,j,f,NA,NA,NA,1,6,"1,7,12,15,2,3,8,13,5,11,9,10,6,4,14"
14398,commdev-image-keyboard-response,79,332670,learnblock1,352.30000001192093,img/planet13_left.png,13,Community 2,NA,TRUE,f,f,NA,NA,NA,1,6,"1,7,12,15,2,3,8,13,5,11,9,10,6,4,14"
14398,commdev-image-keyboard-response,80,333921,learnblock1,495.69999998807907,img/planet10_left.png,10,Community 3,NA,TRUE,f,f,NA,NA,NA,1,6,"1,7,12,15,2,3,8,13,5,11,9,10,6,4,14"
14398,commdev-image-keyboard-response,81,335172,learnblock1,313.19999998807907,img/planet6_right.png,6,Community 3,NA,FALSE,f,j,NA,NA,NA,1,6,"1,7,12,15,2,3,8,13,5,11,9,10,6,4,14"
14398,commdev-image-keyboard-response,82,336424,learnblock1,357.5999999642372,img/planet9_left.png,9,Community 3,NA,TRUE,f,f,NA,NA,NA,1,6,"1,7,12,15,2,3,8,13,5,11,9,10,6,4,14"
14398,commdev-image-keyboard-response,83,337679,learnblock1,217.19999998807907,img/planet4_right.png,4,Community 3,NA,TRUE,j,j,NA,NA,NA,1,6,"1,7,12,15,2,3,8,13,5,11,9,10,6,4,14"
14398,commdev-image-keyboard-response,84,338931,learnblock1,198.80000001192093,img/planet14_right.png,14,Community 3,NA,FALSE,f,j,NA,NA,NA,1,6,"1,7,12,15,2,3,8,13,5,11,9,10,6,4,14"
14398,commdev-image-keyboard-response,85,340182,learnblock1,411.5,img/planet9_right.png,9,Community 3,NA,FALSE,f,j,NA,NA,NA,1,6,"1,7,12,15,2,3,8,13,5,11,9,10,6,4,14"
14398,commdev-image-keyboard-response,86,341433,learnblock1,417.39999997615814,img/planet14_left.png,14,Community 3,NA,TRUE,f,f,NA,NA,NA,1,6,"1,7,12,15,2,3,8,13,5,11,9,10,6,4,14"
14398,commdev-image-keyboard-response,87,342685,learnblock1,429.10000002384186,img/planet10_right.png,10,Community 3,NA,FALSE,f,j,NA,NA,NA,1,6,"1,7,12,15,2,3,8,13,5,11,9,10,6,4,14"
14398,commdev-image-keyboard-response,88,343936,learnblock1,473.30000001192093,img/planet14_right.png,14,Community 3,NA,FALSE,f,j,NA,NA,NA,1,6,"1,7,12,15,2,3,8,13,5,11,9,10,6,4,14"
14398,commdev-image-keyboard-response,89,345188,learnblock1,437.5,img/planet9_left.png,9,Community 3,NA,TRUE,f,f,NA,NA,NA,1,6,"1,7,12,15,2,3,8,13,5,11,9,10,6,4,14"
14398,commdev-image-keyboard-response,90,346440,learnblock1,488.60000002384186,img/planet14_left.png,14,Community 3,NA,FALSE,j,f,NA,NA,NA,1,6,"1,7,12,15,2,3,8,13,5,11,9,10,6,4,14"
14398,commdev-image-keyboard-response,91,347692,learnblock1,429.2000000476837,img/planet4_left.png,4,Community 3,NA,TRUE,f,f,NA,NA,NA,1,6,"1,7,12,15,2,3,8,13,5,11,9,10,6,4,14"
14398,commdev-image-keyboard-response,92,348943,learnblock1,605.4000000357628,img/planet6_left.png,6,Community 3,NA,TRUE,f,f,NA,NA,NA,1,6,"1,7,12,15,2,3,8,13,5,11,9,10,6,4,14"
14398,commdev-image-keyboard-response,93,350195,learnblock1,451.60000002384186,img/planet14_right.png,14,Community 3,NA,TRUE,j,j,NA,NA,NA,1,6,"1,7,12,15,2,3,8,13,5,11,9,10,6,4,14"
14398,commdev-image-keyboard-response,94,351455,learnblock1,367.2999999523163,img/planet6_right.png,6,Community 3,NA,TRUE,j,j,NA,NA,NA,1,6,"1,7,12,15,2,3,8,13,5,11,9,10,6,4,14"
14398,commdev-image-keyboard-response,95,352706,learnblock1,560.3000000119209,img/planet10_right.png,10,Community 3,NA,TRUE,j,j,NA,NA,NA,1,6,"1,7,12,15,2,3,8,13,5,11,9,10,6,4,14"
14398,commdev-image-keyboard-response,96,353957,learnblock1,371.60000002384186,img/planet6_left.png,6,Community 3,NA,FALSE,j,f,NA,NA,NA,1,6,"1,7,12,15,2,3,8,13,5,11,9,10,6,4,14"
14398,commdev-image-keyboard-response,97,355209,learnblock1,505,img/planet14_left.png,14,Community 3,NA,FALSE,j,f,NA,NA,NA,1,6,"1,7,12,15,2,3,8,13,5,11,9,10,6,4,14"
14398,commdev-image-keyboard-response,98,356460,learnblock1,387.0999999642372,img/planet6_left.png,6,Community 3,NA,TRUE,f,f,NA,NA,NA,1,6,"1,7,12,15,2,3,8,13,5,11,9,10,6,4,14"
14398,commdev-image-keyboard-response,99,357711,learnblock1,357.30000001192093,img/planet9_left.png,9,Community 3,NA,TRUE,f,f,NA,NA,NA,1,6,"1,7,12,15,2,3,8,13,5,11,9,10,6,4,14"
14398,commdev-image-keyboard-response,100,358962,learnblock1,411.89999997615814,img/planet4_left.png,4,Community 3,NA,TRUE,f,f,NA,NA,NA,1,6,"1,7,12,15,2,3,8,13,5,11,9,10,6,4,14"
14398,commdev-image-keyboard-response,101,360213,learnblock1,421,img/planet10_right.png,10,Community 3,NA,TRUE,j,j,NA,NA,NA,1,6,"1,7,12,15,2,3,8,13,5,11,9,10,6,4,14"
14398,commdev-image-keyboard-response,102,361465,learnblock1,302.10000002384186,img/planet13_left.png,13,Community 2,NA,TRUE,f,f,NA,NA,NA,1,6,"1,7,12,15,2,3,8,13,5,11,9,10,6,4,14"
14398,commdev-image-keyboard-response,103,362716,learnblock1,388.39999997615814,img/planet11_right.png,11,Community 2,NA,TRUE,j,j,NA,NA,NA,1,6,"1,7,12,15,2,3,8,13,5,11,9,10,6,4,14"
14398,commdev-image-keyboard-response,104,363967,learnblock1,272.30000001192093,img/planet3_right.png,3,Community 2,NA,FALSE,f,j,NA,NA,NA,1,6,"1,7,12,15,2,3,8,13,5,11,9,10,6,4,14"
14398,commdev-image-keyboard-response,105,365219,learnblock1,347.4000000357628,img/planet15_left.png,15,Community 1,NA,TRUE,f,f,NA,NA,NA,1,6,"1,7,12,15,2,3,8,13,5,11,9,10,6,4,14"
14398,commdev-image-keyboard-response,106,366470,learnblock1,440.30000001192093,img/planet3_right.png,3,Community 2,NA,TRUE,j,j,NA,NA,NA,1,6,"1,7,12,15,2,3,8,13,5,11,9,10,6,4,14"
14398,commdev-image-keyboard-response,107,367722,learnblock1,345.5,img/planet15_left.png,15,Community 1,NA,TRUE,f,f,NA,NA,NA,1,6,"1,7,12,15,2,3,8,13,5,11,9,10,6,4,14"
14398,commdev-image-keyboard-response,108,368975,learnblock1,320.5,img/planet12_left.png,12,Community 1,NA,FALSE,j,f,NA,NA,NA,1,6,"1,7,12,15,2,3,8,13,5,11,9,10,6,4,14"
14398,commdev-image-keyboard-response,109,370227,learnblock1,486,img/planet7_right.png,7,Community 1,NA,TRUE,j,j,NA,NA,NA,1,6,"1,7,12,15,2,3,8,13,5,11,9,10,6,4,14"
14398,commdev-image-keyboard-response,110,371480,learnblock1,353.5,img/planet2_left.png,2,Community 1,NA,TRUE,f,f,NA,NA,NA,1,6,"1,7,12,15,2,3,8,13,5,11,9,10,6,4,14"
14398,commdev-image-keyboard-response,111,372732,learnblock1,553.7000000476837,img/planet12_right.png,12,Community 1,NA,TRUE,j,j,NA,NA,NA,1,6,"1,7,12,15,2,3,8,13,5,11,9,10,6,4,14"
14398,commdev-image-keyboard-response,112,373983,learnblock1,543.8000000119209,img/planet1_right.png,1,Community 1,NA,TRUE,j,j,NA,NA,NA,1,6,"1,7,12,15,2,3,8,13,5,11,9,10,6,4,14"
14398,commdev-image-keyboard-response,113,375235,learnblock1,329.89999997615814,img/planet2_right.png,2,Community 1,NA,FALSE,f,j,NA,NA,NA,1,6,"1,7,12,15,2,3,8,13,5,11,9,10,6,4,14"
14398,commdev-image-keyboard-response,114,376486,learnblock1,351.30000001192093,img/planet9_left.png,9,Community 3,NA,FALSE,j,f,NA,NA,NA,1,6,"1,7,12,15,2,3,8,13,5,11,9,10,6,4,14"
14398,commdev-image-keyboard-response,115,377737,learnblock1,335.19999998807907,img/planet6_right.png,6,Community 3,NA,FALSE,f,j,NA,NA,NA,1,6,"1,7,12,15,2,3,8,13,5,11,9,10,6,4,14"
14398,commdev-image-keyboard-response,116,378988,learnblock1,655.8999999761581,img/planet4_right.png,4,Community 3,NA,FALSE,f,j,NA,NA,NA,1,6,"1,7,12,15,2,3,8,13,5,11,9,10,6,4,14"
14398,commdev-image-keyboard-response,117,380240,learnblock1,635,img/planet6_left.png,6,Community 3,NA,TRUE,f,f,NA,NA,NA,1,6,"1,7,12,15,2,3,8,13,5,11,9,10,6,4,14"
14398,commdev-image-keyboard-response,118,381492,learnblock1,428,img/planet14_left.png,14,Community 3,NA,TRUE,f,f,NA,NA,NA,1,6,"1,7,12,15,2,3,8,13,5,11,9,10,6,4,14"
14398,commdev-image-keyboard-response,119,382744,learnblock1,335.69999998807907,img/planet6_right.png,6,Community 3,NA,TRUE,j,j,NA,NA,NA,1,6,"1,7,12,15,2,3,8,13,5,11,9,10,6,4,14"
14398,commdev-image-keyboard-response,120,383995,learnblock1,375.7999999523163,img/planet10_right.png,10,Community 3,NA,TRUE,j,j,NA,NA,NA,1,6,"1,7,12,15,2,3,8,13,5,11,9,10,6,4,14"
14398,commdev-image-keyboard-response,121,385247,learnblock1,308.30000001192093,img/planet13_left.png,13,Community 2,NA,TRUE,f,f,NA,NA,NA,1,6,"1,7,12,15,2,3,8,13,5,11,9,10,6,4,14"
14398,commdev-image-keyboard-response,122,386498,learnblock1,482.39999997615814,img/planet10_left.png,10,Community 3,NA,TRUE,f,f,NA,NA,NA,1,6,"1,7,12,15,2,3,8,13,5,11,9,10,6,4,14"
14398,commdev-image-keyboard-response,123,387751,learnblock1,494.69999998807907,img/planet4_right.png,4,Community 3,NA,TRUE,j,j,NA,NA,NA,1,6,"1,7,12,15,2,3,8,13,5,11,9,10,6,4,14"
14398,commdev-image-keyboard-response,124,389003,learnblock1,398.80000001192093,img/planet14_right.png,14,Community 3,NA,TRUE,j,j,NA,NA,NA,1,6,"1,7,12,15,2,3,8,13,5,11,9,10,6,4,14"
14398,commdev-image-keyboard-response,125,390255,learnblock1,445.60000002384186,img/planet6_right.png,6,Community 3,NA,TRUE,j,j,NA,NA,NA,1,6,"1,7,12,15,2,3,8,13,5,11,9,10,6,4,14"
14398,commdev-image-keyboard-response,126,391508,learnblock1,324.19999998807907,img/planet14_right.png,14,Community 3,NA,FALSE,f,j,NA,NA,NA,1,6,"1,7,12,15,2,3,8,13,5,11,9,10,6,4,14"
14398,commdev-image-keyboard-response,127,392760,learnblock1,441.30000001192093,img/planet6_right.png,6,Community 3,NA,TRUE,j,j,NA,NA,NA,1,6,"1,7,12,15,2,3,8,13,5,11,9,10,6,4,14"
14398,commdev-image-keyboard-response,128,394012,learnblock1,371.80000001192093,img/planet9_left.png,9,Community 3,NA,TRUE,f,f,NA,NA,NA,1,6,"1,7,12,15,2,3,8,13,5,11,9,10,6,4,14"
14398,commdev-image-keyboard-response,129,395264,learnblock1,472.4000000357628,img/planet14_left.png,14,Community 3,NA,TRUE,f,f,NA,NA,NA,1,6,"1,7,12,15,2,3,8,13,5,11,9,10,6,4,14"
14398,commdev-image-keyboard-response,130,396516,learnblock1,495.69999998807907,img/planet4_right.png,4,Community 3,NA,TRUE,j,j,NA,NA,NA,1,6,"1,7,12,15,2,3,8,13,5,11,9,10,6,4,14"
14398,commdev-image-keyboard-response,131,397767,learnblock1,569.8999999761581,img/planet14_right.png,14,Community 3,NA,TRUE,j,j,NA,NA,NA,1,6,"1,7,12,15,2,3,8,13,5,11,9,10,6,4,14"
14398,commdev-image-keyboard-response,132,399019,learnblock1,253.0999999642372,img/planet6_left.png,6,Community 3,NA,TRUE,f,f,NA,NA,NA,1,6,"1,7,12,15,2,3,8,13,5,11,9,10,6,4,14"
14398,commdev-image-keyboard-response,133,400271,learnblock1,377.5,img/planet4_right.png,4,Community 3,NA,TRUE,j,j,NA,NA,NA,1,6,"1,7,12,15,2,3,8,13,5,11,9,10,6,4,14"
14398,commdev-image-keyboard-response,134,401522,learnblock1,345,img/planet9_left.png,9,Community 3,NA,TRUE,f,f,NA,NA,NA,1,6,"1,7,12,15,2,3,8,13,5,11,9,10,6,4,14"
14398,commdev-image-keyboard-response,135,402773,learnblock1,399.4000000357628,img/planet6_right.png,6,Community 3,NA,TRUE,j,j,NA,NA,NA,1,6,"1,7,12,15,2,3,8,13,5,11,9,10,6,4,14"
14398,commdev-image-keyboard-response,136,404025,learnblock1,366.69999998807907,img/planet14_left.png,14,Community 3,NA,TRUE,f,f,NA,NA,NA,1,6,"1,7,12,15,2,3,8,13,5,11,9,10,6,4,14"
14398,commdev-image-keyboard-response,137,405277,learnblock1,399.80000001192093,img/planet10_right.png,10,Community 3,NA,TRUE,j,j,NA,NA,NA,1,6,"1,7,12,15,2,3,8,13,5,11,9,10,6,4,14"
14398,commdev-image-keyboard-response,138,406528,learnblock1,391.10000002384186,img/planet14_right.png,14,Community 3,NA,TRUE,j,j,NA,NA,NA,1,6,"1,7,12,15,2,3,8,13,5,11,9,10,6,4,14"
14398,commdev-image-keyboard-response,139,407779,learnblock1,514.6999999880791,img/planet10_right.png,10,Community 3,NA,TRUE,j,j,NA,NA,NA,1,6,"1,7,12,15,2,3,8,13,5,11,9,10,6,4,14"
14398,commdev-image-keyboard-response,140,409030,learnblock1,440.5999999642372,img/planet13_right.png,13,Community 2,NA,FALSE,f,j,NA,NA,NA,1,6,"1,7,12,15,2,3,8,13,5,11,9,10,6,4,14"
14398,commdev-image-keyboard-response,141,410282,learnblock1,455.7000000476837,img/planet5_left.png,5,Community 2,NA,FALSE,j,f,NA,NA,NA,1,6,"1,7,12,15,2,3,8,13,5,11,9,10,6,4,14"
14398,commdev-image-keyboard-response,142,411534,learnblock1,459.39999997615814,img/planet11_left.png,11,Community 2,NA,FALSE,j,f,NA,NA,NA,1,6,"1,7,12,15,2,3,8,13,5,11,9,10,6,4,14"
14398,commdev-image-keyboard-response,143,412785,learnblock1,384.19999998807907,img/planet5_right.png,5,Community 2,NA,FALSE,f,j,NA,NA,NA,1,6,"1,7,12,15,2,3,8,13,5,11,9,10,6,4,14"
14398,commdev-image-keyboard-response,144,414037,learnblock1,611.3000000119209,img/planet3_right.png,3,Community 2,NA,TRUE,j,j,NA,NA,NA,1,6,"1,7,12,15,2,3,8,13,5,11,9,10,6,4,14"
14398,commdev-image-keyboard-response,145,415289,learnblock1,470.39999997615814,img/planet5_left.png,5,Community 2,NA,TRUE,f,f,NA,NA,NA,1,6,"1,7,12,15,2,3,8,13,5,11,9,10,6,4,14"
14398,commdev-image-keyboard-response,146,416552,learnblock1,444.4000000357628,img/planet11_left.png,11,Community 2,NA,TRUE,f,f,NA,NA,NA,1,6,"1,7,12,15,2,3,8,13,5,11,9,10,6,4,14"
14398,commdev-image-keyboard-response,147,417804,learnblock1,596,img/planet5_left.png,5,Community 2,NA,TRUE,f,f,NA,NA,NA,1,6,"1,7,12,15,2,3,8,13,5,11,9,10,6,4,14"
14398,commdev-image-keyboard-response,148,419055,learnblock1,401.7000000476837,img/planet3_right.png,3,Community 2,NA,TRUE,j,j,NA,NA,NA,1,6,"1,7,12,15,2,3,8,13,5,11,9,10,6,4,14"
14398,commdev-image-keyboard-response,149,420306,learnblock1,453,img/planet5_right.png,5,Community 2,NA,TRUE,j,j,NA,NA,NA,1,6,"1,7,12,15,2,3,8,13,5,11,9,10,6,4,14"
14398,commdev-image-keyboard-response,150,421558,learnblock1,342.5,img/planet13_right.png,13,Community 2,NA,TRUE,j,j,NA,NA,NA,1,6,"1,7,12,15,2,3,8,13,5,11,9,10,6,4,14"
14398,commdev-image-keyboard-response,151,422810,learnblock1,273.80000001192093,img/planet5_left.png,5,Community 2,NA,TRUE,f,f,NA,NA,NA,1,6,"1,7,12,15,2,3,8,13,5,11,9,10,6,4,14"
14398,commdev-image-keyboard-response,152,424062,learnblock1,464.30000001192093,img/planet3_right.png,3,Community 2,NA,TRUE,j,j,NA,NA,NA,1,6,"1,7,12,15,2,3,8,13,5,11,9,10,6,4,14"
14398,commdev-image-keyboard-response,153,425315,learnblock1,452.30000001192093,img/planet11_right.png,11,Community 2,NA,TRUE,j,j,NA,NA,NA,1,6,"1,7,12,15,2,3,8,13,5,11,9,10,6,4,14"
14398,commdev-image-keyboard-response,154,426567,learnblock1,386.69999998807907,img/planet3_right.png,3,Community 2,NA,FALSE,f,j,NA,NA,NA,1,6,"1,7,12,15,2,3,8,13,5,11,9,10,6,4,14"
14398,commdev-image-keyboard-response,155,427819,learnblock1,354.69999998807907,img/planet5_left.png,5,Community 2,NA,FALSE,j,f,NA,NA,NA,1,6,"1,7,12,15,2,3,8,13,5,11,9,10,6,4,14"
14398,commdev-image-keyboard-response,156,429070,learnblock1,589.1000000238419,img/planet3_left.png,3,Community 2,NA,TRUE,f,f,NA,NA,NA,1,6,"1,7,12,15,2,3,8,13,5,11,9,10,6,4,14"
14398,commdev-image-keyboard-response,157,430322,learnblock1,490.7000000476837,img/planet15_left.png,15,Community 1,NA,TRUE,f,f,NA,NA,NA,1,6,"1,7,12,15,2,3,8,13,5,11,9,10,6,4,14"
14398,commdev-image-keyboard-response,158,431574,learnblock1,593.8999999761581,img/planet1_left.png,1,Community 1,NA,TRUE,f,f,NA,NA,NA,1,6,"1,7,12,15,2,3,8,13,5,11,9,10,6,4,14"
14398,commdev-image-keyboard-response,159,432826,learnblock1,480.39999997615814,img/planet7_right.png,7,Community 1,NA,TRUE,j,j,NA,NA,NA,1,6,"1,7,12,15,2,3,8,13,5,11,9,10,6,4,14"
14398,commdev-image-keyboard-response,160,434077,learnblock1,349.30000001192093,img/planet1_left.png,1,Community 1,NA,TRUE,f,f,NA,NA,NA,1,6,"1,7,12,15,2,3,8,13,5,11,9,10,6,4,14"
14398,commdev-image-keyboard-response,161,435330,learnblock1,380.69999998807907,img/planet2_left.png,2,Community 1,NA,TRUE,f,f,NA,NA,NA,1,6,"1,7,12,15,2,3,8,13,5,11,9,10,6,4,14"
14398,commdev-image-keyboard-response,162,436580,learnblock1,424.69999998807907,img/planet1_left.png,1,Community 1,NA,TRUE,f,f,NA,NA,NA,1,6,"1,7,12,15,2,3,8,13,5,11,9,10,6,4,14"
14398,commdev-image-keyboard-response,163,437831,learnblock1,482.80000001192093,img/planet7_left.png,7,Community 1,NA,FALSE,j,f,NA,NA,NA,1,6,"1,7,12,15,2,3,8,13,5,11,9,10,6,4,14"
14398,commdev-image-keyboard-response,164,439091,learnblock1,459.89999997615814,img/planet12_right.png,12,Community 1,NA,TRUE,j,j,NA,NA,NA,1,6,"1,7,12,15,2,3,8,13,5,11,9,10,6,4,14"
14398,commdev-image-keyboard-response,165,440343,learnblock1,415.2999999523163,img/planet15_left.png,15,Community 1,NA,FALSE,j,f,NA,NA,NA,1,6,"1,7,12,15,2,3,8,13,5,11,9,10,6,4,14"
14398,commdev-image-keyboard-response,166,441594,learnblock1,566.6000000238419,img/planet1_left.png,1,Community 1,NA,TRUE,f,f,NA,NA,NA,1,6,"1,7,12,15,2,3,8,13,5,11,9,10,6,4,14"
14398,commdev-image-keyboard-response,167,442846,learnblock1,474.4000000357628,img/planet12_left.png,12,Community 1,NA,TRUE,f,f,NA,NA,NA,1,6,"1,7,12,15,2,3,8,13,5,11,9,10,6,4,14"
14398,commdev-image-keyboard-response,168,444097,learnblock1,353.89999997615814,img/planet7_left.png,7,Community 1,NA,FALSE,j,f,NA,NA,NA,1,6,"1,7,12,15,2,3,8,13,5,11,9,10,6,4,14"
14398,commdev-image-keyboard-response,169,445349,learnblock1,397.60000002384186,img/planet2_left.png,2,Community 1,NA,TRUE,f,f,NA,NA,NA,1,6,"1,7,12,15,2,3,8,13,5,11,9,10,6,4,14"
14398,commdev-image-keyboard-response,170,446601,learnblock1,464.0999999642372,img/planet9_right.png,9,Community 3,NA,TRUE,j,j,NA,NA,NA,1,6,"1,7,12,15,2,3,8,13,5,11,9,10,6,4,14"
14398,commdev-image-keyboard-response,171,447851,learnblock1,485.10000002384186,img/planet6_right.png,6,Community 3,NA,TRUE,j,j,NA,NA,NA,1,6,"1,7,12,15,2,3,8,13,5,11,9,10,6,4,14"
14398,commdev-image-keyboard-response,172,449103,learnblock1,347.10000002384186,img/planet9_left.png,9,Community 3,NA,TRUE,f,f,NA,NA,NA,1,6,"1,7,12,15,2,3,8,13,5,11,9,10,6,4,14"
14398,commdev-image-keyboard-response,173,450355,learnblock1,346.60000002384186,img/planet2_left.png,2,Community 1,NA,FALSE,j,f,NA,NA,NA,1,6,"1,7,12,15,2,3,8,13,5,11,9,10,6,4,14"
14398,commdev-image-keyboard-response,174,451607,learnblock1,342.30000001192093,img/planet9_left.png,9,Community 3,NA,TRUE,f,f,NA,NA,NA,1,6,"1,7,12,15,2,3,8,13,5,11,9,10,6,4,14"
14398,commdev-image-keyboard-response,175,452858,learnblock1,292.69999998807907,img/planet6_left.png,6,Community 3,NA,FALSE,j,f,NA,NA,NA,1,6,"1,7,12,15,2,3,8,13,5,11,9,10,6,4,14"
14398,commdev-image-keyboard-response,176,454109,learnblock1,503.5,img/planet9_right.png,9,Community 3,NA,TRUE,j,j,NA,NA,NA,1,6,"1,7,12,15,2,3,8,13,5,11,9,10,6,4,14"
14398,commdev-image-keyboard-response,177,455361,learnblock1,362.5,img/planet2_left.png,2,Community 1,NA,TRUE,f,f,NA,NA,NA,1,6,"1,7,12,15,2,3,8,13,5,11,9,10,6,4,14"
14398,commdev-image-keyboard-response,178,456613,learnblock1,462.30000001192093,img/planet7_left.png,7,Community 1,NA,TRUE,f,f,NA,NA,NA,1,6,"1,7,12,15,2,3,8,13,5,11,9,10,6,4,14"
14398,commdev-image-keyboard-response,179,457865,learnblock1,406.39999997615814,img/planet12_left.png,12,Community 1,NA,FALSE,j,f,NA,NA,NA,1,6,"1,7,12,15,2,3,8,13,5,11,9,10,6,4,14"
14398,commdev-image-keyboard-response,180,459116,learnblock1,343.5,img/planet7_left.png,7,Community 1,NA,TRUE,f,f,NA,NA,NA,1,6,"1,7,12,15,2,3,8,13,5,11,9,10,6,4,14"
14398,commdev-image-keyboard-response,181,460368,learnblock1,308.2999999523163,img/planet2_left.png,2,Community 1,NA,FALSE,j,f,NA,NA,NA,1,6,"1,7,12,15,2,3,8,13,5,11,9,10,6,4,14"
14398,commdev-image-keyboard-response,182,461620,learnblock1,524.6999999880791,img/planet1_right.png,1,Community 1,NA,TRUE,j,j,NA,NA,NA,1,6,"1,7,12,15,2,3,8,13,5,11,9,10,6,4,14"
14398,commdev-image-keyboard-response,183,462871,learnblock1,502.2999999523163,img/planet15_left.png,15,Community 1,NA,TRUE,f,f,NA,NA,NA,1,6,"1,7,12,15,2,3,8,13,5,11,9,10,6,4,14"
14398,commdev-image-keyboard-response,184,464122,learnblock1,408.5999999642372,img/planet12_right.png,12,Community 1,NA,TRUE,j,j,NA,NA,NA,1,6,"1,7,12,15,2,3,8,13,5,11,9,10,6,4,14"
14398,commdev-image-keyboard-response,185,465374,learnblock1,292.0999999642372,img/planet2_left.png,2,Community 1,NA,TRUE,f,f,NA,NA,NA,1,6,"1,7,12,15,2,3,8,13,5,11,9,10,6,4,14"
14398,commdev-image-keyboard-response,186,466626,learnblock1,320.2000000476837,img/planet12_left.png,12,Community 1,NA,FALSE,j,f,NA,NA,NA,1,6,"1,7,12,15,2,3,8,13,5,11,9,10,6,4,14"
14398,commdev-image-keyboard-response,187,467878,learnblock1,365.0999999642372,img/planet15_left.png,15,Community 1,NA,TRUE,f,f,NA,NA,NA,1,6,"1,7,12,15,2,3,8,13,5,11,9,10,6,4,14"
14398,commdev-image-keyboard-response,188,469129,learnblock1,521.4000000357628,img/planet7_left.png,7,Community 1,NA,TRUE,f,f,NA,NA,NA,1,6,"1,7,12,15,2,3,8,13,5,11,9,10,6,4,14"
14398,commdev-image-keyboard-response,189,470381,learnblock1,384.19999998807907,img/planet1_right.png,1,Community 1,NA,TRUE,j,j,NA,NA,NA,1,6,"1,7,12,15,2,3,8,13,5,11,9,10,6,4,14"
14398,commdev-image-keyboard-response,190,471633,learnblock1,325,img/planet15_right.png,15,Community 1,NA,FALSE,f,j,NA,NA,NA,1,6,"1,7,12,15,2,3,8,13,5,11,9,10,6,4,14"
14398,commdev-image-keyboard-response,191,472885,learnblock1,396.80000001192093,img/planet1_left.png,1,Community 1,NA,TRUE,f,f,NA,NA,NA,1,6,"1,7,12,15,2,3,8,13,5,11,9,10,6,4,14"
14398,commdev-image-keyboard-response,192,474137,learnblock1,352.39999997615814,img/planet15_right.png,15,Community 1,NA,TRUE,j,j,NA,NA,NA,1,6,"1,7,12,15,2,3,8,13,5,11,9,10,6,4,14"
14398,commdev-image-keyboard-response,193,475392,learnblock1,307.10000002384186,img/planet3_right.png,3,Community 2,NA,FALSE,f,j,NA,NA,NA,1,6,"1,7,12,15,2,3,8,13,5,11,9,10,6,4,14"
14398,commdev-image-keyboard-response,194,476643,learnblock1,367.19999998807907,img/planet8_right.png,8,Community 2,NA,TRUE,j,j,NA,NA,NA,1,6,"1,7,12,15,2,3,8,13,5,11,9,10,6,4,14"
14398,commdev-image-keyboard-response,195,477895,learnblock1,266.69999998807907,img/planet5_left.png,5,Community 2,NA,TRUE,f,f,NA,NA,NA,1,6,"1,7,12,15,2,3,8,13,5,11,9,10,6,4,14"
14398,commdev-image-keyboard-response,196,479147,learnblock1,582.1999999880791,img/planet11_left.png,11,Community 2,NA,TRUE,f,f,NA,NA,NA,1,6,"1,7,12,15,2,3,8,13,5,11,9,10,6,4,14"
14398,commdev-image-keyboard-response,197,480398,learnblock1,361.0999999642372,img/planet3_right.png,3,Community 2,NA,TRUE,j,j,NA,NA,NA,1,6,"1,7,12,15,2,3,8,13,5,11,9,10,6,4,14"
14398,commdev-image-keyboard-response,198,481650,learnblock1,539.5,img/planet15_right.png,15,Community 1,NA,TRUE,j,j,NA,NA,NA,1,6,"1,7,12,15,2,3,8,13,5,11,9,10,6,4,14"
14398,commdev-image-keyboard-response,199,482902,learnblock1,215.80000001192093,img/planet12_left.png,12,Community 1,NA,TRUE,f,f,NA,NA,NA,1,6,"1,7,12,15,2,3,8,13,5,11,9,10,6,4,14"
14398,commdev-image-keyboard-response,200,484153,learnblock1,409,img/planet1_left.png,1,Community 1,NA,FALSE,j,f,NA,NA,NA,1,6,"1,7,12,15,2,3,8,13,5,11,9,10,6,4,14"
14398,commdev-image-keyboard-response,201,485405,learnblock1,null,img/planet15_right.png,15,Community 1,NA,FALSE,null,j,NA,NA,NA,1,6,"1,7,12,15,2,3,8,13,5,11,9,10,6,4,14"
14398,commdev-image-keyboard-response,202,486657,learnblock1,null,img/planet12_right.png,12,Community 1,NA,FALSE,null,j,NA,NA,NA,1,6,"1,7,12,15,2,3,8,13,5,11,9,10,6,4,14"
14398,commdev-image-keyboard-response,203,487908,learnblock1,null,img/planet2_left.png,2,Community 1,NA,FALSE,null,f,NA,NA,NA,1,6,"1,7,12,15,2,3,8,13,5,11,9,10,6,4,14"
14398,commdev-image-keyboard-response,204,489161,learnblock1,null,img/planet1_right.png,1,Community 1,NA,FALSE,null,j,NA,NA,NA,1,6,"1,7,12,15,2,3,8,13,5,11,9,10,6,4,14"
14398,commdev-image-keyboard-response,205,490413,learnblock1,null,img/planet2_right.png,2,Community 1,NA,FALSE,null,j,NA,NA,NA,1,6,"1,7,12,15,2,3,8,13,5,11,9,10,6,4,14"
14398,commdev-image-keyboard-response,206,491665,learnblock1,null,img/planet1_right.png,1,Community 1,NA,FALSE,null,j,NA,NA,NA,1,6,"1,7,12,15,2,3,8,13,5,11,9,10,6,4,14"
14398,commdev-image-keyboard-response,207,492917,learnblock1,344.5,img/planet12_left.png,12,Community 1,NA,TRUE,f,f,NA,NA,NA,1,6,"1,7,12,15,2,3,8,13,5,11,9,10,6,4,14"
14398,commdev-image-keyboard-response,208,494169,learnblock1,444.69999998807907,img/planet7_left.png,7,Community 1,NA,TRUE,f,f,NA,NA,NA,1,6,"1,7,12,15,2,3,8,13,5,11,9,10,6,4,14"
14398,commdev-image-keyboard-response,209,495420,learnblock1,null,img/planet12_left.png,12,Community 1,NA,FALSE,null,f,NA,NA,NA,1,6,"1,7,12,15,2,3,8,13,5,11,9,10,6,4,14"
14398,commdev-image-keyboard-response,210,496671,learnblock1,null,img/planet1_right.png,1,Community 1,NA,FALSE,null,j,NA,NA,NA,1,6,"1,7,12,15,2,3,8,13,5,11,9,10,6,4,14"
14398,commdev-image-keyboard-response,211,497924,learnblock1,null,img/planet7_right.png,7,Community 1,NA,FALSE,null,j,NA,NA,NA,1,6,"1,7,12,15,2,3,8,13,5,11,9,10,6,4,14"
14398,commdev-image-keyboard-response,212,499175,learnblock1,null,img/planet2_right.png,2,Community 1,NA,FALSE,null,j,NA,NA,NA,1,6,"1,7,12,15,2,3,8,13,5,11,9,10,6,4,14"
14398,commdev-image-keyboard-response,213,500427,learnblock1,479,img/planet12_left.png,12,Community 1,NA,TRUE,f,f,NA,NA,NA,1,6,"1,7,12,15,2,3,8,13,5,11,9,10,6,4,14"
14398,commdev-image-keyboard-response,214,501680,learnblock1,427.5,img/planet2_right.png,2,Community 1,NA,TRUE,j,j,NA,NA,NA,1,6,"1,7,12,15,2,3,8,13,5,11,9,10,6,4,14"
14398,commdev-image-keyboard-response,215,502932,learnblock1,392.5999999642372,img/planet9_right.png,9,Community 3,NA,FALSE,f,j,NA,NA,NA,1,6,"1,7,12,15,2,3,8,13,5,11,9,10,6,4,14"
14398,commdev-image-keyboard-response,216,504184,learnblock1,547.8000000119209,img/planet6_right.png,6,Community 3,NA,TRUE,j,j,NA,NA,NA,1,6,"1,7,12,15,2,3,8,13,5,11,9,10,6,4,14"
14398,commdev-image-keyboard-response,217,505435,learnblock1,423.7000000476837,img/planet4_left.png,4,Community 3,NA,TRUE,f,f,NA,NA,NA,1,6,"1,7,12,15,2,3,8,13,5,11,9,10,6,4,14"
14398,commdev-image-keyboard-response,218,506687,learnblock1,466,img/planet6_left.png,6,Community 3,NA,TRUE,f,f,NA,NA,NA,1,6,"1,7,12,15,2,3,8,13,5,11,9,10,6,4,14"
14398,commdev-image-keyboard-response,219,507940,learnblock1,505.5999999642372,img/planet14_left.png,14,Community 3,NA,TRUE,f,f,NA,NA,NA,1,6,"1,7,12,15,2,3,8,13,5,11,9,10,6,4,14"
14398,commdev-image-keyboard-response,220,509191,learnblock1,370.4000000357628,img/planet6_right.png,6,Community 3,NA,TRUE,j,j,NA,NA,NA,1,6,"1,7,12,15,2,3,8,13,5,11,9,10,6,4,14"
14398,commdev-image-keyboard-response,221,510442,learnblock1,493.5999999642372,img/planet10_left.png,10,Community 3,NA,TRUE,f,f,NA,NA,NA,1,6,"1,7,12,15,2,3,8,13,5,11,9,10,6,4,14"
14398,commdev-image-keyboard-response,222,511694,learnblock1,358.69999998807907,img/planet14_right.png,14,Community 3,NA,TRUE,j,j,NA,NA,NA,1,6,"1,7,12,15,2,3,8,13,5,11,9,10,6,4,14"
14398,commdev-image-keyboard-response,223,512945,learnblock1,340.7999999523163,img/planet4_right.png,4,Community 3,NA,TRUE,j,j,NA,NA,NA,1,6,"1,7,12,15,2,3,8,13,5,11,9,10,6,4,14"
14398,commdev-image-keyboard-response,224,514197,learnblock1,414.80000001192093,img/planet6_left.png,6,Community 3,NA,TRUE,f,f,NA,NA,NA,1,6,"1,7,12,15,2,3,8,13,5,11,9,10,6,4,14"
14398,commdev-image-keyboard-response,225,515448,learnblock1,529.3999999761581,img/planet14_left.png,14,Community 3,NA,TRUE,f,f,NA,NA,NA,1,6,"1,7,12,15,2,3,8,13,5,11,9,10,6,4,14"
14398,commdev-image-keyboard-response,226,516700,learnblock1,481.5,img/planet9_right.png,9,Community 3,NA,TRUE,j,j,NA,NA,NA,1,6,"1,7,12,15,2,3,8,13,5,11,9,10,6,4,14"
14398,commdev-image-keyboard-response,227,517952,learnblock1,403.39999997615814,img/planet4_right.png,4,Community 3,NA,TRUE,j,j,NA,NA,NA,1,6,"1,7,12,15,2,3,8,13,5,11,9,10,6,4,14"
14398,commdev-image-keyboard-response,228,519205,learnblock1,404.19999998807907,img/planet14_left.png,14,Community 3,NA,FALSE,j,f,NA,NA,NA,1,6,"1,7,12,15,2,3,8,13,5,11,9,10,6,4,14"
14398,commdev-image-keyboard-response,229,520457,learnblock1,510.5,img/planet6_left.png,6,Community 3,NA,TRUE,f,f,NA,NA,NA,1,6,"1,7,12,15,2,3,8,13,5,11,9,10,6,4,14"
14398,commdev-image-keyboard-response,230,521708,learnblock1,422.19999998807907,img/planet14_right.png,14,Community 3,NA,TRUE,j,j,NA,NA,NA,1,6,"1,7,12,15,2,3,8,13,5,11,9,10,6,4,14"
14398,commdev-image-keyboard-response,231,522959,learnblock1,402.0999999642372,img/planet6_left.png,6,Community 3,NA,TRUE,f,f,NA,NA,NA,1,6,"1,7,12,15,2,3,8,13,5,11,9,10,6,4,14"
14398,commdev-image-keyboard-response,232,524211,learnblock1,424.60000002384186,img/planet9_right.png,9,Community 3,NA,TRUE,j,j,NA,NA,NA,1,6,"1,7,12,15,2,3,8,13,5,11,9,10,6,4,14"
14398,commdev-image-keyboard-response,233,525462,learnblock1,440.2000000476837,img/planet6_left.png,6,Community 3,NA,FALSE,j,f,NA,NA,NA,1,6,"1,7,12,15,2,3,8,13,5,11,9,10,6,4,14"
14398,commdev-image-keyboard-response,234,526714,learnblock1,391,img/planet14_right.png,14,Community 3,NA,TRUE,j,j,NA,NA,NA,1,6,"1,7,12,15,2,3,8,13,5,11,9,10,6,4,14"
14398,commdev-image-keyboard-response,235,527965,learnblock1,425.69999998807907,img/planet4_right.png,4,Community 3,NA,TRUE,j,j,NA,NA,NA,1,6,"1,7,12,15,2,3,8,13,5,11,9,10,6,4,14"
14398,commdev-image-keyboard-response,236,529217,learnblock1,372.0999999642372,img/planet6_left.png,6,Community 3,NA,TRUE,f,f,NA,NA,NA,1,6,"1,7,12,15,2,3,8,13,5,11,9,10,6,4,14"
14398,commdev-image-keyboard-response,237,530469,learnblock1,420.30000001192093,img/planet4_left.png,4,Community 3,NA,TRUE,f,f,NA,NA,NA,1,6,"1,7,12,15,2,3,8,13,5,11,9,10,6,4,14"
14398,commdev-image-keyboard-response,238,531720,learnblock1,436.30000001192093,img/planet10_left.png,10,Community 3,NA,TRUE,f,f,NA,NA,NA,1,6,"1,7,12,15,2,3,8,13,5,11,9,10,6,4,14"
14398,commdev-image-keyboard-response,239,532971,learnblock1,324.30000001192093,img/planet6_right.png,6,Community 3,NA,FALSE,f,j,NA,NA,NA,1,6,"1,7,12,15,2,3,8,13,5,11,9,10,6,4,14"
14398,commdev-image-keyboard-response,240,534223,learnblock1,431.7999999523163,img/planet14_left.png,14,Community 3,NA,TRUE,f,f,NA,NA,NA,1,6,"1,7,12,15,2,3,8,13,5,11,9,10,6,4,14"
14398,commdev-image-keyboard-response,241,535474,learnblock1,395.7999999523163,img/planet9_right.png,9,Community 3,NA,TRUE,j,j,NA,NA,NA,1,6,"1,7,12,15,2,3,8,13,5,11,9,10,6,4,14"
14398,commdev-image-keyboard-response,242,536725,learnblock1,420.2999999523163,img/planet14_right.png,14,Community 3,NA,FALSE,f,j,NA,NA,NA,1,6,"1,7,12,15,2,3,8,13,5,11,9,10,6,4,14"
14398,commdev-image-keyboard-response,243,537977,learnblock1,424.4000000357628,img/planet4_right.png,4,Community 3,NA,FALSE,f,j,NA,NA,NA,1,6,"1,7,12,15,2,3,8,13,5,11,9,10,6,4,14"
14398,commdev-image-keyboard-response,244,539228,learnblock1,425.39999997615814,img/planet14_left.png,14,Community 3,NA,TRUE,f,f,NA,NA,NA,1,6,"1,7,12,15,2,3,8,13,5,11,9,10,6,4,14"
14398,commdev-image-keyboard-response,245,540480,learnblock1,356.60000002384186,img/planet10_right.png,10,Community 3,NA,TRUE,j,j,NA,NA,NA,1,6,"1,7,12,15,2,3,8,13,5,11,9,10,6,4,14"
14398,commdev-image-keyboard-response,246,541731,learnblock1,430.80000001192093,img/planet13_right.png,13,Community 2,NA,TRUE,j,j,NA,NA,NA,1,6,"1,7,12,15,2,3,8,13,5,11,9,10,6,4,14"
14398,commdev-image-keyboard-response,247,542983,learnblock1,356.39999997615814,img/planet11_left.png,11,Community 2,NA,TRUE,f,f,NA,NA,NA,1,6,"1,7,12,15,2,3,8,13,5,11,9,10,6,4,14"
14398,commdev-image-keyboard-response,248,544235,learnblock1,376.4000000357628,img/planet5_right.png,5,Community 2,NA,TRUE,j,j,NA,NA,NA,1,6,"1,7,12,15,2,3,8,13,5,11,9,10,6,4,14"
14398,commdev-image-keyboard-response,249,545487,learnblock1,374.0999999642372,img/planet3_left.png,3,Community 2,NA,TRUE,f,f,NA,NA,NA,1,6,"1,7,12,15,2,3,8,13,5,11,9,10,6,4,14"
14398,commdev-image-keyboard-response,250,546738,learnblock1,331.5999999642372,img/planet5_right.png,5,Community 2,NA,TRUE,j,j,NA,NA,NA,1,6,"1,7,12,15,2,3,8,13,5,11,9,10,6,4,14"
14398,commdev-image-keyboard-response,251,547989,learnblock1,312.2000000476837,img/planet13_left.png,13,Community 2,NA,TRUE,f,f,NA,NA,NA,1,6,"1,7,12,15,2,3,8,13,5,11,9,10,6,4,14"
14398,commdev-image-keyboard-response,252,549241,learnblock1,398.89999997615814,img/planet10_left.png,10,Community 3,NA,TRUE,f,f,NA,NA,NA,1,6,"1,7,12,15,2,3,8,13,5,11,9,10,6,4,14"
14398,commdev-image-keyboard-response,253,550492,learnblock1,309.69999998807907,img/planet6_left.png,6,Community 3,NA,FALSE,j,f,NA,NA,NA,1,6,"1,7,12,15,2,3,8,13,5,11,9,10,6,4,14"
14398,commdev-image-keyboard-response,254,551745,learnblock1,505.5999999642372,img/planet4_left.png,4,Community 3,NA,FALSE,j,f,NA,NA,NA,1,6,"1,7,12,15,2,3,8,13,5,11,9,10,6,4,14"
14398,commdev-image-keyboard-response,255,552998,learnblock1,389.19999998807907,img/planet10_right.png,10,Community 3,NA,TRUE,j,j,NA,NA,NA,1,6,"1,7,12,15,2,3,8,13,5,11,9,10,6,4,14"
14398,commdev-image-keyboard-response,256,554248,learnblock1,402.7999999523163,img/planet14_right.png,14,Community 3,NA,FALSE,f,j,NA,NA,NA,1,6,"1,7,12,15,2,3,8,13,5,11,9,10,6,4,14"
14398,commdev-image-keyboard-response,257,555500,learnblock1,456.19999998807907,img/planet4_right.png,4,Community 3,NA,TRUE,j,j,NA,NA,NA,1,6,"1,7,12,15,2,3,8,13,5,11,9,10,6,4,14"
14398,commdev-image-keyboard-response,258,556751,learnblock1,621.1000000238419,img/planet14_right.png,14,Community 3,NA,TRUE,j,j,NA,NA,NA,1,6,"1,7,12,15,2,3,8,13,5,11,9,10,6,4,14"
14398,commdev-image-keyboard-response,259,558002,learnblock1,515.2000000476837,img/planet6_right.png,6,Community 3,NA,TRUE,j,j,NA,NA,NA,1,6,"1,7,12,15,2,3,8,13,5,11,9,10,6,4,14"
14398,commdev-image-keyboard-response,260,559255,learnblock1,390.10000002384186,img/planet4_left.png,4,Community 3,NA,TRUE,f,f,NA,NA,NA,1,6,"1,7,12,15,2,3,8,13,5,11,9,10,6,4,14"
14398,commdev-image-keyboard-response,261,560507,learnblock1,459,img/planet10_left.png,10,Community 3,NA,TRUE,f,f,NA,NA,NA,1,6,"1,7,12,15,2,3,8,13,5,11,9,10,6,4,14"
14398,commdev-image-keyboard-response,262,561759,learnblock1,467.19999998807907,img/planet6_right.png,6,Community 3,NA,TRUE,j,j,NA,NA,NA,1,6,"1,7,12,15,2,3,8,13,5,11,9,10,6,4,14"
14398,commdev-image-keyboard-response,263,563012,learnblock1,338.89999997615814,img/planet10_left.png,10,Community 3,NA,TRUE,f,f,NA,NA,NA,1,6,"1,7,12,15,2,3,8,13,5,11,9,10,6,4,14"
14398,commdev-image-keyboard-response,264,564264,learnblock1,335.5,img/planet13_left.png,13,Community 2,NA,FALSE,j,f,NA,NA,NA,1,6,"1,7,12,15,2,3,8,13,5,11,9,10,6,4,14"
14398,commdev-image-keyboard-response,265,565517,learnblock1,690,img/planet8_left.png,8,Community 2,NA,TRUE,f,f,NA,NA,NA,1,6,"1,7,12,15,2,3,8,13,5,11,9,10,6,4,14"
14398,commdev-image-keyboard-response,266,566769,learnblock1,486.60000002384186,img/planet5_left.png,5,Community 2,NA,TRUE,f,f,NA,NA,NA,1,6,"1,7,12,15,2,3,8,13,5,11,9,10,6,4,14"
14398,commdev-image-keyboard-response,267,568020,learnblock1,508.7999999523163,img/planet13_left.png,13,Community 2,NA,TRUE,f,f,NA,NA,NA,1,6,"1,7,12,15,2,3,8,13,5,11,9,10,6,4,14"
14398,commdev-image-keyboard-response,268,569271,learnblock1,466,img/planet11_left.png,11,Community 2,NA,TRUE,f,f,NA,NA,NA,1,6,"1,7,12,15,2,3,8,13,5,11,9,10,6,4,14"
14398,commdev-image-keyboard-response,269,570522,learnblock1,391.60000002384186,img/planet8_left.png,8,Community 2,NA,FALSE,j,f,NA,NA,NA,1,6,"1,7,12,15,2,3,8,13,5,11,9,10,6,4,14"
14398,commdev-image-keyboard-response,270,571773,learnblock1,521.2000000476837,img/planet3_left.png,3,Community 2,NA,TRUE,f,f,NA,NA,NA,1,6,"1,7,12,15,2,3,8,13,5,11,9,10,6,4,14"
14398,commdev-image-keyboard-response,271,573026,learnblock1,503.89999997615814,img/planet8_right.png,8,Community 2,NA,TRUE,j,j,NA,NA,NA,1,6,"1,7,12,15,2,3,8,13,5,11,9,10,6,4,14"
14398,commdev-image-keyboard-response,272,574280,learnblock1,516.3000000119209,img/planet11_right.png,11,Community 2,NA,TRUE,j,j,NA,NA,NA,1,6,"1,7,12,15,2,3,8,13,5,11,9,10,6,4,14"
14398,commdev-image-keyboard-response,273,575532,learnblock1,401.39999997615814,img/planet5_right.png,5,Community 2,NA,FALSE,f,j,NA,NA,NA,1,6,"1,7,12,15,2,3,8,13,5,11,9,10,6,4,14"
14398,commdev-image-keyboard-response,274,576785,learnblock1,456.10000002384186,img/planet13_left.png,13,Community 2,NA,TRUE,f,f,NA,NA,NA,1,6,"1,7,12,15,2,3,8,13,5,11,9,10,6,4,14"
14398,commdev-image-keyboard-response,275,578037,learnblock1,412.0999999642372,img/planet5_left.png,5,Community 2,NA,TRUE,f,f,NA,NA,NA,1,6,"1,7,12,15,2,3,8,13,5,11,9,10,6,4,14"
14398,commdev-image-keyboard-response,276,579289,learnblock1,372.69999998807907,img/planet13_left.png,13,Community 2,NA,TRUE,f,f,NA,NA,NA,1,6,"1,7,12,15,2,3,8,13,5,11,9,10,6,4,14"
14398,commdev-image-keyboard-response,277,580540,learnblock1,342.10000002384186,img/planet10_right.png,10,Community 3,NA,TRUE,j,j,NA,NA,NA,1,6,"1,7,12,15,2,3,8,13,5,11,9,10,6,4,14"
14398,commdev-image-keyboard-response,278,581793,learnblock1,420.80000001192093,img/planet6_right.png,6,Community 3,NA,FALSE,f,j,NA,NA,NA,1,6,"1,7,12,15,2,3,8,13,5,11,9,10,6,4,14"
14398,commdev-image-keyboard-response,279,583044,learnblock1,623.5,img/planet10_right.png,10,Community 3,NA,TRUE,j,j,NA,NA,NA,1,6,"1,7,12,15,2,3,8,13,5,11,9,10,6,4,14"
14398,commdev-image-keyboard-response,280,584296,learnblock1,398.69999998807907,img/planet6_right.png,6,Community 3,NA,TRUE,j,j,NA,NA,NA,1,6,"1,7,12,15,2,3,8,13,5,11,9,10,6,4,14"
14398,commdev-image-keyboard-response,281,585548,learnblock1,377.2999999523163,img/planet14_left.png,14,Community 3,NA,TRUE,f,f,NA,NA,NA,1,6,"1,7,12,15,2,3,8,13,5,11,9,10,6,4,14"
14398,commdev-image-keyboard-response,282,586799,learnblock1,343.4000000357628,img/planet6_left.png,6,Community 3,NA,TRUE,f,f,NA,NA,NA,1,6,"1,7,12,15,2,3,8,13,5,11,9,10,6,4,14"
14398,commdev-image-keyboard-response,283,588050,learnblock1,513.1000000238419,img/planet14_left.png,14,Community 3,NA,TRUE,f,f,NA,NA,NA,1,6,"1,7,12,15,2,3,8,13,5,11,9,10,6,4,14"
14398,commdev-image-keyboard-response,284,589316,learnblock1,443.30000001192093,img/planet6_right.png,6,Community 3,NA,TRUE,j,j,NA,NA,NA,1,6,"1,7,12,15,2,3,8,13,5,11,9,10,6,4,14"
14398,commdev-image-keyboard-response,285,590568,learnblock1,512.3999999761581,img/planet9_right.png,9,Community 3,NA,TRUE,j,j,NA,NA,NA,1,6,"1,7,12,15,2,3,8,13,5,11,9,10,6,4,14"
14398,commdev-image-keyboard-response,286,591819,learnblock1,439.9000000357628,img/planet6_left.png,6,Community 3,NA,TRUE,f,f,NA,NA,NA,1,6,"1,7,12,15,2,3,8,13,5,11,9,10,6,4,14"
14398,commdev-image-keyboard-response,287,593072,learnblock1,403.89999997615814,img/planet9_left.png,9,Community 3,NA,TRUE,f,f,NA,NA,NA,1,6,"1,7,12,15,2,3,8,13,5,11,9,10,6,4,14"
14398,commdev-image-keyboard-response,288,594324,learnblock1,461.9000000357628,img/planet4_left.png,4,Community 3,NA,TRUE,f,f,NA,NA,NA,1,6,"1,7,12,15,2,3,8,13,5,11,9,10,6,4,14"
14398,commdev-image-keyboard-response,289,595575,learnblock1,395.2999999523163,img/planet6_left.png,6,Community 3,NA,FALSE,j,f,NA,NA,NA,1,6,"1,7,12,15,2,3,8,13,5,11,9,10,6,4,14"
14398,commdev-image-keyboard-response,290,596826,learnblock1,457.60000002384186,img/planet4_right.png,4,Community 3,NA,TRUE,j,j,NA,NA,NA,1,6,"1,7,12,15,2,3,8,13,5,11,9,10,6,4,14"
14398,commdev-image-keyboard-response,291,598077,learnblock1,455.39999997615814,img/planet14_left.png,14,Community 3,NA,TRUE,f,f,NA,NA,NA,1,6,"1,7,12,15,2,3,8,13,5,11,9,10,6,4,14"
14398,commdev-image-keyboard-response,292,599328,learnblock1,500,img/planet6_left.png,6,Community 3,NA,TRUE,f,f,NA,NA,NA,1,6,"1,7,12,15,2,3,8,13,5,11,9,10,6,4,14"
14398,commdev-image-keyboard-response,293,600580,learnblock1,496,img/planet14_left.png,14,Community 3,NA,FALSE,j,f,NA,NA,NA,1,6,"1,7,12,15,2,3,8,13,5,11,9,10,6,4,14"
14398,commdev-image-keyboard-response,294,601836,learnblock1,611.5,img/planet6_right.png,6,Community 3,NA,TRUE,j,j,NA,NA,NA,1,6,"1,7,12,15,2,3,8,13,5,11,9,10,6,4,14"
14398,commdev-image-keyboard-response,295,603087,learnblock1,682.3999999761581,img/planet14_left.png,14,Community 3,NA,TRUE,f,f,NA,NA,NA,1,6,"1,7,12,15,2,3,8,13,5,11,9,10,6,4,14"
14398,commdev-image-keyboard-response,296,604338,learnblock1,574.9000000357628,img/planet10_left.png,10,Community 3,NA,TRUE,f,f,NA,NA,NA,1,6,"1,7,12,15,2,3,8,13,5,11,9,10,6,4,14"
14398,commdev-image-keyboard-response,297,605589,learnblock1,483.80000001192093,img/planet4_left.png,4,Community 3,NA,TRUE,f,f,NA,NA,NA,1,6,"1,7,12,15,2,3,8,13,5,11,9,10,6,4,14"
14398,commdev-image-keyboard-response,298,606841,learnblock1,476.4000000357628,img/planet14_left.png,14,Community 3,NA,TRUE,f,f,NA,NA,NA,1,6,"1,7,12,15,2,3,8,13,5,11,9,10,6,4,14"
14398,commdev-image-keyboard-response,299,608092,learnblock1,576.6000000238419,img/planet6_right.png,6,Community 3,NA,TRUE,j,j,NA,NA,NA,1,6,"1,7,12,15,2,3,8,13,5,11,9,10,6,4,14"
14398,commdev-image-keyboard-response,300,609343,learnblock1,607.8999999761581,img/planet4_left.png,4,Community 3,NA,TRUE,f,f,NA,NA,NA,1,6,"1,7,12,15,2,3,8,13,5,11,9,10,6,4,14"
14398,commdev-image-keyboard-response,301,610595,learnblock1,482.80000001192093,img/planet6_left.png,6,Community 3,NA,TRUE,f,f,NA,NA,NA,1,6,"1,7,12,15,2,3,8,13,5,11,9,10,6,4,14"
14398,commdev-image-keyboard-response,302,611846,learnblock1,409.5,img/planet9_right.png,9,Community 3,NA,TRUE,j,j,NA,NA,NA,1,6,"1,7,12,15,2,3,8,13,5,11,9,10,6,4,14"
14398,commdev-image-keyboard-response,303,613097,learnblock1,344.5,img/planet6_left.png,6,Community 3,NA,TRUE,f,f,NA,NA,NA,1,6,"1,7,12,15,2,3,8,13,5,11,9,10,6,4,14"
14398,commdev-image-keyboard-response,304,614349,learnblock1,335.5,img/planet9_left.png,9,Community 3,NA,TRUE,f,f,NA,NA,NA,1,6,"1,7,12,15,2,3,8,13,5,11,9,10,6,4,14"
14398,commdev-image-keyboard-response,305,615601,learnblock1,369.5,img/planet6_left.png,6,Community 3,NA,FALSE,j,f,NA,NA,NA,1,6,"1,7,12,15,2,3,8,13,5,11,9,10,6,4,14"
14398,commdev-image-keyboard-response,306,616863,learnblock1,454.5,img/planet9_left.png,9,Community 3,NA,TRUE,f,f,NA,NA,NA,1,6,"1,7,12,15,2,3,8,13,5,11,9,10,6,4,14"
14398,commdev-image-keyboard-response,307,618115,learnblock1,443.30000001192093,img/planet4_right.png,4,Community 3,NA,FALSE,f,j,NA,NA,NA,1,6,"1,7,12,15,2,3,8,13,5,11,9,10,6,4,14"
14398,commdev-image-keyboard-response,308,619367,learnblock1,521.7000000476837,img/planet10_left.png,10,Community 3,NA,TRUE,f,f,NA,NA,NA,1,6,"1,7,12,15,2,3,8,13,5,11,9,10,6,4,14"
14398,commdev-image-keyboard-response,309,620619,learnblock1,526,img/planet14_left.png,14,Community 3,NA,TRUE,f,f,NA,NA,NA,1,6,"1,7,12,15,2,3,8,13,5,11,9,10,6,4,14"
14398,commdev-image-keyboard-response,310,621876,learnblock1,374.5,img/planet9_right.png,9,Community 3,NA,TRUE,j,j,NA,NA,NA,1,6,"1,7,12,15,2,3,8,13,5,11,9,10,6,4,14"
14398,commdev-image-keyboard-response,311,623128,learnblock1,438.10000002384186,img/planet4_right.png,4,Community 3,NA,TRUE,j,j,NA,NA,NA,1,6,"1,7,12,15,2,3,8,13,5,11,9,10,6,4,14"
14398,commdev-image-keyboard-response,312,624380,learnblock1,492.7000000476837,img/planet14_left.png,14,Community 3,NA,FALSE,j,f,NA,NA,NA,1,6,"1,7,12,15,2,3,8,13,5,11,9,10,6,4,14"
14398,commdev-image-keyboard-response,313,625633,learnblock1,497.7000000476837,img/planet9_right.png,9,Community 3,NA,TRUE,j,j,NA,NA,NA,1,6,"1,7,12,15,2,3,8,13,5,11,9,10,6,4,14"
14398,commdev-image-keyboard-response,314,626886,learnblock1,526.3000000119209,img/planet4_right.png,4,Community 3,NA,TRUE,j,j,NA,NA,NA,1,6,"1,7,12,15,2,3,8,13,5,11,9,10,6,4,14"
14398,commdev-image-keyboard-response,315,628137,learnblock1,593.3000000119209,img/planet10_right.png,10,Community 3,NA,TRUE,j,j,NA,NA,NA,1,6,"1,7,12,15,2,3,8,13,5,11,9,10,6,4,14"
14398,commdev-image-keyboard-response,316,629389,learnblock1,372.39999997615814,img/planet14_left.png,14,Community 3,NA,TRUE,f,f,NA,NA,NA,1,6,"1,7,12,15,2,3,8,13,5,11,9,10,6,4,14"
14398,commdev-image-keyboard-response,317,630641,learnblock1,460.19999998807907,img/planet4_left.png,4,Community 3,NA,TRUE,f,f,NA,NA,NA,1,6,"1,7,12,15,2,3,8,13,5,11,9,10,6,4,14"
14398,commdev-image-keyboard-response,318,631893,learnblock1,385.89999997615814,img/planet6_right.png,6,Community 3,NA,TRUE,j,j,NA,NA,NA,1,6,"1,7,12,15,2,3,8,13,5,11,9,10,6,4,14"
14398,commdev-image-keyboard-response,319,633146,learnblock1,308.7999999523163,img/planet14_left.png,14,Community 3,NA,TRUE,f,f,NA,NA,NA,1,6,"1,7,12,15,2,3,8,13,5,11,9,10,6,4,14"
14398,commdev-image-keyboard-response,320,634397,learnblock1,426.19999998807907,img/planet10_left.png,10,Community 3,NA,TRUE,f,f,NA,NA,NA,1,6,"1,7,12,15,2,3,8,13,5,11,9,10,6,4,14"
14398,commdev-image-keyboard-response,321,635648,learnblock1,389.89999997615814,img/planet4_right.png,4,Community 3,NA,TRUE,j,j,NA,NA,NA,1,6,"1,7,12,15,2,3,8,13,5,11,9,10,6,4,14"
14398,commdev-image-keyboard-response,322,636899,learnblock1,345.60000002384186,img/planet9_left.png,9,Community 3,NA,TRUE,f,f,NA,NA,NA,1,6,"1,7,12,15,2,3,8,13,5,11,9,10,6,4,14"
14398,commdev-image-keyboard-response,323,638151,learnblock1,553.5,img/planet2_left.png,2,Community 1,NA,TRUE,f,f,NA,NA,NA,1,6,"1,7,12,15,2,3,8,13,5,11,9,10,6,4,14"
14398,commdev-image-keyboard-response,324,639403,learnblock1,356.10000002384186,img/planet12_right.png,12,Community 1,NA,TRUE,j,j,NA,NA,NA,1,6,"1,7,12,15,2,3,8,13,5,11,9,10,6,4,14"
14398,commdev-image-keyboard-response,325,640655,learnblock1,451.0999999642372,img/planet15_left.png,15,Community 1,NA,TRUE,f,f,NA,NA,NA,1,6,"1,7,12,15,2,3,8,13,5,11,9,10,6,4,14"
14398,commdev-image-keyboard-response,326,641907,learnblock1,387.9000000357628,img/planet7_left.png,7,Community 1,NA,FALSE,j,f,NA,NA,NA,1,6,"1,7,12,15,2,3,8,13,5,11,9,10,6,4,14"
14398,commdev-image-keyboard-response,327,643158,learnblock1,509.80000001192093,img/planet2_right.png,2,Community 1,NA,TRUE,j,j,NA,NA,NA,1,6,"1,7,12,15,2,3,8,13,5,11,9,10,6,4,14"
14398,commdev-image-keyboard-response,328,644409,learnblock1,422.0999999642372,img/planet7_right.png,7,Community 1,NA,FALSE,f,j,NA,NA,NA,1,6,"1,7,12,15,2,3,8,13,5,11,9,10,6,4,14"
14398,commdev-image-keyboard-response,329,645661,learnblock1,660.6999999880791,img/planet12_right.png,12,Community 1,NA,TRUE,j,j,NA,NA,NA,1,6,"1,7,12,15,2,3,8,13,5,11,9,10,6,4,14"
14398,commdev-image-keyboard-response,330,646912,learnblock1,587.5,img/planet7_right.png,7,Community 1,NA,TRUE,j,j,NA,NA,NA,1,6,"1,7,12,15,2,3,8,13,5,11,9,10,6,4,14"
14398,commdev-image-keyboard-response,331,648165,learnblock1,557.6999999880791,img/planet12_right.png,12,Community 1,NA,TRUE,j,j,NA,NA,NA,1,6,"1,7,12,15,2,3,8,13,5,11,9,10,6,4,14"
14398,commdev-image-keyboard-response,332,649416,learnblock1,384.19999998807907,img/planet2_left.png,2,Community 1,NA,TRUE,f,f,NA,NA,NA,1,6,"1,7,12,15,2,3,8,13,5,11,9,10,6,4,14"
14398,commdev-image-keyboard-response,333,650668,learnblock1,394.39999997615814,img/planet12_right.png,12,Community 1,NA,TRUE,j,j,NA,NA,NA,1,6,"1,7,12,15,2,3,8,13,5,11,9,10,6,4,14"
14398,commdev-image-keyboard-response,334,651920,learnblock1,417,img/planet2_left.png,2,Community 1,NA,TRUE,f,f,NA,NA,NA,1,6,"1,7,12,15,2,3,8,13,5,11,9,10,6,4,14"
14398,commdev-image-keyboard-response,335,653171,learnblock1,448,img/planet9_right.png,9,Community 3,NA,TRUE,j,j,NA,NA,NA,1,6,"1,7,12,15,2,3,8,13,5,11,9,10,6,4,14"
14398,commdev-image-keyboard-response,336,654422,learnblock1,515.5,img/planet14_left.png,14,Community 3,NA,TRUE,f,f,NA,NA,NA,1,6,"1,7,12,15,2,3,8,13,5,11,9,10,6,4,14"
14398,commdev-image-keyboard-response,337,655673,learnblock1,462.19999998807907,img/planet4_right.png,4,Community 3,NA,TRUE,j,j,NA,NA,NA,1,6,"1,7,12,15,2,3,8,13,5,11,9,10,6,4,14"
14398,commdev-image-keyboard-response,338,656925,learnblock1,500.80000001192093,img/planet6_right.png,6,Community 3,NA,FALSE,f,j,NA,NA,NA,1,6,"1,7,12,15,2,3,8,13,5,11,9,10,6,4,14"
14398,commdev-image-keyboard-response,339,658177,learnblock1,569.3000000119209,img/planet4_left.png,4,Community 3,NA,TRUE,f,f,NA,NA,NA,1,6,"1,7,12,15,2,3,8,13,5,11,9,10,6,4,14"
14398,commdev-image-keyboard-response,340,659429,learnblock1,471.5,img/planet10_left.png,10,Community 3,NA,FALSE,j,f,NA,NA,NA,1,6,"1,7,12,15,2,3,8,13,5,11,9,10,6,4,14"
14398,commdev-image-keyboard-response,341,660682,learnblock1,558.4000000357628,img/planet6_left.png,6,Community 3,NA,TRUE,f,f,NA,NA,NA,1,6,"1,7,12,15,2,3,8,13,5,11,9,10,6,4,14"
14398,commdev-image-keyboard-response,342,661934,learnblock1,493.5999999642372,img/planet14_right.png,14,Community 3,NA,TRUE,j,j,NA,NA,NA,1,6,"1,7,12,15,2,3,8,13,5,11,9,10,6,4,14"
14398,commdev-image-keyboard-response,343,663186,learnblock1,454.69999998807907,img/planet9_right.png,9,Community 3,NA,TRUE,j,j,NA,NA,NA,1,6,"1,7,12,15,2,3,8,13,5,11,9,10,6,4,14"
14398,commdev-image-keyboard-response,344,664438,learnblock1,437.30000001192093,img/planet6_right.png,6,Community 3,NA,TRUE,j,j,NA,NA,NA,1,6,"1,7,12,15,2,3,8,13,5,11,9,10,6,4,14"
14398,commdev-image-keyboard-response,345,665690,learnblock1,630.8000000119209,img/planet14_right.png,14,Community 3,NA,TRUE,j,j,NA,NA,NA,1,6,"1,7,12,15,2,3,8,13,5,11,9,10,6,4,14"
14398,commdev-image-keyboard-response,346,666952,learnblock1,413.39999997615814,img/planet10_right.png,10,Community 3,NA,TRUE,j,j,NA,NA,NA,1,6,"1,7,12,15,2,3,8,13,5,11,9,10,6,4,14"
14398,commdev-image-keyboard-response,347,668204,learnblock1,571,img/planet13_left.png,13,Community 2,NA,TRUE,f,f,NA,NA,NA,1,6,"1,7,12,15,2,3,8,13,5,11,9,10,6,4,14"
14398,commdev-image-keyboard-response,351,704894,learnblock2,511.4000000357628,img/planet9_left.png,9,Community 3,NA,TRUE,f,f,NA,NA,NA,1,6,"1,7,12,15,2,3,8,13,5,11,9,10,6,4,14"
14398,commdev-image-keyboard-response,352,706146,learnblock2,438.69999998807907,img/planet6_left.png,6,Community 3,NA,TRUE,f,f,NA,NA,NA,1,6,"1,7,12,15,2,3,8,13,5,11,9,10,6,4,14"
14398,commdev-image-keyboard-response,353,707398,learnblock2,364.80000001192093,img/planet4_left.png,4,Community 3,NA,FALSE,j,f,NA,NA,NA,1,6,"1,7,12,15,2,3,8,13,5,11,9,10,6,4,14"
14398,commdev-image-keyboard-response,354,708650,learnblock2,474.80000001192093,img/planet14_right.png,14,Community 3,NA,TRUE,j,j,NA,NA,NA,1,6,"1,7,12,15,2,3,8,13,5,11,9,10,6,4,14"
14398,commdev-image-keyboard-response,355,709903,learnblock2,382.5,img/planet4_right.png,4,Community 3,NA,TRUE,j,j,NA,NA,NA,1,6,"1,7,12,15,2,3,8,13,5,11,9,10,6,4,14"
14398,commdev-image-keyboard-response,356,711155,learnblock2,381.89999997615814,img/planet10_left.png,10,Community 3,NA,TRUE,f,f,NA,NA,NA,1,6,"1,7,12,15,2,3,8,13,5,11,9,10,6,4,14"
14398,commdev-image-keyboard-response,357,712406,learnblock2,403,img/planet13_left.png,13,Community 2,NA,FALSE,j,f,NA,NA,NA,1,6,"1,7,12,15,2,3,8,13,5,11,9,10,6,4,14"
14398,commdev-image-keyboard-response,358,713658,learnblock2,317.19999998807907,img/planet11_right.png,11,Community 2,NA,FALSE,f,j,NA,NA,NA,1,6,"1,7,12,15,2,3,8,13,5,11,9,10,6,4,14"
14398,commdev-image-keyboard-response,359,714911,learnblock2,436.7000000476837,img/planet5_right.png,5,Community 2,NA,TRUE,j,j,NA,NA,NA,1,6,"1,7,12,15,2,3,8,13,5,11,9,10,6,4,14"
14398,commdev-image-keyboard-response,360,716163,learnblock2,393.89999997615814,img/planet3_right.png,3,Community 2,NA,TRUE,j,j,NA,NA,NA,1,6,"1,7,12,15,2,3,8,13,5,11,9,10,6,4,14"
14398,commdev-image-keyboard-response,361,717415,learnblock2,399.19999998807907,img/planet5_right.png,5,Community 2,NA,TRUE,j,j,NA,NA,NA,1,6,"1,7,12,15,2,3,8,13,5,11,9,10,6,4,14"
14398,commdev-image-keyboard-response,362,718666,learnblock2,373.5999999642372,img/planet11_right.png,11,Community 2,NA,FALSE,f,j,NA,NA,NA,1,6,"1,7,12,15,2,3,8,13,5,11,9,10,6,4,14"
14398,commdev-image-keyboard-response,363,719918,learnblock2,510,img/planet3_right.png,3,Community 2,NA,TRUE,j,j,NA,NA,NA,1,6,"1,7,12,15,2,3,8,13,5,11,9,10,6,4,14"
14398,commdev-image-keyboard-response,364,721170,learnblock2,558.8999999761581,img/planet11_right.png,11,Community 2,NA,TRUE,j,j,NA,NA,NA,1,6,"1,7,12,15,2,3,8,13,5,11,9,10,6,4,14"
14398,commdev-image-keyboard-response,365,722435,learnblock2,478.10000002384186,img/planet13_left.png,13,Community 2,NA,TRUE,f,f,NA,NA,NA,1,6,"1,7,12,15,2,3,8,13,5,11,9,10,6,4,14"
14398,commdev-image-keyboard-response,366,723687,learnblock2,471.5,img/planet8_right.png,8,Community 2,NA,TRUE,j,j,NA,NA,NA,1,6,"1,7,12,15,2,3,8,13,5,11,9,10,6,4,14"
14398,commdev-image-keyboard-response,367,724939,learnblock2,375.60000002384186,img/planet5_right.png,5,Community 2,NA,FALSE,f,j,NA,NA,NA,1,6,"1,7,12,15,2,3,8,13,5,11,9,10,6,4,14"
14398,commdev-image-keyboard-response,368,726191,learnblock2,435.4000000357628,img/planet11_left.png,11,Community 2,NA,FALSE,j,f,NA,NA,NA,1,6,"1,7,12,15,2,3,8,13,5,11,9,10,6,4,14"
14398,commdev-image-keyboard-response,369,727442,learnblock2,380.39999997615814,img/planet8_right.png,8,Community 2,NA,TRUE,j,j,NA,NA,NA,1,6,"1,7,12,15,2,3,8,13,5,11,9,10,6,4,14"
14398,commdev-image-keyboard-response,370,728695,learnblock2,414.80000001192093,img/planet3_right.png,3,Community 2,NA,TRUE,j,j,NA,NA,NA,1,6,"1,7,12,15,2,3,8,13,5,11,9,10,6,4,14"
14398,commdev-image-keyboard-response,371,729946,learnblock2,628.8000000119209,img/planet8_left.png,8,Community 2,NA,TRUE,f,f,NA,NA,NA,1,6,"1,7,12,15,2,3,8,13,5,11,9,10,6,4,14"
14398,commdev-image-keyboard-response,372,731198,learnblock2,437.19999998807907,img/planet13_right.png,13,Community 2,NA,TRUE,j,j,NA,NA,NA,1,6,"1,7,12,15,2,3,8,13,5,11,9,10,6,4,14"
14398,commdev-image-keyboard-response,373,732450,learnblock2,545.5,img/planet11_right.png,11,Community 2,NA,TRUE,j,j,NA,NA,NA,1,6,"1,7,12,15,2,3,8,13,5,11,9,10,6,4,14"
14398,commdev-image-keyboard-response,374,733703,learnblock2,669.6000000238419,img/planet3_right.png,3,Community 2,NA,TRUE,j,j,NA,NA,NA,1,6,"1,7,12,15,2,3,8,13,5,11,9,10,6,4,14"
14398,commdev-image-keyboard-response,375,734954,learnblock2,320.39999997615814,img/planet5_left.png,5,Community 2,NA,TRUE,f,f,NA,NA,NA,1,6,"1,7,12,15,2,3,8,13,5,11,9,10,6,4,14"
14398,commdev-image-keyboard-response,376,736207,learnblock2,434,img/planet11_right.png,11,Community 2,NA,TRUE,j,j,NA,NA,NA,1,6,"1,7,12,15,2,3,8,13,5,11,9,10,6,4,14"
14398,commdev-image-keyboard-response,377,737459,learnblock2,414.60000002384186,img/planet8_right.png,8,Community 2,NA,TRUE,j,j,NA,NA,NA,1,6,"1,7,12,15,2,3,8,13,5,11,9,10,6,4,14"
14398,commdev-image-keyboard-response,378,738710,learnblock2,320.5,img/planet3_left.png,3,Community 2,NA,TRUE,f,f,NA,NA,NA,1,6,"1,7,12,15,2,3,8,13,5,11,9,10,6,4,14"
14398,commdev-image-keyboard-response,379,739962,learnblock2,406.89999997615814,img/planet15_left.png,15,Community 1,NA,TRUE,f,f,NA,NA,NA,1,6,"1,7,12,15,2,3,8,13,5,11,9,10,6,4,14"
14398,commdev-image-keyboard-response,380,741214,learnblock2,576.3000000119209,img/planet3_left.png,3,Community 2,NA,FALSE,j,f,NA,NA,NA,1,6,"1,7,12,15,2,3,8,13,5,11,9,10,6,4,14"
14398,commdev-image-keyboard-response,381,742465,learnblock2,496.60000002384186,img/planet5_left.png,5,Community 2,NA,TRUE,f,f,NA,NA,NA,1,6,"1,7,12,15,2,3,8,13,5,11,9,10,6,4,14"
14398,commdev-image-keyboard-response,382,743717,learnblock2,515.5999999642372,img/planet13_right.png,13,Community 2,NA,TRUE,j,j,NA,NA,NA,1,6,"1,7,12,15,2,3,8,13,5,11,9,10,6,4,14"
14398,commdev-image-keyboard-response,383,744969,learnblock2,477.2000000476837,img/planet10_right.png,10,Community 3,NA,TRUE,j,j,NA,NA,NA,1,6,"1,7,12,15,2,3,8,13,5,11,9,10,6,4,14"
14398,commdev-image-keyboard-response,384,746220,learnblock2,466.39999997615814,img/planet4_left.png,4,Community 3,NA,FALSE,j,f,NA,NA,NA,1,6,"1,7,12,15,2,3,8,13,5,11,9,10,6,4,14"
14398,commdev-image-keyboard-response,385,747473,learnblock2,781.2999999523163,img/planet14_left.png,14,Community 3,NA,TRUE,f,f,NA,NA,NA,1,6,"1,7,12,15,2,3,8,13,5,11,9,10,6,4,14"
14398,commdev-image-keyboard-response,386,748726,learnblock2,822.8999999761581,img/planet6_right.png,6,Community 3,NA,TRUE,j,j,NA,NA,NA,1,6,"1,7,12,15,2,3,8,13,5,11,9,10,6,4,14"
14398,commdev-image-keyboard-response,387,749978,learnblock2,null,img/planet4_left.png,4,Community 3,NA,FALSE,null,f,NA,NA,NA,1,6,"1,7,12,15,2,3,8,13,5,11,9,10,6,4,14"
14398,commdev-image-keyboard-response,388,751230,learnblock2,559.4000000357628,img/planet6_left.png,6,Community 3,NA,TRUE,f,f,NA,NA,NA,1,6,"1,7,12,15,2,3,8,13,5,11,9,10,6,4,14"
14398,commdev-image-keyboard-response,389,752481,learnblock2,617.5,img/planet4_left.png,4,Community 3,NA,TRUE,f,f,NA,NA,NA,1,6,"1,7,12,15,2,3,8,13,5,11,9,10,6,4,14"
14398,commdev-image-keyboard-response,390,753733,learnblock2,727.1000000238419,img/planet9_right.png,9,Community 3,NA,TRUE,j,j,NA,NA,NA,1,6,"1,7,12,15,2,3,8,13,5,11,9,10,6,4,14"
14398,commdev-image-keyboard-response,391,754985,learnblock2,437.39999997615814,img/planet6_right.png,6,Community 3,NA,TRUE,j,j,NA,NA,NA,1,6,"1,7,12,15,2,3,8,13,5,11,9,10,6,4,14"
14398,commdev-image-keyboard-response,392,756237,learnblock2,429.30000001192093,img/planet9_left.png,9,Community 3,NA,TRUE,f,f,NA,NA,NA,1,6,"1,7,12,15,2,3,8,13,5,11,9,10,6,4,14"
14398,commdev-image-keyboard-response,393,757489,learnblock2,458.80000001192093,img/planet2_right.png,2,Community 1,NA,TRUE,j,j,NA,NA,NA,1,6,"1,7,12,15,2,3,8,13,5,11,9,10,6,4,14"
14398,commdev-image-keyboard-response,394,758742,learnblock2,476,img/planet9_left.png,9,Community 3,NA,TRUE,f,f,NA,NA,NA,1,6,"1,7,12,15,2,3,8,13,5,11,9,10,6,4,14"
14398,commdev-image-keyboard-response,395,759993,learnblock2,438.30000001192093,img/planet4_right.png,4,Community 3,NA,TRUE,j,j,NA,NA,NA,1,6,"1,7,12,15,2,3,8,13,5,11,9,10,6,4,14"
14398,commdev-image-keyboard-response,396,761245,learnblock2,414.7999999523163,img/planet9_right.png,9,Community 3,NA,FALSE,f,j,NA,NA,NA,1,6,"1,7,12,15,2,3,8,13,5,11,9,10,6,4,14"
14398,commdev-image-keyboard-response,397,762498,learnblock2,498.60000002384186,img/planet2_right.png,2,Community 1,NA,TRUE,j,j,NA,NA,NA,1,6,"1,7,12,15,2,3,8,13,5,11,9,10,6,4,14"
14398,commdev-image-keyboard-response,398,763749,learnblock2,546.6000000238419,img/planet9_right.png,9,Community 3,NA,FALSE,f,j,NA,NA,NA,1,6,"1,7,12,15,2,3,8,13,5,11,9,10,6,4,14"
14398,commdev-image-keyboard-response,399,765001,learnblock2,595.7000000476837,img/planet4_left.png,4,Community 3,NA,TRUE,f,f,NA,NA,NA,1,6,"1,7,12,15,2,3,8,13,5,11,9,10,6,4,14"
14398,commdev-image-keyboard-response,400,766253,learnblock2,677.6999999880791,img/planet14_left.png,14,Community 3,NA,TRUE,f,f,NA,NA,NA,1,6,"1,7,12,15,2,3,8,13,5,11,9,10,6,4,14"
14398,commdev-image-keyboard-response,401,767505,learnblock2,497.5,img/planet4_right.png,4,Community 3,NA,TRUE,j,j,NA,NA,NA,1,6,"1,7,12,15,2,3,8,13,5,11,9,10,6,4,14"
14398,commdev-image-keyboard-response,402,768757,learnblock2,709.1000000238419,img/planet6_left.png,6,Community 3,NA,FALSE,j,f,NA,NA,NA,1,6,"1,7,12,15,2,3,8,13,5,11,9,10,6,4,14"
14398,commdev-image-keyboard-response,403,770009,learnblock2,481.0999999642372,img/planet9_left.png,9,Community 3,NA,TRUE,f,f,NA,NA,NA,1,6,"1,7,12,15,2,3,8,13,5,11,9,10,6,4,14"
14398,commdev-image-keyboard-response,404,771261,learnblock2,468.19999998807907,img/planet6_right.png,6,Community 3,NA,TRUE,j,j,NA,NA,NA,1,6,"1,7,12,15,2,3,8,13,5,11,9,10,6,4,14"
14398,commdev-image-keyboard-response,405,772513,learnblock2,428.0999999642372,img/planet4_right.png,4,Community 3,NA,TRUE,j,j,NA,NA,NA,1,6,"1,7,12,15,2,3,8,13,5,11,9,10,6,4,14"
14398,commdev-image-keyboard-response,406,773765,learnblock2,624.4000000357628,img/planet14_left.png,14,Community 3,NA,TRUE,f,f,NA,NA,NA,1,6,"1,7,12,15,2,3,8,13,5,11,9,10,6,4,14"
14398,commdev-image-keyboard-response,407,775017,learnblock2,518.9000000357628,img/planet10_left.png,10,Community 3,NA,TRUE,f,f,NA,NA,NA,1,6,"1,7,12,15,2,3,8,13,5,11,9,10,6,4,14"
14398,commdev-image-keyboard-response,408,776269,learnblock2,440.2000000476837,img/planet13_right.png,13,Community 2,NA,TRUE,j,j,NA,NA,NA,1,6,"1,7,12,15,2,3,8,13,5,11,9,10,6,4,14"
14398,commdev-image-keyboard-response,409,777521,learnblock2,480.10000002384186,img/planet5_left.png,5,Community 2,NA,TRUE,f,f,NA,NA,NA,1,6,"1,7,12,15,2,3,8,13,5,11,9,10,6,4,14"
14398,commdev-image-keyboard-response,410,778773,learnblock2,539.2999999523163,img/planet13_left.png,13,Community 2,NA,TRUE,f,f,NA,NA,NA,1,6,"1,7,12,15,2,3,8,13,5,11,9,10,6,4,14"
14398,commdev-image-keyboard-response,411,780025,learnblock2,470.60000002384186,img/planet8_left.png,8,Community 2,NA,TRUE,f,f,NA,NA,NA,1,6,"1,7,12,15,2,3,8,13,5,11,9,10,6,4,14"
14398,commdev-image-keyboard-response,412,779335,learnblock2,543.3999999761581,img/planet11_left.png,11,Community 2,NA,TRUE,f,f,NA,NA,NA,1,6,"1,7,12,15,2,3,8,13,5,11,9,10,6,4,14"
14398,commdev-image-keyboard-response,413,780587,learnblock2,575.5,img/planet13_left.png,13,Community 2,NA,TRUE,f,f,NA,NA,NA,1,6,"1,7,12,15,2,3,8,13,5,11,9,10,6,4,14"
14398,commdev-image-keyboard-response,414,781838,learnblock2,592.0999999642372,img/planet10_left.png,10,Community 3,NA,TRUE,f,f,NA,NA,NA,1,6,"1,7,12,15,2,3,8,13,5,11,9,10,6,4,14"
14398,commdev-image-keyboard-response,415,783090,learnblock2,756.8999999761581,img/planet13_left.png,13,Community 2,NA,TRUE,f,f,NA,NA,NA,1,6,"1,7,12,15,2,3,8,13,5,11,9,10,6,4,14"
14398,commdev-image-keyboard-response,416,784342,learnblock2,635.7000000476837,img/planet10_left.png,10,Community 3,NA,TRUE,f,f,NA,NA,NA,1,6,"1,7,12,15,2,3,8,13,5,11,9,10,6,4,14"
14398,commdev-image-keyboard-response,417,785594,learnblock2,592,img/planet4_right.png,4,Community 3,NA,TRUE,j,j,NA,NA,NA,1,6,"1,7,12,15,2,3,8,13,5,11,9,10,6,4,14"
14398,commdev-image-keyboard-response,418,786846,learnblock2,626.7999999523163,img/planet14_left.png,14,Community 3,NA,TRUE,f,f,NA,NA,NA,1,6,"1,7,12,15,2,3,8,13,5,11,9,10,6,4,14"
14398,commdev-image-keyboard-response,419,788098,learnblock2,525.3999999761581,img/planet9_right.png,9,Community 3,NA,TRUE,j,j,NA,NA,NA,1,6,"1,7,12,15,2,3,8,13,5,11,9,10,6,4,14"
14398,commdev-image-keyboard-response,420,789349,learnblock2,474,img/planet2_right.png,2,Community 1,NA,TRUE,j,j,NA,NA,NA,1,6,"1,7,12,15,2,3,8,13,5,11,9,10,6,4,14"
14398,commdev-image-keyboard-response,421,790602,learnblock2,491.60000002384186,img/planet9_left.png,9,Community 3,NA,TRUE,f,f,NA,NA,NA,1,6,"1,7,12,15,2,3,8,13,5,11,9,10,6,4,14"
14398,commdev-image-keyboard-response,422,791854,learnblock2,576.8999999761581,img/planet6_right.png,6,Community 3,NA,TRUE,j,j,NA,NA,NA,1,6,"1,7,12,15,2,3,8,13,5,11,9,10,6,4,14"
14398,commdev-image-keyboard-response,423,793106,learnblock2,499.39999997615814,img/planet4_right.png,4,Community 3,NA,TRUE,j,j,NA,NA,NA,1,6,"1,7,12,15,2,3,8,13,5,11,9,10,6,4,14"
14398,commdev-image-keyboard-response,424,794358,learnblock2,438.89999997615814,img/planet9_left.png,9,Community 3,NA,TRUE,f,f,NA,NA,NA,1,6,"1,7,12,15,2,3,8,13,5,11,9,10,6,4,14"
14398,commdev-image-keyboard-response,425,795613,learnblock2,454.89999997615814,img/planet4_right.png,4,Community 3,NA,TRUE,j,j,NA,NA,NA,1,6,"1,7,12,15,2,3,8,13,5,11,9,10,6,4,14"
14398,commdev-image-keyboard-response,426,796866,learnblock2,442.19999998807907,img/planet10_right.png,10,Community 3,NA,TRUE,j,j,NA,NA,NA,1,6,"1,7,12,15,2,3,8,13,5,11,9,10,6,4,14"
14398,commdev-image-keyboard-response,427,798118,learnblock2,451.19999998807907,img/planet6_left.png,6,Community 3,NA,TRUE,f,f,NA,NA,NA,1,6,"1,7,12,15,2,3,8,13,5,11,9,10,6,4,14"
14398,commdev-image-keyboard-response,428,799370,learnblock2,550.6000000238419,img/planet4_left.png,4,Community 3,NA,TRUE,f,f,NA,NA,NA,1,6,"1,7,12,15,2,3,8,13,5,11,9,10,6,4,14"
14398,commdev-image-keyboard-response,429,800622,learnblock2,478.89999997615814,img/planet6_left.png,6,Community 3,NA,TRUE,f,f,NA,NA,NA,1,6,"1,7,12,15,2,3,8,13,5,11,9,10,6,4,14"
14398,commdev-image-keyboard-response,430,801872,learnblock2,450.5,img/planet4_right.png,4,Community 3,NA,TRUE,j,j,NA,NA,NA,1,6,"1,7,12,15,2,3,8,13,5,11,9,10,6,4,14"
14398,commdev-image-keyboard-response,431,803124,learnblock2,501.5,img/planet14_left.png,14,Community 3,NA,TRUE,f,f,NA,NA,NA,1,6,"1,7,12,15,2,3,8,13,5,11,9,10,6,4,14"
14398,commdev-image-keyboard-response,432,804376,learnblock2,590,img/planet10_left.png,10,Community 3,NA,TRUE,f,f,NA,NA,NA,1,6,"1,7,12,15,2,3,8,13,5,11,9,10,6,4,14"
14398,commdev-image-keyboard-response,433,805629,learnblock2,552.5,img/planet4_left.png,4,Community 3,NA,TRUE,f,f,NA,NA,NA,1,6,"1,7,12,15,2,3,8,13,5,11,9,10,6,4,14"
14398,commdev-image-keyboard-response,434,806881,learnblock2,469.80000001192093,img/planet9_left.png,9,Community 3,NA,TRUE,f,f,NA,NA,NA,1,6,"1,7,12,15,2,3,8,13,5,11,9,10,6,4,14"
14398,commdev-image-keyboard-response,435,808132,learnblock2,580.1999999880791,img/planet14_left.png,14,Community 3,NA,TRUE,f,f,NA,NA,NA,1,6,"1,7,12,15,2,3,8,13,5,11,9,10,6,4,14"
14398,commdev-image-keyboard-response,436,809388,learnblock2,547.3000000119209,img/planet10_left.png,10,Community 3,NA,TRUE,f,f,NA,NA,NA,1,6,"1,7,12,15,2,3,8,13,5,11,9,10,6,4,14"
14398,commdev-image-keyboard-response,437,810639,learnblock2,500.2999999523163,img/planet6_left.png,6,Community 3,NA,TRUE,f,f,NA,NA,NA,1,6,"1,7,12,15,2,3,8,13,5,11,9,10,6,4,14"
14398,commdev-image-keyboard-response,438,811890,learnblock2,467.60000002384186,img/planet14_right.png,14,Community 3,NA,TRUE,j,j,NA,NA,NA,1,6,"1,7,12,15,2,3,8,13,5,11,9,10,6,4,14"
14398,commdev-image-keyboard-response,439,813142,learnblock2,490.30000001192093,img/planet9_right.png,9,Community 3,NA,TRUE,j,j,NA,NA,NA,1,6,"1,7,12,15,2,3,8,13,5,11,9,10,6,4,14"
14398,commdev-image-keyboard-response,440,814394,learnblock2,416.39999997615814,img/planet4_right.png,4,Community 3,NA,TRUE,j,j,NA,NA,NA,1,6,"1,7,12,15,2,3,8,13,5,11,9,10,6,4,14"
14398,commdev-image-keyboard-response,441,815647,learnblock2,425.30000001192093,img/planet6_left.png,6,Community 3,NA,TRUE,f,f,NA,NA,NA,1,6,"1,7,12,15,2,3,8,13,5,11,9,10,6,4,14"
14398,commdev-image-keyboard-response,442,816898,learnblock2,462.89999997615814,img/planet10_left.png,10,Community 3,NA,TRUE,f,f,NA,NA,NA,1,6,"1,7,12,15,2,3,8,13,5,11,9,10,6,4,14"
14398,commdev-image-keyboard-response,443,818150,learnblock2,368.19999998807907,img/planet6_right.png,6,Community 3,NA,TRUE,j,j,NA,NA,NA,1,6,"1,7,12,15,2,3,8,13,5,11,9,10,6,4,14"
14398,commdev-image-keyboard-response,444,819402,learnblock2,551.4000000357628,img/planet14_left.png,14,Community 3,NA,TRUE,f,f,NA,NA,NA,1,6,"1,7,12,15,2,3,8,13,5,11,9,10,6,4,14"
14398,commdev-image-keyboard-response,445,820654,learnblock2,448.5999999642372,img/planet9_left.png,9,Community 3,NA,TRUE,f,f,NA,NA,NA,1,6,"1,7,12,15,2,3,8,13,5,11,9,10,6,4,14"
14398,commdev-image-keyboard-response,446,821906,learnblock2,469.10000002384186,img/planet4_right.png,4,Community 3,NA,TRUE,j,j,NA,NA,NA,1,6,"1,7,12,15,2,3,8,13,5,11,9,10,6,4,14"
14398,commdev-image-keyboard-response,447,823157,learnblock2,382.89999997615814,img/planet6_right.png,6,Community 3,NA,TRUE,j,j,NA,NA,NA,1,6,"1,7,12,15,2,3,8,13,5,11,9,10,6,4,14"
14398,commdev-image-keyboard-response,448,824408,learnblock2,374.89999997615814,img/planet10_left.png,10,Community 3,NA,TRUE,f,f,NA,NA,NA,1,6,"1,7,12,15,2,3,8,13,5,11,9,10,6,4,14"
14398,commdev-image-keyboard-response,449,825660,learnblock2,412,img/planet6_right.png,6,Community 3,NA,TRUE,j,j,NA,NA,NA,1,6,"1,7,12,15,2,3,8,13,5,11,9,10,6,4,14"
14398,commdev-image-keyboard-response,450,826913,learnblock2,376.5,img/planet10_right.png,10,Community 3,NA,TRUE,j,j,NA,NA,NA,1,6,"1,7,12,15,2,3,8,13,5,11,9,10,6,4,14"
14398,commdev-image-keyboard-response,451,828166,learnblock2,486.60000002384186,img/planet6_left.png,6,Community 3,NA,TRUE,f,f,NA,NA,NA,1,6,"1,7,12,15,2,3,8,13,5,11,9,10,6,4,14"
14398,commdev-image-keyboard-response,452,829417,learnblock2,386.69999998807907,img/planet10_right.png,10,Community 3,NA,FALSE,f,j,NA,NA,NA,1,6,"1,7,12,15,2,3,8,13,5,11,9,10,6,4,14"
14398,commdev-image-keyboard-response,453,830668,learnblock2,460.2000000476837,img/planet14_right.png,14,Community 3,NA,TRUE,j,j,NA,NA,NA,1,6,"1,7,12,15,2,3,8,13,5,11,9,10,6,4,14"
14398,commdev-image-keyboard-response,454,831920,learnblock2,450.19999998807907,img/planet4_left.png,4,Community 3,NA,TRUE,f,f,NA,NA,NA,1,6,"1,7,12,15,2,3,8,13,5,11,9,10,6,4,14"
14398,commdev-image-keyboard-response,455,833170,learnblock2,418,img/planet6_left.png,6,Community 3,NA,TRUE,f,f,NA,NA,NA,1,6,"1,7,12,15,2,3,8,13,5,11,9,10,6,4,14"
14398,commdev-image-keyboard-response,456,834422,learnblock2,686.6999999880791,img/planet14_left.png,14,Community 3,NA,TRUE,f,f,NA,NA,NA,1,6,"1,7,12,15,2,3,8,13,5,11,9,10,6,4,14"
14398,commdev-image-keyboard-response,457,835674,learnblock2,573.3999999761581,img/planet9_left.png,9,Community 3,NA,TRUE,f,f,NA,NA,NA,1,6,"1,7,12,15,2,3,8,13,5,11,9,10,6,4,14"
14398,commdev-image-keyboard-response,458,836926,learnblock2,598.3000000119209,img/planet4_left.png,4,Community 3,NA,TRUE,f,f,NA,NA,NA,1,6,"1,7,12,15,2,3,8,13,5,11,9,10,6,4,14"
14398,commdev-image-keyboard-response,459,838178,learnblock2,632.0999999642372,img/planet10_left.png,10,Community 3,NA,TRUE,f,f,NA,NA,NA,1,6,"1,7,12,15,2,3,8,13,5,11,9,10,6,4,14"
14398,commdev-image-keyboard-response,460,839430,learnblock2,595.3000000119209,img/planet14_left.png,14,Community 3,NA,TRUE,f,f,NA,NA,NA,1,6,"1,7,12,15,2,3,8,13,5,11,9,10,6,4,14"
14398,commdev-image-keyboard-response,461,840697,learnblock2,438.60000002384186,img/planet9_right.png,9,Community 3,NA,TRUE,j,j,NA,NA,NA,1,6,"1,7,12,15,2,3,8,13,5,11,9,10,6,4,14"
14398,commdev-image-keyboard-response,462,841948,learnblock2,443.7000000476837,img/planet6_right.png,6,Community 3,NA,TRUE,j,j,NA,NA,NA,1,6,"1,7,12,15,2,3,8,13,5,11,9,10,6,4,14"
14398,commdev-image-keyboard-response,463,843199,learnblock2,431.7000000476837,img/planet14_left.png,14,Community 3,NA,TRUE,f,f,NA,NA,NA,1,6,"1,7,12,15,2,3,8,13,5,11,9,10,6,4,14"
14398,commdev-image-keyboard-response,464,844451,learnblock2,419.0999999642372,img/planet10_right.png,10,Community 3,NA,TRUE,j,j,NA,NA,NA,1,6,"1,7,12,15,2,3,8,13,5,11,9,10,6,4,14"
14398,commdev-image-keyboard-response,465,845703,learnblock2,396,img/planet13_right.png,13,Community 2,NA,TRUE,j,j,NA,NA,NA,1,6,"1,7,12,15,2,3,8,13,5,11,9,10,6,4,14"
14398,commdev-image-keyboard-response,466,846955,learnblock2,507,img/planet8_right.png,8,Community 2,NA,TRUE,j,j,NA,NA,NA,1,6,"1,7,12,15,2,3,8,13,5,11,9,10,6,4,14"
14398,commdev-image-keyboard-response,467,848206,learnblock2,553.8999999761581,img/planet11_right.png,11,Community 2,NA,TRUE,j,j,NA,NA,NA,1,6,"1,7,12,15,2,3,8,13,5,11,9,10,6,4,14"
14398,commdev-image-keyboard-response,468,849458,learnblock2,488.80000001192093,img/planet5_right.png,5,Community 2,NA,TRUE,j,j,NA,NA,NA,1,6,"1,7,12,15,2,3,8,13,5,11,9,10,6,4,14"
14398,commdev-image-keyboard-response,469,850709,learnblock2,445.30000001192093,img/planet13_left.png,13,Community 2,NA,TRUE,f,f,NA,NA,NA,1,6,"1,7,12,15,2,3,8,13,5,11,9,10,6,4,14"
14398,commdev-image-keyboard-response,470,851960,learnblock2,558.4000000357628,img/planet8_left.png,8,Community 2,NA,TRUE,f,f,NA,NA,NA,1,6,"1,7,12,15,2,3,8,13,5,11,9,10,6,4,14"
14398,commdev-image-keyboard-response,471,853212,learnblock2,437.0999999642372,img/planet3_right.png,3,Community 2,NA,TRUE,j,j,NA,NA,NA,1,6,"1,7,12,15,2,3,8,13,5,11,9,10,6,4,14"
14398,commdev-image-keyboard-response,472,854464,learnblock2,442.5,img/planet8_right.png,8,Community 2,NA,TRUE,j,j,NA,NA,NA,1,6,"1,7,12,15,2,3,8,13,5,11,9,10,6,4,14"
14398,commdev-image-keyboard-response,473,855715,learnblock2,466.5,img/planet3_left.png,3,Community 2,NA,TRUE,f,f,NA,NA,NA,1,6,"1,7,12,15,2,3,8,13,5,11,9,10,6,4,14"
14398,commdev-image-keyboard-response,474,856966,learnblock2,472.0999999642372,img/planet5_left.png,5,Community 2,NA,TRUE,f,f,NA,NA,NA,1,6,"1,7,12,15,2,3,8,13,5,11,9,10,6,4,14"
14398,commdev-image-keyboard-response,475,858218,learnblock2,603.6999999880791,img/planet3_left.png,3,Community 2,NA,TRUE,f,f,NA,NA,NA,1,6,"1,7,12,15,2,3,8,13,5,11,9,10,6,4,14"
14398,commdev-image-keyboard-response,476,859470,learnblock2,596.8999999761581,img/planet11_left.png,11,Community 2,NA,TRUE,f,f,NA,NA,NA,1,6,"1,7,12,15,2,3,8,13,5,11,9,10,6,4,14"
14398,commdev-image-keyboard-response,477,860722,learnblock2,458.5,img/planet5_left.png,5,Community 2,NA,TRUE,f,f,NA,NA,NA,1,6,"1,7,12,15,2,3,8,13,5,11,9,10,6,4,14"
14398,commdev-image-keyboard-response,478,861974,learnblock2,403.19999998807907,img/planet3_left.png,3,Community 2,NA,TRUE,f,f,NA,NA,NA,1,6,"1,7,12,15,2,3,8,13,5,11,9,10,6,4,14"
14398,commdev-image-keyboard-response,479,863227,learnblock2,459.5999999642372,img/planet5_left.png,5,Community 2,NA,TRUE,f,f,NA,NA,NA,1,6,"1,7,12,15,2,3,8,13,5,11,9,10,6,4,14"
14398,commdev-image-keyboard-response,480,864478,learnblock2,611.3000000119209,img/planet8_left.png,8,Community 2,NA,TRUE,f,f,NA,NA,NA,1,6,"1,7,12,15,2,3,8,13,5,11,9,10,6,4,14"
14398,commdev-image-keyboard-response,481,865731,learnblock2,567.8000000119209,img/planet11_right.png,11,Community 2,NA,TRUE,j,j,NA,NA,NA,1,6,"1,7,12,15,2,3,8,13,5,11,9,10,6,4,14"
14398,commdev-image-keyboard-response,482,866982,learnblock2,521.6999999880791,img/planet8_right.png,8,Community 2,NA,TRUE,j,j,NA,NA,NA,1,6,"1,7,12,15,2,3,8,13,5,11,9,10,6,4,14"
14398,commdev-image-keyboard-response,483,868239,learnblock2,497.80000001192093,img/planet13_right.png,13,Community 2,NA,TRUE,j,j,NA,NA,NA,1,6,"1,7,12,15,2,3,8,13,5,11,9,10,6,4,14"
14398,commdev-image-keyboard-response,484,869490,learnblock2,478.80000001192093,img/planet10_left.png,10,Community 3,NA,TRUE,f,f,NA,NA,NA,1,6,"1,7,12,15,2,3,8,13,5,11,9,10,6,4,14"
14398,commdev-image-keyboard-response,485,870742,learnblock2,523.8000000119209,img/planet14_left.png,14,Community 3,NA,TRUE,f,f,NA,NA,NA,1,6,"1,7,12,15,2,3,8,13,5,11,9,10,6,4,14"
14398,commdev-image-keyboard-response,486,871993,learnblock2,423.0999999642372,img/planet4_left.png,4,Community 3,NA,TRUE,f,f,NA,NA,NA,1,6,"1,7,12,15,2,3,8,13,5,11,9,10,6,4,14"
14398,commdev-image-keyboard-response,487,873244,learnblock2,430.89999997615814,img/planet10_right.png,10,Community 3,NA,TRUE,j,j,NA,NA,NA,1,6,"1,7,12,15,2,3,8,13,5,11,9,10,6,4,14"
14398,commdev-image-keyboard-response,488,874496,learnblock2,485.2999999523163,img/planet6_right.png,6,Community 3,NA,TRUE,j,j,NA,NA,NA,1,6,"1,7,12,15,2,3,8,13,5,11,9,10,6,4,14"
14398,commdev-image-keyboard-response,489,875748,learnblock2,614.6999999880791,img/planet10_right.png,10,Community 3,NA,TRUE,j,j,NA,NA,NA,1,6,"1,7,12,15,2,3,8,13,5,11,9,10,6,4,14"
14398,commdev-image-keyboard-response,490,877000,learnblock2,605.7000000476837,img/planet6_left.png,6,Community 3,NA,TRUE,f,f,NA,NA,NA,1,6,"1,7,12,15,2,3,8,13,5,11,9,10,6,4,14"
14398,commdev-image-keyboard-response,491,878253,learnblock2,646.9000000357628,img/planet10_left.png,10,Community 3,NA,TRUE,f,f,NA,NA,NA,1,6,"1,7,12,15,2,3,8,13,5,11,9,10,6,4,14"
14398,commdev-image-keyboard-response,492,879504,learnblock2,496.80000001192093,img/planet14_right.png,14,Community 3,NA,TRUE,j,j,NA,NA,NA,1,6,"1,7,12,15,2,3,8,13,5,11,9,10,6,4,14"
14398,commdev-image-keyboard-response,493,880756,learnblock2,508.0999999642372,img/planet6_right.png,6,Community 3,NA,TRUE,j,j,NA,NA,NA,1,6,"1,7,12,15,2,3,8,13,5,11,9,10,6,4,14"
14398,commdev-image-keyboard-response,494,882007,learnblock2,735.1000000238419,img/planet9_right.png,9,Community 3,NA,TRUE,j,j,NA,NA,NA,1,6,"1,7,12,15,2,3,8,13,5,11,9,10,6,4,14"
14398,commdev-image-keyboard-response,495,883259,learnblock2,688,img/planet14_right.png,14,Community 3,NA,TRUE,j,j,NA,NA,NA,1,6,"1,7,12,15,2,3,8,13,5,11,9,10,6,4,14"
14398,commdev-image-keyboard-response,496,884511,learnblock2,445.19999998807907,img/planet9_left.png,9,Community 3,NA,TRUE,f,f,NA,NA,NA,1,6,"1,7,12,15,2,3,8,13,5,11,9,10,6,4,14"
14398,commdev-image-keyboard-response,497,885763,learnblock2,524.5,img/planet6_right.png,6,Community 3,NA,TRUE,j,j,NA,NA,NA,1,6,"1,7,12,15,2,3,8,13,5,11,9,10,6,4,14"
14398,commdev-image-keyboard-response,498,887015,learnblock2,495.89999997615814,img/planet9_right.png,9,Community 3,NA,TRUE,j,j,NA,NA,NA,1,6,"1,7,12,15,2,3,8,13,5,11,9,10,6,4,14"
14398,commdev-image-keyboard-response,499,888266,learnblock2,540.1000000238419,img/planet4_left.png,4,Community 3,NA,TRUE,f,f,NA,NA,NA,1,6,"1,7,12,15,2,3,8,13,5,11,9,10,6,4,14"
14398,commdev-image-keyboard-response,500,889518,learnblock2,567.6999999880791,img/planet14_left.png,14,Community 3,NA,TRUE,f,f,NA,NA,NA,1,6,"1,7,12,15,2,3,8,13,5,11,9,10,6,4,14"
14398,commdev-image-keyboard-response,501,890769,learnblock2,427.39999997615814,img/planet10_left.png,10,Community 3,NA,FALSE,j,f,NA,NA,NA,1,6,"1,7,12,15,2,3,8,13,5,11,9,10,6,4,14"
14398,commdev-image-keyboard-response,502,892021,learnblock2,652.5,img/planet14_left.png,14,Community 3,NA,TRUE,f,f,NA,NA,NA,1,6,"1,7,12,15,2,3,8,13,5,11,9,10,6,4,14"
14398,commdev-image-keyboard-response,503,893272,learnblock2,1122,img/planet10_left.png,10,Community 3,NA,FALSE,j,f,NA,NA,NA,1,6,"1,7,12,15,2,3,8,13,5,11,9,10,6,4,14"
14398,commdev-image-keyboard-response,504,894524,learnblock2,null,img/planet13_right.png,13,Community 2,NA,FALSE,null,j,NA,NA,NA,1,6,"1,7,12,15,2,3,8,13,5,11,9,10,6,4,14"
14398,commdev-image-keyboard-response,505,895775,learnblock2,1185.1000000238419,img/planet11_right.png,11,Community 2,NA,TRUE,j,j,NA,NA,NA,1,6,"1,7,12,15,2,3,8,13,5,11,9,10,6,4,14"
14398,commdev-image-keyboard-response,506,897027,learnblock2,null,img/planet5_right.png,5,Community 2,NA,FALSE,null,j,NA,NA,NA,1,6,"1,7,12,15,2,3,8,13,5,11,9,10,6,4,14"
14398,commdev-image-keyboard-response,507,898279,learnblock2,174.19999998807907,img/planet11_left.png,11,Community 2,NA,FALSE,j,f,NA,NA,NA,1,6,"1,7,12,15,2,3,8,13,5,11,9,10,6,4,14"
14398,commdev-image-keyboard-response,508,899531,learnblock2,411.30000001192093,img/planet5_right.png,5,Community 2,NA,TRUE,j,j,NA,NA,NA,1,6,"1,7,12,15,2,3,8,13,5,11,9,10,6,4,14"
14398,commdev-image-keyboard-response,509,900782,learnblock2,401.69999998807907,img/planet3_right.png,3,Community 2,NA,TRUE,j,j,NA,NA,NA,1,6,"1,7,12,15,2,3,8,13,5,11,9,10,6,4,14"
14398,commdev-image-keyboard-response,510,902035,learnblock2,508.69999998807907,img/planet5_right.png,5,Community 2,NA,TRUE,j,j,NA,NA,NA,1,6,"1,7,12,15,2,3,8,13,5,11,9,10,6,4,14"
14398,commdev-image-keyboard-response,511,903287,learnblock2,445.5,img/planet8_right.png,8,Community 2,NA,TRUE,j,j,NA,NA,NA,1,6,"1,7,12,15,2,3,8,13,5,11,9,10,6,4,14"
14398,commdev-image-keyboard-response,512,904539,learnblock2,426.30000001192093,img/planet3_right.png,3,Community 2,NA,TRUE,j,j,NA,NA,NA,1,6,"1,7,12,15,2,3,8,13,5,11,9,10,6,4,14"
14398,commdev-image-keyboard-response,513,905790,learnblock2,443.9000000357628,img/planet5_left.png,5,Community 2,NA,TRUE,f,f,NA,NA,NA,1,6,"1,7,12,15,2,3,8,13,5,11,9,10,6,4,14"
14398,commdev-image-keyboard-response,514,907042,learnblock2,436.30000001192093,img/planet13_left.png,13,Community 2,NA,TRUE,f,f,NA,NA,NA,1,6,"1,7,12,15,2,3,8,13,5,11,9,10,6,4,14"
14398,commdev-image-keyboard-response,515,908293,learnblock2,570.1999999880791,img/planet5_right.png,5,Community 2,NA,TRUE,j,j,NA,NA,NA,1,6,"1,7,12,15,2,3,8,13,5,11,9,10,6,4,14"
14398,commdev-image-keyboard-response,516,909545,learnblock2,483.0999999642372,img/planet8_right.png,8,Community 2,NA,TRUE,j,j,NA,NA,NA,1,6,"1,7,12,15,2,3,8,13,5,11,9,10,6,4,14"
14398,commdev-image-keyboard-response,517,910798,learnblock2,460.5,img/planet13_left.png,13,Community 2,NA,FALSE,j,f,NA,NA,NA,1,6,"1,7,12,15,2,3,8,13,5,11,9,10,6,4,14"
14398,commdev-image-keyboard-response,518,912049,learnblock2,378.5,img/planet11_left.png,11,Community 2,NA,TRUE,f,f,NA,NA,NA,1,6,"1,7,12,15,2,3,8,13,5,11,9,10,6,4,14"
14398,commdev-image-keyboard-response,519,913301,learnblock2,551.1999999880791,img/planet8_left.png,8,Community 2,NA,TRUE,f,f,NA,NA,NA,1,6,"1,7,12,15,2,3,8,13,5,11,9,10,6,4,14"
14398,commdev-image-keyboard-response,520,914552,learnblock2,457.10000002384186,img/planet3_left.png,3,Community 2,NA,TRUE,f,f,NA,NA,NA,1,6,"1,7,12,15,2,3,8,13,5,11,9,10,6,4,14"
14398,commdev-image-keyboard-response,521,915804,learnblock2,483.7000000476837,img/planet15_left.png,15,Community 1,NA,TRUE,f,f,NA,NA,NA,1,6,"1,7,12,15,2,3,8,13,5,11,9,10,6,4,14"
14398,commdev-image-keyboard-response,522,917055,learnblock2,484,img/planet12_right.png,12,Community 1,NA,TRUE,j,j,NA,NA,NA,1,6,"1,7,12,15,2,3,8,13,5,11,9,10,6,4,14"
14398,commdev-image-keyboard-response,523,918306,learnblock2,516.4000000357628,img/planet7_right.png,7,Community 1,NA,TRUE,j,j,NA,NA,NA,1,6,"1,7,12,15,2,3,8,13,5,11,9,10,6,4,14"
14398,commdev-image-keyboard-response,524,919557,learnblock2,543,img/planet1_left.png,1,Community 1,NA,TRUE,f,f,NA,NA,NA,1,6,"1,7,12,15,2,3,8,13,5,11,9,10,6,4,14"
14398,commdev-image-keyboard-response,525,920809,learnblock2,611.8999999761581,img/planet7_left.png,7,Community 1,NA,TRUE,f,f,NA,NA,NA,1,6,"1,7,12,15,2,3,8,13,5,11,9,10,6,4,14"
14398,commdev-image-keyboard-response,526,922062,learnblock2,505.39999997615814,img/planet1_right.png,1,Community 1,NA,TRUE,j,j,NA,NA,NA,1,6,"1,7,12,15,2,3,8,13,5,11,9,10,6,4,14"
14398,commdev-image-keyboard-response,527,923313,learnblock2,555.3000000119209,img/planet7_left.png,7,Community 1,NA,TRUE,f,f,NA,NA,NA,1,6,"1,7,12,15,2,3,8,13,5,11,9,10,6,4,14"
14398,commdev-image-keyboard-response,528,924564,learnblock2,567.5,img/planet1_left.png,1,Community 1,NA,TRUE,f,f,NA,NA,NA,1,6,"1,7,12,15,2,3,8,13,5,11,9,10,6,4,14"
14398,commdev-image-keyboard-response,529,925816,learnblock2,481.30000001192093,img/planet2_right.png,2,Community 1,NA,TRUE,j,j,NA,NA,NA,1,6,"1,7,12,15,2,3,8,13,5,11,9,10,6,4,14"
14398,commdev-image-keyboard-response,530,927068,learnblock2,384.19999998807907,img/planet1_left.png,1,Community 1,NA,TRUE,f,f,NA,NA,NA,1,6,"1,7,12,15,2,3,8,13,5,11,9,10,6,4,14"
14398,commdev-image-keyboard-response,531,928320,learnblock2,489,img/planet2_right.png,2,Community 1,NA,FALSE,f,j,NA,NA,NA,1,6,"1,7,12,15,2,3,8,13,5,11,9,10,6,4,14"
14398,commdev-image-keyboard-response,532,929572,learnblock2,373.89999997615814,img/planet12_left.png,12,Community 1,NA,TRUE,f,f,NA,NA,NA,1,6,"1,7,12,15,2,3,8,13,5,11,9,10,6,4,14"
14398,commdev-image-keyboard-response,533,930825,learnblock2,427.5999999642372,img/planet15_right.png,15,Community 1,NA,TRUE,j,j,NA,NA,NA,1,6,"1,7,12,15,2,3,8,13,5,11,9,10,6,4,14"
14398,commdev-image-keyboard-response,534,932077,learnblock2,439.60000002384186,img/planet1_left.png,1,Community 1,NA,TRUE,f,f,NA,NA,NA,1,6,"1,7,12,15,2,3,8,13,5,11,9,10,6,4,14"
14398,commdev-image-keyboard-response,535,933328,learnblock2,560.0999999642372,img/planet7_left.png,7,Community 1,NA,FALSE,j,f,NA,NA,NA,1,6,"1,7,12,15,2,3,8,13,5,11,9,10,6,4,14"
14398,commdev-image-keyboard-response,536,934581,learnblock2,457.80000001192093,img/planet15_right.png,15,Community 1,NA,TRUE,j,j,NA,NA,NA,1,6,"1,7,12,15,2,3,8,13,5,11,9,10,6,4,14"
14398,commdev-image-keyboard-response,537,935832,learnblock2,416.89999997615814,img/planet3_left.png,3,Community 2,NA,TRUE,f,f,NA,NA,NA,1,6,"1,7,12,15,2,3,8,13,5,11,9,10,6,4,14"
14398,commdev-image-keyboard-response,538,937083,learnblock2,549.5,img/planet11_left.png,11,Community 2,NA,TRUE,f,f,NA,NA,NA,1,6,"1,7,12,15,2,3,8,13,5,11,9,10,6,4,14"
14398,commdev-image-keyboard-response,539,938335,learnblock2,482.89999997615814,img/planet13_left.png,13,Community 2,NA,TRUE,f,f,NA,NA,NA,1,6,"1,7,12,15,2,3,8,13,5,11,9,10,6,4,14"
14398,commdev-image-keyboard-response,540,939587,learnblock2,419.69999998807907,img/planet5_left.png,5,Community 2,NA,TRUE,f,f,NA,NA,NA,1,6,"1,7,12,15,2,3,8,13,5,11,9,10,6,4,14"
14398,commdev-image-keyboard-response,541,940839,learnblock2,402.9000000357628,img/planet8_right.png,8,Community 2,NA,TRUE,j,j,NA,NA,NA,1,6,"1,7,12,15,2,3,8,13,5,11,9,10,6,4,14"
14398,commdev-image-keyboard-response,542,942093,learnblock2,344,img/planet13_right.png,13,Community 2,NA,FALSE,f,j,NA,NA,NA,1,6,"1,7,12,15,2,3,8,13,5,11,9,10,6,4,14"
14398,commdev-image-keyboard-response,543,943344,learnblock2,413.4000000357628,img/planet11_left.png,11,Community 2,NA,TRUE,f,f,NA,NA,NA,1,6,"1,7,12,15,2,3,8,13,5,11,9,10,6,4,14"
14398,commdev-image-keyboard-response,544,944596,learnblock2,457,img/planet3_left.png,3,Community 2,NA,TRUE,f,f,NA,NA,NA,1,6,"1,7,12,15,2,3,8,13,5,11,9,10,6,4,14"
14398,commdev-image-keyboard-response,545,945847,learnblock2,585.1000000238419,img/planet8_left.png,8,Community 2,NA,TRUE,f,f,NA,NA,NA,1,6,"1,7,12,15,2,3,8,13,5,11,9,10,6,4,14"
14398,commdev-image-keyboard-response,546,947099,learnblock2,487.69999998807907,img/planet11_left.png,11,Community 2,NA,TRUE,f,f,NA,NA,NA,1,6,"1,7,12,15,2,3,8,13,5,11,9,10,6,4,14"
14398,commdev-image-keyboard-response,547,948351,learnblock2,580.3999999761581,img/planet3_left.png,3,Community 2,NA,TRUE,f,f,NA,NA,NA,1,6,"1,7,12,15,2,3,8,13,5,11,9,10,6,4,14"
14398,commdev-image-keyboard-response,548,949602,learnblock2,469.80000001192093,img/planet5_left.png,5,Community 2,NA,TRUE,f,f,NA,NA,NA,1,6,"1,7,12,15,2,3,8,13,5,11,9,10,6,4,14"
14398,commdev-image-keyboard-response,549,950853,learnblock2,501.69999998807907,img/planet3_right.png,3,Community 2,NA,TRUE,j,j,NA,NA,NA,1,6,"1,7,12,15,2,3,8,13,5,11,9,10,6,4,14"
14398,commdev-image-keyboard-response,550,952104,learnblock2,396.2000000476837,img/planet8_left.png,8,Community 2,NA,FALSE,j,f,NA,NA,NA,1,6,"1,7,12,15,2,3,8,13,5,11,9,10,6,4,14"
14398,commdev-image-keyboard-response,551,953356,learnblock2,454.30000001192093,img/planet13_left.png,13,Community 2,NA,TRUE,f,f,NA,NA,NA,1,6,"1,7,12,15,2,3,8,13,5,11,9,10,6,4,14"
14398,commdev-image-keyboard-response,552,954608,learnblock2,409.5,img/planet10_left.png,10,Community 3,NA,TRUE,f,f,NA,NA,NA,1,6,"1,7,12,15,2,3,8,13,5,11,9,10,6,4,14"
14398,commdev-image-keyboard-response,553,955859,learnblock2,415.89999997615814,img/planet6_right.png,6,Community 3,NA,TRUE,j,j,NA,NA,NA,1,6,"1,7,12,15,2,3,8,13,5,11,9,10,6,4,14"
14398,commdev-image-keyboard-response,554,957111,learnblock2,414,img/planet9_left.png,9,Community 3,NA,TRUE,f,f,NA,NA,NA,1,6,"1,7,12,15,2,3,8,13,5,11,9,10,6,4,14"
14398,commdev-image-keyboard-response,555,958364,learnblock2,616.1999999880791,img/planet14_left.png,14,Community 3,NA,TRUE,f,f,NA,NA,NA,1,6,"1,7,12,15,2,3,8,13,5,11,9,10,6,4,14"
14398,commdev-image-keyboard-response,556,959616,learnblock2,523.1000000238419,img/planet10_left.png,10,Community 3,NA,TRUE,f,f,NA,NA,NA,1,6,"1,7,12,15,2,3,8,13,5,11,9,10,6,4,14"
14398,commdev-image-keyboard-response,557,960866,learnblock2,423.5,img/planet4_left.png,4,Community 3,NA,TRUE,f,f,NA,NA,NA,1,6,"1,7,12,15,2,3,8,13,5,11,9,10,6,4,14"
14398,commdev-image-keyboard-response,558,962119,learnblock2,518.3000000119209,img/planet9_left.png,9,Community 3,NA,TRUE,f,f,NA,NA,NA,1,6,"1,7,12,15,2,3,8,13,5,11,9,10,6,4,14"
14398,commdev-image-keyboard-response,559,963371,learnblock2,459.89999997615814,img/planet4_right.png,4,Community 3,NA,TRUE,j,j,NA,NA,NA,1,6,"1,7,12,15,2,3,8,13,5,11,9,10,6,4,14"
14398,commdev-image-keyboard-response,560,964622,learnblock2,559.5999999642372,img/planet9_right.png,9,Community 3,NA,TRUE,j,j,NA,NA,NA,1,6,"1,7,12,15,2,3,8,13,5,11,9,10,6,4,14"
14398,commdev-image-keyboard-response,561,965875,learnblock2,662,img/planet6_left.png,6,Community 3,NA,TRUE,f,f,NA,NA,NA,1,6,"1,7,12,15,2,3,8,13,5,11,9,10,6,4,14"
14398,commdev-image-keyboard-response,562,967126,learnblock2,520.8999999761581,img/planet9_left.png,9,Community 3,NA,TRUE,f,f,NA,NA,NA,1,6,"1,7,12,15,2,3,8,13,5,11,9,10,6,4,14"
14398,commdev-image-keyboard-response,563,968379,learnblock2,576,img/planet14_right.png,14,Community 3,NA,FALSE,f,j,NA,NA,NA,1,6,"1,7,12,15,2,3,8,13,5,11,9,10,6,4,14"
14398,commdev-image-keyboard-response,564,969632,learnblock2,487,img/planet4_right.png,4,Community 3,NA,TRUE,j,j,NA,NA,NA,1,6,"1,7,12,15,2,3,8,13,5,11,9,10,6,4,14"
14398,commdev-image-keyboard-response,565,970884,learnblock2,423.69999998807907,img/planet10_right.png,10,Community 3,NA,TRUE,j,j,NA,NA,NA,1,6,"1,7,12,15,2,3,8,13,5,11,9,10,6,4,14"
14398,commdev-image-keyboard-response,566,972144,learnblock2,545.5,img/planet14_left.png,14,Community 3,NA,TRUE,f,f,NA,NA,NA,1,6,"1,7,12,15,2,3,8,13,5,11,9,10,6,4,14"
14398,commdev-image-keyboard-response,567,973395,learnblock2,473.80000001192093,img/planet9_left.png,9,Community 3,NA,TRUE,f,f,NA,NA,NA,1,6,"1,7,12,15,2,3,8,13,5,11,9,10,6,4,14"
14398,commdev-image-keyboard-response,568,974647,learnblock2,616.9000000357628,img/planet14_left.png,14,Community 3,NA,TRUE,f,f,NA,NA,NA,1,6,"1,7,12,15,2,3,8,13,5,11,9,10,6,4,14"
14398,commdev-image-keyboard-response,569,975898,learnblock2,505.4000000357628,img/planet4_right.png,4,Community 3,NA,TRUE,j,j,NA,NA,NA,1,6,"1,7,12,15,2,3,8,13,5,11,9,10,6,4,14"
14398,commdev-image-keyboard-response,570,977149,learnblock2,576.4000000357628,img/planet10_left.png,10,Community 3,NA,TRUE,f,f,NA,NA,NA,1,6,"1,7,12,15,2,3,8,13,5,11,9,10,6,4,14"
14398,commdev-image-keyboard-response,571,978400,learnblock2,501.4000000357628,img/planet6_right.png,6,Community 3,NA,TRUE,j,j,NA,NA,NA,1,6,"1,7,12,15,2,3,8,13,5,11,9,10,6,4,14"
14398,commdev-image-keyboard-response,572,979653,learnblock2,565.3000000119209,img/planet14_right.png,14,Community 3,NA,TRUE,j,j,NA,NA,NA,1,6,"1,7,12,15,2,3,8,13,5,11,9,10,6,4,14"
14398,commdev-image-keyboard-response,573,980904,learnblock2,683,img/planet4_left.png,4,Community 3,NA,TRUE,f,f,NA,NA,NA,1,6,"1,7,12,15,2,3,8,13,5,11,9,10,6,4,14"
14398,commdev-image-keyboard-response,574,982156,learnblock2,607.5,img/planet6_left.png,6,Community 3,NA,TRUE,f,f,NA,NA,NA,1,6,"1,7,12,15,2,3,8,13,5,11,9,10,6,4,14"
14398,commdev-image-keyboard-response,575,983407,learnblock2,648,img/planet4_right.png,4,Community 3,NA,TRUE,j,j,NA,NA,NA,1,6,"1,7,12,15,2,3,8,13,5,11,9,10,6,4,14"
14398,commdev-image-keyboard-response,576,984658,learnblock2,455.89999997615814,img/planet10_left.png,10,Community 3,NA,FALSE,j,f,NA,NA,NA,1,6,"1,7,12,15,2,3,8,13,5,11,9,10,6,4,14"
14398,commdev-image-keyboard-response,577,985910,learnblock2,442,img/planet6_right.png,6,Community 3,NA,TRUE,j,j,NA,NA,NA,1,6,"1,7,12,15,2,3,8,13,5,11,9,10,6,4,14"
14398,commdev-image-keyboard-response,578,987163,learnblock2,441.5999999642372,img/planet9_right.png,9,Community 3,NA,TRUE,j,j,NA,NA,NA,1,6,"1,7,12,15,2,3,8,13,5,11,9,10,6,4,14"
14398,commdev-image-keyboard-response,579,988415,learnblock2,470,img/planet4_left.png,4,Community 3,NA,TRUE,f,f,NA,NA,NA,1,6,"1,7,12,15,2,3,8,13,5,11,9,10,6,4,14"
14398,commdev-image-keyboard-response,580,989667,learnblock2,469.19999998807907,img/planet10_right.png,10,Community 3,NA,TRUE,j,j,NA,NA,NA,1,6,"1,7,12,15,2,3,8,13,5,11,9,10,6,4,14"
14398,commdev-image-keyboard-response,581,990918,learnblock2,421.39999997615814,img/planet14_left.png,14,Community 3,NA,TRUE,f,f,NA,NA,NA,1,6,"1,7,12,15,2,3,8,13,5,11,9,10,6,4,14"
14398,commdev-image-keyboard-response,582,992173,learnblock2,501.5999999642372,img/planet10_left.png,10,Community 3,NA,TRUE,f,f,NA,NA,NA,1,6,"1,7,12,15,2,3,8,13,5,11,9,10,6,4,14"
14398,commdev-image-keyboard-response,583,993426,learnblock2,573.9000000357628,img/planet14_left.png,14,Community 3,NA,TRUE,f,f,NA,NA,NA,1,6,"1,7,12,15,2,3,8,13,5,11,9,10,6,4,14"
14398,commdev-image-keyboard-response,584,994677,learnblock2,407.2000000476837,img/planet10_right.png,10,Community 3,NA,TRUE,j,j,NA,NA,NA,1,6,"1,7,12,15,2,3,8,13,5,11,9,10,6,4,14"
14398,commdev-image-keyboard-response,585,995929,learnblock2,554.5,img/planet6_right.png,6,Community 3,NA,TRUE,j,j,NA,NA,NA,1,6,"1,7,12,15,2,3,8,13,5,11,9,10,6,4,14"
